* Measurement data measured by REW V5.31.3
* Source: PCM: default, no input selected, 2, volume: no control
* Format: 8192-point spectrum using Hann window and exponential averaging 0.97 
* Dated: Mar 9, 2025 1:25:20 PM
* REW Settings:
*  C-weighting compensation: Off
*  Target level: 75.0 dB
* Note: OSDEHA MU-OUTPUT; 8192-point spectrum using Hann window and exponential averaging 0.97  Input RMS 74.98 V 74.98 VC, 74.98 VA 74.98 V 22 - 22k UNW 975.6 uV >22k Distortion at 1,000.0 Hz, -2.50 dBFS: Gain: 29.67 dB THD: 0.024 % based on 21 harmonics  [0..22800 Hz] HHD: 0.00057 %  [10 .. 22] N: 0.019 %  [0..22800 Hz] N+D: 21.05 mV A THD+N: 0.030 %  [0..22800 Hz] SNR: 74.4 dB ENOB: 12.3 bits 2nd harmonic 0.022 % -166 deg 3rd harmonic 0.0068 % -91 deg 4th harmonic 0.0042 % 119 deg 5th harmonic 0.0028 % -51 deg 6th harmonic 0.0011 % 89 deg 7th harmonic 0.00030 % -39 deg 8th harmonic 0.00040 % 116 deg 9th harmonic 0.00026 % -72 deg
* Measurement: OSDEHA MU-OUT 75
* Smoothing: None
* Frequency Step: 5.859375 Hz
* Start Frequency: 5.859375 Hz
*
* Freq(Hz); V(V)
5.859375; 3.71401E-4
11.718750; 4.26591E-4
17.578125; 3.16883E-4
23.437500; 2.91020E-4
29.296875; 3.05819E-4
35.156250; 2.77028E-4
41.015625; 2.42989E-4
46.875000; 3.31068E-4
52.734375; 3.74828E-4
58.593750; 2.65678E-4
64.453125; 2.37524E-4
70.312500; 2.15938E-4
76.171875; 1.88356E-4
82.031250; 2.12908E-4
87.890625; 2.31426E-4
93.750000; 5.71406E-3
99.609375; 1.27857E-2
105.468750; 7.15961E-3
111.328125; 2.78435E-4
117.187500; 1.90218E-4
123.046875; 1.85042E-4
128.906250; 1.88631E-4
134.765625; 1.99583E-4
140.625000; 1.91399E-4
146.484375; 2.17266E-4
152.343750; 1.97709E-4
158.203125; 1.60028E-4
164.062500; 1.91244E-4
169.921875; 1.73670E-4
175.781250; 1.55616E-4
181.640625; 1.63403E-4
187.500000; 1.68381E-4
193.359375; 5.31114E-4
199.218750; 1.32480E-3
205.078125; 8.49563E-4
210.937500; 1.74640E-4
216.796875; 1.53684E-4
222.656250; 1.56521E-4
228.515625; 1.67282E-4
234.375000; 1.56835E-4
240.234375; 1.72313E-4
246.093750; 1.67705E-4
251.953125; 1.71266E-4
257.812500; 1.51760E-4
263.671875; 1.56552E-4
269.531250; 1.69319E-4
275.390625; 1.66104E-4
281.250000; 1.57334E-4
287.109375; 1.56602E-4
292.968750; 1.79496E-4
298.828125; 3.06880E-4
304.687500; 2.32348E-4
310.546875; 1.48717E-4
316.406250; 1.56691E-4
322.265625; 1.71645E-4
328.125000; 1.48903E-4
333.984375; 1.54298E-4
339.843750; 1.47986E-4
345.703125; 1.52763E-4
351.562500; 1.46516E-4
357.421875; 1.43294E-4
363.281250; 1.40953E-4
369.140625; 1.74909E-4
375.000000; 1.68757E-4
380.859375; 1.56082E-4
386.718750; 1.56682E-4
392.578125; 1.78805E-4
398.437500; 2.80842E-4
404.296875; 2.42274E-4
410.156250; 1.59103E-4
416.015625; 1.65490E-4
421.875000; 1.63857E-4
427.734375; 1.84847E-4
433.593750; 1.81944E-4
439.453125; 1.61243E-4
445.312500; 1.47539E-4
451.171875; 1.63125E-4
457.031250; 1.71836E-4
462.890625; 1.68312E-4
468.750000; 1.38048E-4
474.609375; 1.36179E-4
480.468750; 1.58667E-4
486.328125; 1.90096E-4
492.187500; 1.81586E-4
498.046875; 1.75352E-4
503.906250; 1.51982E-4
509.765625; 1.68102E-4
515.625000; 1.57697E-4
521.484375; 1.55985E-4
527.343750; 1.50606E-4
533.203125; 1.54837E-4
539.062500; 1.47953E-4
544.921875; 1.67290E-4
550.781250; 1.60677E-4
556.640625; 1.44548E-4
562.500000; 1.63536E-4
568.359375; 2.07222E-4
574.218750; 1.62173E-4
580.078125; 1.67527E-4
585.937500; 1.62395E-4
591.796875; 1.69447E-4
597.656250; 1.91249E-4
603.515625; 1.74541E-4
609.375000; 1.45714E-4
615.234375; 1.85167E-4
621.093750; 1.53642E-4
626.953125; 1.78463E-4
632.812500; 1.64966E-4
638.671875; 1.66834E-4
644.531250; 1.63970E-4
650.390625; 1.88931E-4
656.250000; 2.08474E-4
662.109375; 1.62968E-4
667.968750; 1.85879E-4
673.828125; 1.99045E-4
679.687500; 1.78649E-4
685.546875; 2.20684E-4
691.406250; 2.01382E-4
697.265625; 2.23372E-4
703.125000; 2.26969E-4
708.984375; 2.60977E-4
714.843750; 2.03889E-4
720.703125; 2.73405E-4
726.562500; 2.71637E-4
732.421875; 2.72016E-4
738.281250; 2.80575E-4
744.140625; 2.87633E-4
750.000000; 3.17165E-4
755.859375; 3.56673E-4
761.718750; 3.20667E-4
767.578125; 3.91721E-4
773.437500; 3.73777E-4
779.296875; 3.96064E-4
785.156250; 4.64754E-4
791.015625; 4.67678E-4
796.875000; 5.23244E-4
802.734375; 5.49391E-4
808.593750; 6.52293E-4
814.453125; 6.32508E-4
820.312500; 7.55243E-4
826.171875; 8.07494E-4
832.031250; 8.77889E-4
837.890625; 9.99864E-4
843.750000; 1.09916E-3
849.609375; 1.22582E-3
855.468750; 1.41339E-3
861.328125; 1.55997E-3
867.187500; 1.78616E-3
873.046875; 2.03812E-3
878.906250; 2.35639E-3
884.765625; 2.74525E-3
890.625000; 3.14001E-3
896.484375; 3.80635E-3
902.343750; 4.47718E-3
908.203125; 5.39320E-3
914.062500; 6.57486E-3
919.921875; 8.15887E-3
925.781250; 1.02407E-2
931.640625; 1.31057E-2
937.500000; 1.71660E-2
943.359375; 2.31566E-2
949.218750; 3.21641E-2
955.078125; 4.66702E-2
960.937500; 7.13682E-2
966.796875; 1.17222E-1
972.656250; 2.13180E-1
978.515625; 4.53003E-1
984.375000; 1.26833E0
990.234375; 6.97597E0
996.093750; 5.58076E1
1001.953125; 6.97595E1
1007.812500; 1.99313E1
1013.671875; 1.99312E0
1019.531250; 6.13263E-1
1025.390625; 2.68343E-1
1031.250000; 1.41171E-1
1037.109375; 8.34862E-2
1042.968750; 5.33727E-2
1048.828125; 3.62662E-2
1054.687500; 2.56766E-2
1060.546875; 1.89488E-2
1066.406250; 1.42917E-2
1072.265625; 1.11021E-2
1078.125000; 8.77272E-3
1083.984375; 7.03296E-3
1089.843750; 5.77984E-3
1095.703125; 4.77600E-3
1101.562500; 3.96325E-3
1107.421875; 3.36829E-3
1113.281250; 2.88473E-3
1119.140625; 2.46499E-3
1125.000000; 2.13942E-3
1130.859375; 1.85316E-3
1136.718750; 1.66581E-3
1142.578125; 1.41844E-3
1148.437500; 1.28145E-3
1154.296875; 1.14926E-3
1160.156250; 1.03743E-3
1166.015625; 9.15563E-4
1171.875000; 8.32986E-4
1177.734375; 7.77600E-4
1183.593750; 6.71084E-4
1189.453125; 6.41584E-4
1195.312500; 5.77643E-4
1201.171875; 5.45302E-4
1207.031250; 4.79887E-4
1212.890625; 4.54233E-4
1218.750000; 4.45156E-4
1224.609375; 3.84309E-4
1230.468750; 4.00271E-4
1236.328125; 3.07885E-4
1242.187500; 3.35353E-4
1248.046875; 3.19020E-4
1253.906250; 2.65215E-4
1259.765625; 2.95740E-4
1265.625000; 2.74142E-4
1271.484375; 2.58907E-4
1277.343750; 2.42707E-4
1283.203125; 2.15863E-4
1289.062500; 2.46883E-4
1294.921875; 2.12254E-4
1300.781250; 2.27971E-4
1306.640625; 1.93377E-4
1312.500000; 2.21082E-4
1318.359375; 1.98602E-4
1324.218750; 2.17139E-4
1330.078125; 1.70188E-4
1335.937500; 1.69480E-4
1341.796875; 1.68936E-4
1347.656250; 1.76265E-4
1353.515625; 1.81026E-4
1359.375000; 1.54898E-4
1365.234375; 1.51290E-4
1371.093750; 1.59429E-4
1376.953125; 1.87297E-4
1382.812500; 1.61604E-4
1388.671875; 1.44412E-4
1394.531250; 1.80002E-4
1400.390625; 1.83270E-4
1406.250000; 1.77225E-4
1412.109375; 1.70265E-4
1417.968750; 1.61612E-4
1423.828125; 1.60908E-4
1429.687500; 1.65575E-4
1435.546875; 1.61569E-4
1441.406250; 1.55440E-4
1447.265625; 1.52988E-4
1453.125000; 1.57817E-4
1458.984375; 1.75408E-4
1464.843750; 1.66474E-4
1470.703125; 1.49165E-4
1476.562500; 1.54124E-4
1482.421875; 1.69537E-4
1488.281250; 1.61965E-4
1494.140625; 1.33424E-4
1500.000000; 1.51463E-4
1505.859375; 1.61371E-4
1511.718750; 1.57594E-4
1517.578125; 1.38264E-4
1523.437500; 1.36796E-4
1529.296875; 1.21009E-4
1535.156250; 1.48867E-4
1541.015625; 1.85741E-4
1546.875000; 1.52401E-4
1552.734375; 1.36767E-4
1558.593750; 1.53542E-4
1564.453125; 1.95157E-4
1570.312500; 1.70901E-4
1576.171875; 1.51608E-4
1582.031250; 1.38812E-4
1587.890625; 1.31461E-4
1593.750000; 1.50250E-4
1599.609375; 1.45763E-4
1605.468750; 1.25941E-4
1611.328125; 1.28309E-4
1617.187500; 1.37270E-4
1623.046875; 1.62214E-4
1628.906250; 1.53267E-4
1634.765625; 1.36370E-4
1640.625000; 1.50417E-4
1646.484375; 1.55478E-4
1652.343750; 1.57518E-4
1658.203125; 1.60216E-4
1664.062500; 1.44530E-4
1669.921875; 1.56933E-4
1675.781250; 1.46252E-4
1681.640625; 1.54443E-4
1687.500000; 1.43565E-4
1693.359375; 1.50234E-4
1699.218750; 1.54700E-4
1705.078125; 1.69548E-4
1710.937500; 1.50583E-4
1716.796875; 1.56980E-4
1722.656250; 1.50941E-4
1728.515625; 1.47363E-4
1734.375000; 1.41654E-4
1740.234375; 1.22750E-4
1746.093750; 1.23185E-4
1751.953125; 1.42910E-4
1757.812500; 1.54482E-4
1763.671875; 1.38195E-4
1769.531250; 1.30507E-4
1775.390625; 1.55348E-4
1781.250000; 1.58641E-4
1787.109375; 1.47132E-4
1792.968750; 1.46415E-4
1798.828125; 1.45881E-4
1804.687500; 1.64944E-4
1810.546875; 1.50932E-4
1816.406250; 1.40236E-4
1822.265625; 1.46799E-4
1828.125000; 1.52142E-4
1833.984375; 1.60539E-4
1839.843750; 1.44081E-4
1845.703125; 1.18278E-4
1851.562500; 1.39056E-4
1857.421875; 1.45976E-4
1863.281250; 1.43122E-4
1869.140625; 1.47115E-4
1875.000000; 1.48085E-4
1880.859375; 1.54115E-4
1886.718750; 1.54718E-4
1892.578125; 1.58124E-4
1898.437500; 1.41847E-4
1904.296875; 1.24540E-4
1910.156250; 1.45477E-4
1916.015625; 1.66717E-4
1921.875000; 1.49035E-4
1927.734375; 1.44627E-4
1933.593750; 1.45904E-4
1939.453125; 1.63628E-4
1945.312500; 1.69259E-4
1951.171875; 1.35623E-4
1957.031250; 1.25620E-4
1962.890625; 1.22517E-4
1968.750000; 1.86500E-4
1974.609375; 1.73749E-4
1980.468750; 1.79203E-4
1986.328125; 4.68157E-4
1992.187500; 4.40322E-3
1998.046875; 1.54355E-2
2003.906250; 1.23703E-2
2009.765625; 1.56392E-3
2015.625000; 3.27770E-4
2021.484375; 1.71137E-4
2027.343750; 1.71099E-4
2033.203125; 1.64518E-4
2039.062500; 1.21878E-4
2044.921875; 1.28625E-4
2050.781250; 1.37299E-4
2056.640625; 1.54863E-4
2062.500000; 1.38780E-4
2068.359375; 1.36643E-4
2074.218750; 1.43742E-4
2080.078125; 1.52595E-4
2085.937500; 1.56684E-4
2091.796875; 1.45119E-4
2097.656250; 1.39847E-4
2103.515625; 1.42264E-4
2109.375000; 1.51246E-4
2115.234375; 1.47214E-4
2121.093750; 1.43440E-4
2126.953125; 1.36525E-4
2132.812500; 1.63840E-4
2138.671875; 1.76362E-4
2144.531250; 1.35936E-4
2150.390625; 1.39845E-4
2156.250000; 1.41942E-4
2162.109375; 1.48177E-4
2167.968750; 1.48307E-4
2173.828125; 1.47176E-4
2179.687500; 1.49542E-4
2185.546875; 1.45273E-4
2191.406250; 1.58277E-4
2197.265625; 1.57030E-4
2203.125000; 1.34849E-4
2208.984375; 1.57170E-4
2214.843750; 1.49702E-4
2220.703125; 1.52031E-4
2226.562500; 1.49703E-4
2232.421875; 1.54625E-4
2238.281250; 1.45024E-4
2244.140625; 1.50015E-4
2250.000000; 1.37150E-4
2255.859375; 1.39561E-4
2261.718750; 1.46996E-4
2267.578125; 1.35416E-4
2273.437500; 1.32203E-4
2279.296875; 1.35854E-4
2285.156250; 1.54045E-4
2291.015625; 1.54919E-4
2296.875000; 1.42193E-4
2302.734375; 1.31976E-4
2308.593750; 1.18846E-4
2314.453125; 1.46779E-4
2320.312500; 1.55589E-4
2326.171875; 1.29343E-4
2332.031250; 1.23355E-4
2337.890625; 1.09360E-4
2343.750000; 1.39700E-4
2349.609375; 1.45706E-4
2355.468750; 1.21443E-4
2361.328125; 1.19600E-4
2367.187500; 1.30340E-4
2373.046875; 1.55160E-4
2378.906250; 1.31068E-4
2384.765625; 1.25387E-4
2390.625000; 1.25715E-4
2396.484375; 1.23363E-4
2402.343750; 1.50920E-4
2408.203125; 1.51749E-4
2414.062500; 1.29761E-4
2419.921875; 1.28488E-4
2425.781250; 1.52742E-4
2431.640625; 1.70394E-4
2437.500000; 1.48740E-4
2443.359375; 1.29240E-4
2449.218750; 1.39957E-4
2455.078125; 1.59669E-4
2460.937500; 1.52273E-4
2466.796875; 1.33907E-4
2472.656250; 1.39832E-4
2478.515625; 1.35683E-4
2484.375000; 1.49526E-4
2490.234375; 1.44510E-4
2496.093750; 1.32971E-4
2501.953125; 1.48507E-4
2507.812500; 1.55761E-4
2513.671875; 1.50841E-4
2519.531250; 1.30533E-4
2525.390625; 1.27931E-4
2531.250000; 1.42144E-4
2537.109375; 1.48666E-4
2542.968750; 1.48393E-4
2548.828125; 1.30158E-4
2554.687500; 1.32354E-4
2560.546875; 1.40036E-4
2566.406250; 1.49561E-4
2572.265625; 1.43020E-4
2578.125000; 1.39137E-4
2583.984375; 1.38498E-4
2589.843750; 1.53058E-4
2595.703125; 1.73116E-4
2601.562500; 1.54439E-4
2607.421875; 1.36514E-4
2613.281250; 1.45155E-4
2619.140625; 1.42856E-4
2625.000000; 1.34355E-4
2630.859375; 1.30954E-4
2636.718750; 1.34373E-4
2642.578125; 1.47990E-4
2648.437500; 1.50080E-4
2654.296875; 1.54621E-4
2660.156250; 1.46587E-4
2666.015625; 1.37787E-4
2671.875000; 1.44468E-4
2677.734375; 1.66633E-4
2683.593750; 1.52715E-4
2689.453125; 1.34398E-4
2695.312500; 1.54723E-4
2701.171875; 1.53216E-4
2707.031250; 1.48836E-4
2712.890625; 1.39441E-4
2718.750000; 1.35058E-4
2724.609375; 1.52580E-4
2730.468750; 1.58096E-4
2736.328125; 1.38174E-4
2742.187500; 1.28802E-4
2748.046875; 1.48885E-4
2753.906250; 1.45235E-4
2759.765625; 1.54274E-4
2765.625000; 1.44230E-4
2771.484375; 1.32046E-4
2777.343750; 1.33288E-4
2783.203125; 1.37359E-4
2789.062500; 1.53501E-4
2794.921875; 1.53524E-4
2800.781250; 1.42993E-4
2806.640625; 1.53369E-4
2812.500000; 1.58944E-4
2818.359375; 1.45342E-4
2824.218750; 1.35378E-4
2830.078125; 1.39262E-4
2835.937500; 1.46669E-4
2841.796875; 1.36808E-4
2847.656250; 1.31883E-4
2853.515625; 1.32634E-4
2859.375000; 1.55370E-4
2865.234375; 1.58497E-4
2871.093750; 1.29662E-4
2876.953125; 1.21496E-4
2882.812500; 1.36192E-4
2888.671875; 1.43029E-4
2894.531250; 1.44235E-4
2900.390625; 1.47089E-4
2906.250000; 1.42087E-4
2912.109375; 1.58382E-4
2917.968750; 1.54802E-4
2923.828125; 1.27412E-4
2929.687500; 1.20536E-4
2935.546875; 1.33879E-4
2941.406250; 1.68051E-4
2947.265625; 1.47605E-4
2953.125000; 1.33356E-4
2958.984375; 1.13983E-4
2964.843750; 1.27764E-4
2970.703125; 1.79512E-4
2976.562500; 1.52123E-4
2982.421875; 1.18739E-4
2988.281250; 1.26488E-4
2994.140625; 2.56047E-3
3000.000000; 5.11225E-3
3005.859375; 2.57258E-3
3011.718750; 1.32072E-4
3017.578125; 1.31497E-4
3023.437500; 1.43333E-4
3029.296875; 1.68673E-4
3035.156250; 1.28237E-4
3041.015625; 1.06909E-4
3046.875000; 1.42841E-4
3052.734375; 1.66770E-4
3058.593750; 1.52273E-4
3064.453125; 1.42755E-4
3070.312500; 1.47495E-4
3076.171875; 1.43236E-4
3082.031250; 1.45552E-4
3087.890625; 1.28365E-4
3093.750000; 1.24386E-4
3099.609375; 1.28220E-4
3105.468750; 1.50183E-4
3111.328125; 1.55187E-4
3117.187500; 1.30236E-4
3123.046875; 1.37172E-4
3128.906250; 1.49641E-4
3134.765625; 1.65964E-4
3140.625000; 1.46396E-4
3146.484375; 1.38723E-4
3152.343750; 1.57438E-4
3158.203125; 1.43545E-4
3164.062500; 1.36907E-4
3169.921875; 1.38028E-4
3175.781250; 1.43531E-4
3181.640625; 1.27886E-4
3187.500000; 1.26824E-4
3193.359375; 1.28149E-4
3199.218750; 1.27391E-4
3205.078125; 1.42356E-4
3210.937500; 1.32360E-4
3216.796875; 1.20081E-4
3222.656250; 1.26369E-4
3228.515625; 1.20662E-4
3234.375000; 1.30761E-4
3240.234375; 1.47467E-4
3246.093750; 1.59383E-4
3251.953125; 1.54863E-4
3257.812500; 1.23729E-4
3263.671875; 1.39185E-4
3269.531250; 1.32910E-4
3275.390625; 1.46361E-4
3281.250000; 1.38319E-4
3287.109375; 1.37333E-4
3292.968750; 1.45043E-4
3298.828125; 1.33451E-4
3304.687500; 1.36865E-4
3310.546875; 1.46735E-4
3316.406250; 1.41889E-4
3322.265625; 1.47311E-4
3328.125000; 1.30417E-4
3333.984375; 1.09055E-4
3339.843750; 1.17831E-4
3345.703125; 1.50889E-4
3351.562500; 1.41462E-4
3357.421875; 1.36948E-4
3363.281250; 1.32691E-4
3369.140625; 1.35850E-4
3375.000000; 1.69837E-4
3380.859375; 1.46709E-4
3386.718750; 1.22917E-4
3392.578125; 1.23788E-4
3398.437500; 1.34174E-4
3404.296875; 1.56567E-4
3410.156250; 1.16762E-4
3416.015625; 1.20769E-4
3421.875000; 1.48093E-4
3427.734375; 1.47951E-4
3433.593750; 1.43161E-4
3439.453125; 1.30331E-4
3445.312500; 1.31005E-4
3451.171875; 1.47398E-4
3457.031250; 1.64258E-4
3462.890625; 1.52539E-4
3468.750000; 1.38163E-4
3474.609375; 1.33061E-4
3480.468750; 1.10707E-4
3486.328125; 1.42203E-4
3492.187500; 1.50236E-4
3498.046875; 1.31470E-4
3503.906250; 1.25735E-4
3509.765625; 1.50165E-4
3515.625000; 1.30800E-4
3521.484375; 1.26299E-4
3527.343750; 1.46644E-4
3533.203125; 1.51159E-4
3539.062500; 1.47701E-4
3544.921875; 1.42812E-4
3550.781250; 1.30073E-4
3556.640625; 1.38903E-4
3562.500000; 1.59908E-4
3568.359375; 1.43131E-4
3574.218750; 1.24595E-4
3580.078125; 1.24338E-4
3585.937500; 1.30238E-4
3591.796875; 1.51589E-4
3597.656250; 1.50283E-4
3603.515625; 1.10535E-4
3609.375000; 1.21425E-4
3615.234375; 1.36279E-4
3621.093750; 1.55362E-4
3626.953125; 1.43577E-4
3632.812500; 1.31208E-4
3638.671875; 1.28243E-4
3644.531250; 1.24185E-4
3650.390625; 1.26235E-4
3656.250000; 1.27881E-4
3662.109375; 1.47932E-4
3667.968750; 1.63477E-4
3673.828125; 1.54130E-4
3679.687500; 1.53259E-4
3685.546875; 1.44700E-4
3691.406250; 1.36193E-4
3697.265625; 1.50161E-4
3703.125000; 1.32608E-4
3708.984375; 1.19783E-4
3714.843750; 1.28791E-4
3720.703125; 1.37062E-4
3726.562500; 1.29633E-4
3732.421875; 1.40596E-4
3738.281250; 1.53877E-4
3744.140625; 1.49236E-4
3750.000000; 1.39861E-4
3755.859375; 1.44121E-4
3761.718750; 1.39956E-4
3767.578125; 1.33204E-4
3773.437500; 1.45154E-4
3779.296875; 1.33953E-4
3785.156250; 1.41247E-4
3791.015625; 1.54887E-4
3796.875000; 1.44442E-4
3802.734375; 1.42418E-4
3808.593750; 1.35189E-4
3814.453125; 1.26382E-4
3820.312500; 1.25181E-4
3826.171875; 1.41562E-4
3832.031250; 1.43374E-4
3837.890625; 1.51983E-4
3843.750000; 1.23162E-4
3849.609375; 1.27117E-4
3855.468750; 1.53518E-4
3861.328125; 1.55376E-4
3867.187500; 1.38262E-4
3873.046875; 1.18877E-4
3878.906250; 1.31257E-4
3884.765625; 1.60526E-4
3890.625000; 1.40271E-4
3896.484375; 1.26659E-4
3902.343750; 1.27235E-4
3908.203125; 1.49474E-4
3914.062500; 1.49795E-4
3919.921875; 1.23653E-4
3925.781250; 1.20080E-4
3931.640625; 1.26501E-4
3937.500000; 1.60851E-4
3943.359375; 1.64598E-4
3949.218750; 1.25398E-4
3955.078125; 1.16253E-4
3960.937500; 1.15796E-4
3966.796875; 1.47840E-4
3972.656250; 1.56463E-4
3978.515625; 1.06401E-4
3984.375000; 1.41936E-4
3990.234375; 3.27816E-4
3996.093750; 2.34478E-3
4001.953125; 2.92027E-3
4007.812500; 8.36139E-4
4013.671875; 1.63422E-4
4019.531250; 1.37689E-4
4025.390625; 1.61653E-4
4031.250000; 1.62994E-4
4037.109375; 1.30312E-4
4042.968750; 1.37576E-4
4048.828125; 1.40895E-4
4054.687500; 1.43609E-4
4060.546875; 1.37855E-4
4066.406250; 1.36594E-4
4072.265625; 1.38102E-4
4078.125000; 1.41477E-4
4083.984375; 1.45172E-4
4089.843750; 1.30754E-4
4095.703125; 1.35482E-4
4101.562500; 1.25966E-4
4107.421875; 1.39238E-4
4113.281250; 1.26104E-4
4119.140625; 1.43445E-4
4125.000000; 1.62030E-4
4130.859375; 1.54770E-4
4136.718750; 1.45032E-4
4142.578125; 1.36260E-4
4148.437500; 1.44312E-4
4154.296875; 1.42494E-4
4160.156250; 1.25931E-4
4166.015625; 1.33391E-4
4171.875000; 1.48219E-4
4177.734375; 1.45455E-4
4183.593750; 1.43549E-4
4189.453125; 1.48520E-4
4195.312500; 1.26886E-4
4201.171875; 1.32285E-4
4207.031250; 1.47366E-4
4212.890625; 1.50247E-4
4218.750000; 1.63289E-4
4224.609375; 1.37760E-4
4230.468750; 1.30372E-4
4236.328125; 1.38180E-4
4242.187500; 1.20081E-4
4248.046875; 1.20482E-4
4253.906250; 1.29480E-4
4259.765625; 1.31436E-4
4265.625000; 1.30500E-4
4271.484375; 1.29411E-4
4277.343750; 1.39944E-4
4283.203125; 1.33022E-4
4289.062500; 1.35193E-4
4294.921875; 1.25608E-4
4300.781250; 1.36548E-4
4306.640625; 1.32190E-4
4312.500000; 1.39623E-4
4318.359375; 1.56998E-4
4324.218750; 1.35981E-4
4330.078125; 1.16919E-4
4335.937500; 1.13951E-4
4341.796875; 1.45283E-4
4347.656250; 1.61216E-4
4353.515625; 1.28826E-4
4359.375000; 1.14265E-4
4365.234375; 1.24274E-4
4371.093750; 1.48439E-4
4376.953125; 1.58056E-4
4382.812500; 1.35021E-4
4388.671875; 1.31122E-4
4394.531250; 1.38154E-4
4400.390625; 1.54161E-4
4406.250000; 1.56499E-4
4412.109375; 1.35782E-4
4417.968750; 1.30481E-4
4423.828125; 1.35312E-4
4429.687500; 1.55842E-4
4435.546875; 1.33006E-4
4441.406250; 1.27204E-4
4447.265625; 1.29509E-4
4453.125000; 1.45366E-4
4458.984375; 1.46980E-4
4464.843750; 1.15034E-4
4470.703125; 1.23467E-4
4476.562500; 1.20582E-4
4482.421875; 1.40923E-4
4488.281250; 1.52552E-4
4494.140625; 1.42225E-4
4500.000000; 1.35746E-4
4505.859375; 1.43503E-4
4511.718750; 1.34141E-4
4517.578125; 1.23219E-4
4523.437500; 1.23856E-4
4529.296875; 1.25271E-4
4535.156250; 1.51877E-4
4541.015625; 1.56516E-4
4546.875000; 1.14073E-4
4552.734375; 1.34215E-4
4558.593750; 1.39462E-4
4564.453125; 1.53840E-4
4570.312500; 1.48168E-4
4576.171875; 1.35454E-4
4582.031250; 1.40050E-4
4587.890625; 1.25874E-4
4593.750000; 1.40683E-4
4599.609375; 1.23694E-4
4605.468750; 1.26174E-4
4611.328125; 1.34391E-4
4617.187500; 1.28865E-4
4623.046875; 1.51268E-4
4628.906250; 1.51794E-4
4634.765625; 1.32560E-4
4640.625000; 1.29555E-4
4646.484375; 1.56926E-4
4652.343750; 1.54635E-4
4658.203125; 1.13617E-4
4664.062500; 1.30117E-4
4669.921875; 1.31161E-4
4675.781250; 1.23530E-4
4681.640625; 1.19077E-4
4687.500000; 1.36769E-4
4693.359375; 1.45490E-4
4699.218750; 1.35877E-4
4705.078125; 1.27117E-4
4710.937500; 1.15269E-4
4716.796875; 1.21620E-4
4722.656250; 1.41958E-4
4728.515625; 1.43855E-4
4734.375000; 1.45374E-4
4740.234375; 1.30621E-4
4746.093750; 1.38590E-4
4751.953125; 1.38322E-4
4757.812500; 1.31821E-4
4763.671875; 1.15981E-4
4769.531250; 1.30522E-4
4775.390625; 1.29101E-4
4781.250000; 1.35395E-4
4787.109375; 1.36190E-4
4792.968750; 1.24276E-4
4798.828125; 1.24276E-4
4804.687500; 1.38158E-4
4810.546875; 1.39897E-4
4816.406250; 1.16923E-4
4822.265625; 1.11993E-4
4828.125000; 1.24928E-4
4833.984375; 1.38484E-4
4839.843750; 1.18551E-4
4845.703125; 1.10113E-4
4851.562500; 1.38275E-4
4857.421875; 1.45959E-4
4863.281250; 1.25617E-4
4869.140625; 1.10938E-4
4875.000000; 1.25471E-4
4880.859375; 1.28151E-4
4886.718750; 1.33928E-4
4892.578125; 1.23081E-4
4898.437500; 1.24566E-4
4904.296875; 1.31715E-4
4910.156250; 1.57436E-4
4916.015625; 1.53789E-4
4921.875000; 1.27090E-4
4927.734375; 1.21513E-4
4933.593750; 1.39964E-4
4939.453125; 1.62924E-4
4945.312500; 1.51704E-4
4951.171875; 1.19660E-4
4957.031250; 1.17962E-4
4962.890625; 1.17803E-4
4968.750000; 1.52154E-4
4974.609375; 1.30845E-4
4980.468750; 1.34778E-4
4986.328125; 1.46229E-4
4992.187500; 5.71433E-4
4998.046875; 1.95071E-3
5003.906250; 1.55782E-3
5009.765625; 2.20562E-4
5015.625000; 1.32340E-4
5021.484375; 1.51249E-4
5027.343750; 1.54722E-4
5033.203125; 1.37688E-4
5039.062500; 1.12890E-4
5044.921875; 1.34682E-4
5050.781250; 1.37811E-4
5056.640625; 1.37066E-4
5062.500000; 1.12437E-4
5068.359375; 1.08225E-4
5074.218750; 1.21283E-4
5080.078125; 1.33785E-4
5085.937500; 1.44271E-4
5091.796875; 1.30617E-4
5097.656250; 1.27788E-4
5103.515625; 1.40224E-4
5109.375000; 1.39346E-4
5115.234375; 1.18959E-4
5121.093750; 1.39909E-4
5126.953125; 1.55040E-4
5132.812500; 1.35237E-4
5138.671875; 1.23766E-4
5144.531250; 1.15838E-4
5150.390625; 1.37668E-4
5156.250000; 1.29918E-4
5162.109375; 1.34949E-4
5167.968750; 1.24336E-4
5173.828125; 1.39251E-4
5179.687500; 1.36057E-4
5185.546875; 1.27217E-4
5191.406250; 1.32522E-4
5197.265625; 1.02584E-4
5203.125000; 1.06222E-4
5208.984375; 1.05708E-4
5214.843750; 1.21342E-4
5220.703125; 1.23241E-4
5226.562500; 1.14353E-4
5232.421875; 1.35484E-4
5238.281250; 1.26845E-4
5244.140625; 1.31266E-4
5250.000000; 1.46816E-4
5255.859375; 1.44730E-4
5261.718750; 1.40791E-4
5267.578125; 1.38717E-4
5273.437500; 1.43401E-4
5279.296875; 1.14189E-4
5285.156250; 1.33316E-4
5291.015625; 1.40703E-4
5296.875000; 1.21187E-4
5302.734375; 1.22180E-4
5308.593750; 1.21151E-4
5314.453125; 1.38126E-4
5320.312500; 1.44530E-4
5326.171875; 1.21853E-4
5332.031250; 1.15891E-4
5337.890625; 1.25797E-4
5343.750000; 1.55718E-4
5349.609375; 1.47865E-4
5355.468750; 1.29324E-4
5361.328125; 1.22148E-4
5367.187500; 1.24429E-4
5373.046875; 1.39997E-4
5378.906250; 1.27024E-4
5384.765625; 1.16686E-4
5390.625000; 1.11123E-4
5396.484375; 1.26384E-4
5402.343750; 1.34889E-4
5408.203125; 1.23766E-4
5414.062500; 1.32605E-4
5419.921875; 1.41148E-4
5425.781250; 1.45375E-4
5431.640625; 1.34784E-4
5437.500000; 1.19508E-4
5443.359375; 1.23413E-4
5449.218750; 1.36905E-4
5455.078125; 1.49314E-4
5460.937500; 1.36620E-4
5466.796875; 1.25305E-4
5472.656250; 1.22122E-4
5478.515625; 1.41702E-4
5484.375000; 1.31782E-4
5490.234375; 1.16591E-4
5496.093750; 1.20225E-4
5501.953125; 1.20998E-4
5507.812500; 1.42772E-4
5513.671875; 1.40593E-4
5519.531250; 1.13810E-4
5525.390625; 1.33418E-4
5531.250000; 1.48055E-4
5537.109375; 1.75053E-4
5542.968750; 1.56165E-4
5548.828125; 1.33750E-4
5554.687500; 1.30974E-4
5560.546875; 1.20639E-4
5566.406250; 1.43141E-4
5572.265625; 1.27559E-4
5578.125000; 1.29187E-4
5583.984375; 1.33492E-4
5589.843750; 1.32546E-4
5595.703125; 1.36559E-4
5601.562500; 1.32124E-4
5607.421875; 1.26199E-4
5613.281250; 1.28302E-4
5619.140625; 1.38042E-4
5625.000000; 1.63029E-4
5630.859375; 1.42613E-4
5636.718750; 1.41607E-4
5642.578125; 1.33501E-4
5648.437500; 1.38363E-4
5654.296875; 1.19533E-4
5660.156250; 1.17248E-4
5666.015625; 1.31353E-4
5671.875000; 1.19236E-4
5677.734375; 1.43545E-4
5683.593750; 1.45565E-4
5689.453125; 1.34143E-4
5695.312500; 1.36360E-4
5701.171875; 1.29246E-4
5707.031250; 1.23965E-4
5712.890625; 1.27921E-4
5718.750000; 1.34691E-4
5724.609375; 1.27998E-4
5730.468750; 1.39659E-4
5736.328125; 1.15236E-4
5742.187500; 1.10841E-4
5748.046875; 1.00443E-4
5753.906250; 1.10972E-4
5759.765625; 1.12728E-4
5765.625000; 1.19940E-4
5771.484375; 1.30058E-4
5777.343750; 1.31749E-4
5783.203125; 1.26488E-4
5789.062500; 1.22441E-4
5794.921875; 1.34276E-4
5800.781250; 1.38245E-4
5806.640625; 1.36266E-4
5812.500000; 1.36126E-4
5818.359375; 1.45196E-4
5824.218750; 1.45352E-4
5830.078125; 1.33284E-4
5835.937500; 1.36028E-4
5841.796875; 1.32274E-4
5847.656250; 1.25564E-4
5853.515625; 1.29314E-4
5859.375000; 1.41909E-4
5865.234375; 1.33753E-4
5871.093750; 1.28619E-4
5876.953125; 1.27547E-4
5882.812500; 1.39680E-4
5888.671875; 1.34440E-4
5894.531250; 1.10855E-4
5900.390625; 1.11629E-4
5906.250000; 1.15214E-4
5912.109375; 1.48477E-4
5917.968750; 1.39118E-4
5923.828125; 1.15786E-4
5929.687500; 1.21227E-4
5935.546875; 1.45490E-4
5941.406250; 1.61317E-4
5947.265625; 1.42449E-4
5953.125000; 1.08658E-4
5958.984375; 1.12723E-4
5964.843750; 1.26789E-4
5970.703125; 1.44524E-4
5976.562500; 1.27460E-4
5982.421875; 1.11229E-4
5988.281250; 1.18058E-4
5994.140625; 4.31031E-4
6000.000000; 8.26496E-4
6005.859375; 4.35176E-4
6011.718750; 1.18006E-4
6017.578125; 1.21379E-4
6023.437500; 1.44907E-4
6029.296875; 1.47677E-4
6035.156250; 1.34634E-4
6041.015625; 1.22637E-4
6046.875000; 1.28762E-4
6052.734375; 1.28050E-4
6058.593750; 1.15193E-4
6064.453125; 1.17236E-4
6070.312500; 1.30220E-4
6076.171875; 1.47694E-4
6082.031250; 1.41919E-4
6087.890625; 1.13948E-4
6093.750000; 1.33216E-4
6099.609375; 1.32394E-4
6105.468750; 1.37388E-4
6111.328125; 1.24811E-4
6117.187500; 1.08238E-4
6123.046875; 1.14329E-4
6128.906250; 1.42317E-4
6134.765625; 1.38701E-4
6140.625000; 1.31502E-4
6146.484375; 1.30583E-4
6152.343750; 1.35893E-4
6158.203125; 1.21437E-4
6164.062500; 1.30629E-4
6169.921875; 1.29385E-4
6175.781250; 1.44057E-4
6181.640625; 1.16497E-4
6187.500000; 1.21969E-4
6193.359375; 1.32047E-4
6199.218750; 1.35120E-4
6205.078125; 1.20668E-4
6210.937500; 1.13370E-4
6216.796875; 1.29131E-4
6222.656250; 1.21153E-4
6228.515625; 1.22386E-4
6234.375000; 1.30125E-4
6240.234375; 1.40704E-4
6246.093750; 1.29858E-4
6251.953125; 1.10349E-4
6257.812500; 1.32365E-4
6263.671875; 1.39891E-4
6269.531250; 1.35664E-4
6275.390625; 1.39884E-4
6281.250000; 1.24975E-4
6287.109375; 1.25666E-4
6292.968750; 1.33159E-4
6298.828125; 1.26368E-4
6304.687500; 1.40806E-4
6310.546875; 1.36183E-4
6316.406250; 1.29423E-4
6322.265625; 1.20981E-4
6328.125000; 1.16247E-4
6333.984375; 1.09401E-4
6339.843750; 1.15487E-4
6345.703125; 1.32639E-4
6351.562500; 1.22728E-4
6357.421875; 1.31707E-4
6363.281250; 1.20030E-4
6369.140625; 1.27377E-4
6375.000000; 1.23856E-4
6380.859375; 1.28080E-4
6386.718750; 1.28001E-4
6392.578125; 1.37934E-4
6398.437500; 1.45520E-4
6404.296875; 1.52466E-4
6410.156250; 1.29945E-4
6416.015625; 1.42177E-4
6421.875000; 1.38171E-4
6427.734375; 1.30711E-4
6433.593750; 1.21264E-4
6439.453125; 1.20078E-4
6445.312500; 1.19621E-4
6451.171875; 1.21868E-4
6457.031250; 1.40531E-4
6462.890625; 1.25496E-4
6468.750000; 1.16700E-4
6474.609375; 1.41298E-4
6480.468750; 1.38074E-4
6486.328125; 1.38282E-4
6492.187500; 1.29515E-4
6498.046875; 1.35332E-4
6503.906250; 1.21020E-4
6509.765625; 1.41050E-4
6515.625000; 1.29657E-4
6521.484375; 1.32967E-4
6527.343750; 1.26787E-4
6533.203125; 1.13777E-4
6539.062500; 1.39243E-4
6544.921875; 1.30981E-4
6550.781250; 1.32975E-4
6556.640625; 1.22364E-4
6562.500000; 1.37977E-4
6568.359375; 1.49883E-4
6574.218750; 1.20628E-4
6580.078125; 1.14533E-4
6585.937500; 1.10385E-4
6591.796875; 1.22749E-4
6597.656250; 1.20892E-4
6603.515625; 1.18682E-4
6609.375000; 1.33508E-4
6615.234375; 1.39897E-4
6621.093750; 1.40049E-4
6626.953125; 1.34462E-4
6632.812500; 1.12805E-4
6638.671875; 1.27771E-4
6644.531250; 1.28085E-4
6650.390625; 1.31756E-4
6656.250000; 1.26980E-4
6662.109375; 1.27144E-4
6667.968750; 1.12734E-4
6673.828125; 1.16671E-4
6679.687500; 1.23037E-4
6685.546875; 1.21774E-4
6691.406250; 1.22281E-4
6697.265625; 1.27546E-4
6703.125000; 1.41092E-4
6708.984375; 1.13991E-4
6714.843750; 1.08994E-4
6720.703125; 1.18581E-4
6726.562500; 1.09747E-4
6732.421875; 1.15387E-4
6738.281250; 1.35713E-4
6744.140625; 1.36466E-4
6750.000000; 1.26873E-4
6755.859375; 1.37437E-4
6761.718750; 1.53656E-4
6767.578125; 1.30027E-4
6773.437500; 1.30864E-4
6779.296875; 1.34116E-4
6785.156250; 1.35215E-4
6791.015625; 1.24264E-4
6796.875000; 1.05778E-4
6802.734375; 1.21238E-4
6808.593750; 1.27603E-4
6814.453125; 1.23445E-4
6820.312500; 1.21740E-4
6826.171875; 1.48375E-4
6832.031250; 1.50488E-4
6837.890625; 1.28133E-4
6843.750000; 1.19005E-4
6849.609375; 1.23889E-4
6855.468750; 1.39175E-4
6861.328125; 1.28474E-4
6867.187500; 1.16841E-4
6873.046875; 1.16389E-4
6878.906250; 1.20091E-4
6884.765625; 1.43753E-4
6890.625000; 1.31860E-4
6896.484375; 1.30936E-4
6902.343750; 1.34593E-4
6908.203125; 1.30932E-4
6914.062500; 1.24407E-4
6919.921875; 1.11554E-4
6925.781250; 1.12278E-4
6931.640625; 1.23280E-4
6937.500000; 1.31326E-4
6943.359375; 1.44901E-4
6949.218750; 1.36994E-4
6955.078125; 1.38167E-4
6960.937500; 1.29062E-4
6966.796875; 1.29669E-4
6972.656250; 1.25360E-4
6978.515625; 1.09920E-4
6984.375000; 1.19087E-4
6990.234375; 1.14650E-4
6996.093750; 2.37767E-4
7001.953125; 2.93493E-4
7007.812500; 1.38654E-4
7013.671875; 1.29594E-4
7019.531250; 1.44719E-4
7025.390625; 1.64110E-4
7031.250000; 1.49017E-4
7037.109375; 1.30638E-4
7042.968750; 1.25824E-4
7048.828125; 1.39049E-4
7054.687500; 1.29492E-4
7060.546875; 1.16019E-4
7066.406250; 1.25255E-4
7072.265625; 1.42317E-4
7078.125000; 1.29093E-4
7083.984375; 1.07434E-4
7089.843750; 1.30553E-4
7095.703125; 1.34041E-4
7101.562500; 1.40462E-4
7107.421875; 1.33407E-4
7113.281250; 1.25178E-4
7119.140625; 1.30615E-4
7125.000000; 1.40898E-4
7130.859375; 1.53096E-4
7136.718750; 1.44912E-4
7142.578125; 1.46154E-4
7148.437500; 1.47019E-4
7154.296875; 1.22614E-4
7160.156250; 1.07690E-4
7166.015625; 1.21342E-4
7171.875000; 1.26125E-4
7177.734375; 1.26484E-4
7183.593750; 1.12427E-4
7189.453125; 1.27961E-4
7195.312500; 1.33428E-4
7201.171875; 1.11024E-4
7207.031250; 1.20770E-4
7212.890625; 1.21737E-4
7218.750000; 1.15820E-4
7224.609375; 1.19029E-4
7230.468750; 1.17050E-4
7236.328125; 1.11991E-4
7242.187500; 1.23300E-4
7248.046875; 1.31271E-4
7253.906250; 1.45148E-4
7259.765625; 1.40428E-4
7265.625000; 1.25334E-4
7271.484375; 1.31416E-4
7277.343750; 1.27383E-4
7283.203125; 1.31407E-4
7289.062500; 1.39748E-4
7294.921875; 1.35908E-4
7300.781250; 1.30943E-4
7306.640625; 1.19561E-4
7312.500000; 1.11818E-4
7318.359375; 1.23918E-4
7324.218750; 1.22598E-4
7330.078125; 1.07619E-4
7335.937500; 1.26107E-4
7341.796875; 1.27155E-4
7347.656250; 1.22798E-4
7353.515625; 1.15411E-4
7359.375000; 1.27070E-4
7365.234375; 1.29867E-4
7371.093750; 1.22342E-4
7376.953125; 1.19258E-4
7382.812500; 1.15131E-4
7388.671875; 1.21735E-4
7394.531250; 1.11527E-4
7400.390625; 1.31466E-4
7406.250000; 1.25341E-4
7412.109375; 1.02276E-4
7417.968750; 1.00650E-4
7423.828125; 1.34641E-4
7429.687500; 1.50356E-4
7435.546875; 1.27881E-4
7441.406250; 1.34996E-4
7447.265625; 1.34210E-4
7453.125000; 1.22926E-4
7458.984375; 1.23376E-4
7464.843750; 1.16670E-4
7470.703125; 1.18755E-4
7476.562500; 1.22728E-4
7482.421875; 1.23971E-4
7488.281250; 1.06157E-4
7494.140625; 1.10601E-4
7500.000000; 1.15536E-4
7505.859375; 1.07905E-4
7511.718750; 1.24865E-4
7517.578125; 1.21675E-4
7523.437500; 1.17253E-4
7529.296875; 1.17174E-4
7535.156250; 1.29290E-4
7541.015625; 1.35408E-4
7546.875000; 1.27545E-4
7552.734375; 1.23703E-4
7558.593750; 1.26430E-4
7564.453125; 1.33548E-4
7570.312500; 1.35792E-4
7576.171875; 1.21208E-4
7582.031250; 1.25060E-4
7587.890625; 1.37347E-4
7593.750000; 1.40825E-4
7599.609375; 1.19538E-4
7605.468750; 1.09833E-4
7611.328125; 1.12087E-4
7617.187500; 1.18410E-4
7623.046875; 1.21660E-4
7628.906250; 1.12338E-4
7634.765625; 1.16539E-4
7640.625000; 1.27470E-4
7646.484375; 1.20857E-4
7652.343750; 1.23550E-4
7658.203125; 1.26855E-4
7664.062500; 1.10367E-4
7669.921875; 1.07564E-4
7675.781250; 1.12057E-4
7681.640625; 1.17095E-4
7687.500000; 1.23887E-4
7693.359375; 1.16811E-4
7699.218750; 1.04777E-4
7705.078125; 1.08509E-4
7710.937500; 1.11630E-4
7716.796875; 1.23617E-4
7722.656250; 1.34693E-4
7728.515625; 1.39829E-4
7734.375000; 1.28086E-4
7740.234375; 1.18627E-4
7746.093750; 1.36103E-4
7751.953125; 1.25029E-4
7757.812500; 1.11184E-4
7763.671875; 1.28314E-4
7769.531250; 1.24971E-4
7775.390625; 1.19646E-4
7781.250000; 1.23560E-4
7787.109375; 1.25210E-4
7792.968750; 1.31165E-4
7798.828125; 1.26800E-4
7804.687500; 1.23948E-4
7810.546875; 1.16586E-4
7816.406250; 1.19192E-4
7822.265625; 1.09274E-4
7828.125000; 1.18971E-4
7833.984375; 1.25241E-4
7839.843750; 1.19984E-4
7845.703125; 1.24910E-4
7851.562500; 1.21678E-4
7857.421875; 1.23556E-4
7863.281250; 1.32875E-4
7869.140625; 1.18131E-4
7875.000000; 1.13440E-4
7880.859375; 1.17836E-4
7886.718750; 1.26396E-4
7892.578125; 1.23661E-4
7898.437500; 1.35424E-4
7904.296875; 1.19778E-4
7910.156250; 1.25483E-4
7916.015625; 1.44509E-4
7921.875000; 1.20730E-4
7927.734375; 1.25893E-4
7933.593750; 1.27222E-4
7939.453125; 1.20885E-4
7945.312500; 1.26383E-4
7951.171875; 1.26123E-4
7957.031250; 1.17397E-4
7962.890625; 1.29330E-4
7968.750000; 1.16513E-4
7974.609375; 1.10920E-4
7980.468750; 1.21161E-4
7986.328125; 1.06842E-4
7992.187500; 1.54626E-4
7998.046875; 3.34068E-4
8003.906250; 2.84104E-4
8009.765625; 1.37644E-4
8015.625000; 1.26207E-4
8021.484375; 1.11806E-4
8027.343750; 1.37201E-4
8033.203125; 1.34541E-4
8039.062500; 1.31794E-4
8044.921875; 1.23944E-4
8050.781250; 1.32032E-4
8056.640625; 1.41065E-4
8062.500000; 1.22629E-4
8068.359375; 1.27767E-4
8074.218750; 1.18109E-4
8080.078125; 1.16992E-4
8085.937500; 1.19773E-4
8091.796875; 1.10817E-4
8097.656250; 9.96900E-5
8103.515625; 1.10956E-4
8109.375000; 1.27839E-4
8115.234375; 1.38795E-4
8121.093750; 1.24865E-4
8126.953125; 1.31445E-4
8132.812500; 1.36927E-4
8138.671875; 1.30218E-4
8144.531250; 1.20473E-4
8150.390625; 1.12973E-4
8156.250000; 1.16528E-4
8162.109375; 1.29909E-4
8167.968750; 1.11299E-4
8173.828125; 9.84763E-5
8179.687500; 1.19278E-4
8185.546875; 1.30680E-4
8191.406250; 1.29393E-4
8197.265625; 1.16152E-4
8203.125000; 1.10483E-4
8208.984375; 8.65991E-5
8214.843750; 1.16614E-4
8220.703125; 1.16901E-4
8226.562500; 1.25960E-4
8232.421875; 1.34927E-4
8238.281250; 1.19875E-4
8244.140625; 1.11314E-4
8250.000000; 1.17052E-4
8255.859375; 1.25487E-4
8261.718750; 1.22105E-4
8267.578125; 1.18901E-4
8273.437500; 1.16302E-4
8279.296875; 1.15071E-4
8285.156250; 1.21455E-4
8291.015625; 1.26884E-4
8296.875000; 1.28631E-4
8302.734375; 1.30628E-4
8308.593750; 1.23172E-4
8314.453125; 1.18930E-4
8320.312500; 1.25342E-4
8326.171875; 1.33050E-4
8332.031250; 1.32693E-4
8337.890625; 1.14385E-4
8343.750000; 1.36889E-4
8349.609375; 1.33172E-4
8355.468750; 1.32047E-4
8361.328125; 1.45803E-4
8367.187500; 1.45185E-4
8373.046875; 1.37870E-4
8378.906250; 1.26216E-4
8384.765625; 1.16971E-4
8390.625000; 1.14156E-4
8396.484375; 1.11842E-4
8402.343750; 1.13123E-4
8408.203125; 1.08847E-4
8414.062500; 1.19831E-4
8419.921875; 1.20993E-4
8425.781250; 1.14199E-4
8431.640625; 1.18456E-4
8437.500000; 1.09226E-4
8443.359375; 1.18679E-4
8449.218750; 1.21025E-4
8455.078125; 1.25378E-4
8460.937500; 1.27870E-4
8466.796875; 1.37677E-4
8472.656250; 1.20159E-4
8478.515625; 1.12852E-4
8484.375000; 1.24562E-4
8490.234375; 1.40183E-4
8496.093750; 1.37996E-4
8501.953125; 1.22472E-4
8507.812500; 1.21515E-4
8513.671875; 1.27558E-4
8519.531250; 1.20977E-4
8525.390625; 1.26406E-4
8531.250000; 1.30020E-4
8537.109375; 1.25958E-4
8542.968750; 1.23068E-4
8548.828125; 1.13036E-4
8554.687500; 1.14404E-4
8560.546875; 1.32383E-4
8566.406250; 1.24093E-4
8572.265625; 1.30930E-4
8578.125000; 1.24734E-4
8583.984375; 1.28619E-4
8589.843750; 1.27564E-4
8595.703125; 1.19819E-4
8601.562500; 1.37946E-4
8607.421875; 1.33099E-4
8613.281250; 1.17055E-4
8619.140625; 1.13880E-4
8625.000000; 1.13060E-4
8630.859375; 1.39056E-4
8636.718750; 1.38606E-4
8642.578125; 1.21980E-4
8648.437500; 1.30514E-4
8654.296875; 1.32598E-4
8660.156250; 1.23871E-4
8666.015625; 1.15120E-4
8671.875000; 1.33531E-4
8677.734375; 1.27689E-4
8683.593750; 1.31580E-4
8689.453125; 1.27610E-4
8695.312500; 1.12620E-4
8701.171875; 1.08249E-4
8707.031250; 1.17606E-4
8712.890625; 1.19535E-4
8718.750000; 1.30331E-4
8724.609375; 1.20448E-4
8730.468750; 9.53141E-5
8736.328125; 1.16284E-4
8742.187500; 1.21853E-4
8748.046875; 1.16148E-4
8753.906250; 1.18371E-4
8759.765625; 1.23427E-4
8765.625000; 1.22242E-4
8771.484375; 1.13417E-4
8777.343750; 1.15280E-4
8783.203125; 1.11206E-4
8789.062500; 1.24835E-4
8794.921875; 1.28112E-4
8800.781250; 1.21932E-4
8806.640625; 1.32414E-4
8812.500000; 1.43543E-4
8818.359375; 1.34991E-4
8824.218750; 1.34662E-4
8830.078125; 1.30457E-4
8835.937500; 1.32035E-4
8841.796875; 1.16719E-4
8847.656250; 1.02623E-4
8853.515625; 1.13393E-4
8859.375000; 1.20196E-4
8865.234375; 1.18523E-4
8871.093750; 1.25534E-4
8876.953125; 1.35257E-4
8882.812500; 1.27994E-4
8888.671875; 1.20866E-4
8894.531250; 9.93979E-5
8900.390625; 1.34894E-4
8906.250000; 1.49951E-4
8912.109375; 1.50652E-4
8917.968750; 1.27892E-4
8923.828125; 1.26828E-4
8929.687500; 1.36202E-4
8935.546875; 1.17853E-4
8941.406250; 1.17798E-4
8947.265625; 1.18342E-4
8953.125000; 1.24659E-4
8958.984375; 1.22891E-4
8964.843750; 1.20203E-4
8970.703125; 1.37123E-4
8976.562500; 1.19784E-4
8982.421875; 1.29901E-4
8988.281250; 1.23718E-4
8994.140625; 1.75651E-4
9000.000000; 2.68607E-4
9005.859375; 1.68808E-4
9011.718750; 1.26684E-4
9017.578125; 1.41615E-4
9023.437500; 1.44344E-4
9029.296875; 1.37413E-4
9035.156250; 1.23261E-4
9041.015625; 1.14800E-4
9046.875000; 1.26431E-4
9052.734375; 1.32097E-4
9058.593750; 1.32788E-4
9064.453125; 1.22940E-4
9070.312500; 1.22743E-4
9076.171875; 1.36484E-4
9082.031250; 1.26562E-4
9087.890625; 1.32216E-4
9093.750000; 1.29049E-4
9099.609375; 1.34905E-4
9105.468750; 1.27530E-4
9111.328125; 1.16404E-4
9117.187500; 1.20294E-4
9123.046875; 1.27722E-4
9128.906250; 1.36748E-4
9134.765625; 1.27359E-4
9140.625000; 1.25685E-4
9146.484375; 1.29201E-4
9152.343750; 1.23156E-4
9158.203125; 1.04757E-4
9164.062500; 1.03993E-4
9169.921875; 1.01734E-4
9175.781250; 1.13452E-4
9181.640625; 1.25860E-4
9187.500000; 1.20650E-4
9193.359375; 1.19750E-4
9199.218750; 1.21064E-4
9205.078125; 1.26574E-4
9210.937500; 1.15464E-4
9216.796875; 1.16857E-4
9222.656250; 1.15212E-4
9228.515625; 1.20855E-4
9234.375000; 1.12659E-4
9240.234375; 1.12296E-4
9246.093750; 1.29741E-4
9251.953125; 1.34219E-4
9257.812500; 1.34389E-4
9263.671875; 1.21239E-4
9269.531250; 1.12008E-4
9275.390625; 1.08739E-4
9281.250000; 1.16550E-4
9287.109375; 1.28443E-4
9292.968750; 1.26481E-4
9298.828125; 1.23023E-4
9304.687500; 1.14622E-4
9310.546875; 1.08440E-4
9316.406250; 1.04373E-4
9322.265625; 1.07732E-4
9328.125000; 1.22361E-4
9333.984375; 1.23215E-4
9339.843750; 1.18291E-4
9345.703125; 1.19050E-4
9351.562500; 1.18844E-4
9357.421875; 1.30131E-4
9363.281250; 1.34765E-4
9369.140625; 1.16798E-4
9375.000000; 1.05940E-4
9380.859375; 1.15948E-4
9386.718750; 1.31002E-4
9392.578125; 1.29858E-4
9398.437500; 1.23576E-4
9404.296875; 1.24514E-4
9410.156250; 1.26197E-4
9416.015625; 1.26292E-4
9421.875000; 1.15774E-4
9427.734375; 1.09197E-4
9433.593750; 1.10550E-4
9439.453125; 1.29697E-4
9445.312500; 1.32608E-4
9451.171875; 1.20954E-4
9457.031250; 1.15817E-4
9462.890625; 1.31006E-4
9468.750000; 1.42446E-4
9474.609375; 1.35012E-4
9480.468750; 1.34884E-4
9486.328125; 1.16195E-4
9492.187500; 9.62226E-5
9498.046875; 1.18345E-4
9503.906250; 1.12846E-4
9509.765625; 1.15935E-4
9515.625000; 1.04717E-4
9521.484375; 1.09482E-4
9527.343750; 1.22069E-4
9533.203125; 1.20442E-4
9539.062500; 1.17104E-4
9544.921875; 1.29365E-4
9550.781250; 1.29269E-4
9556.640625; 1.12122E-4
9562.500000; 1.22536E-4
9568.359375; 1.21878E-4
9574.218750; 1.28195E-4
9580.078125; 1.26706E-4
9585.937500; 1.22610E-4
9591.796875; 1.32176E-4
9597.656250; 1.21598E-4
9603.515625; 1.20494E-4
9609.375000; 1.19683E-4
9615.234375; 1.24475E-4
9621.093750; 1.23708E-4
9626.953125; 1.22521E-4
9632.812500; 1.17999E-4
9638.671875; 1.09352E-4
9644.531250; 1.13149E-4
9650.390625; 1.21860E-4
9656.250000; 1.30655E-4
9662.109375; 1.39135E-4
9667.968750; 1.31810E-4
9673.828125; 1.26500E-4
9679.687500; 1.16332E-4
9685.546875; 1.14040E-4
9691.406250; 1.06499E-4
9697.265625; 1.17034E-4
9703.125000; 1.10331E-4
9708.984375; 1.08275E-4
9714.843750; 1.01359E-4
9720.703125; 1.06207E-4
9726.562500; 1.17222E-4
9732.421875; 1.10307E-4
9738.281250; 9.97142E-5
9744.140625; 1.00784E-4
9750.000000; 1.12188E-4
9755.859375; 1.14287E-4
9761.718750; 1.09866E-4
9767.578125; 1.03606E-4
9773.437500; 1.16182E-4
9779.296875; 1.22614E-4
9785.156250; 1.27505E-4
9791.015625; 1.23740E-4
9796.875000; 1.28762E-4
9802.734375; 1.21478E-4
9808.593750; 1.19592E-4
9814.453125; 1.32402E-4
9820.312500; 1.23017E-4
9826.171875; 1.11156E-4
9832.031250; 1.20675E-4
9837.890625; 1.25331E-4
9843.750000; 1.26391E-4
9849.609375; 1.17528E-4
9855.468750; 1.24263E-4
9861.328125; 1.14344E-4
9867.187500; 1.00337E-4
9873.046875; 9.87982E-5
9878.906250; 1.12109E-4
9884.765625; 1.15462E-4
9890.625000; 1.11175E-4
9896.484375; 1.20008E-4
9902.343750; 1.22734E-4
9908.203125; 1.22931E-4
9914.062500; 1.28010E-4
9919.921875; 1.23282E-4
9925.781250; 1.09973E-4
9931.640625; 1.07378E-4
9937.500000; 1.21841E-4
9943.359375; 1.26774E-4
9949.218750; 1.31913E-4
9955.078125; 1.32267E-4
9960.937500; 1.26259E-4
9966.796875; 1.05375E-4
9972.656250; 1.10559E-4
9978.515625; 1.09263E-4
9984.375000; 1.13309E-4
9990.234375; 1.26291E-4
9996.093750; 1.98860E-4
10001.953125; 2.27887E-4
10007.812500; 1.31539E-4
10013.671875; 1.22697E-4
10019.531250; 1.18352E-4
10025.390625; 1.29307E-4
10031.250000; 1.41418E-4
10037.109375; 1.22181E-4
10042.968750; 1.22757E-4
10048.828125; 1.16033E-4
10054.687500; 1.15153E-4
10060.546875; 1.20426E-4
10066.406250; 1.19935E-4
10072.265625; 1.18731E-4
10078.125000; 1.19977E-4
10083.984375; 1.08665E-4
10089.843750; 1.02229E-4
10095.703125; 1.09092E-4
10101.562500; 1.20020E-4
10107.421875; 1.12666E-4
10113.281250; 1.24272E-4
10119.140625; 1.22839E-4
10125.000000; 1.13505E-4
10130.859375; 1.16127E-4
10136.718750; 1.06307E-4
10142.578125; 1.09824E-4
10148.437500; 1.13696E-4
10154.296875; 1.07216E-4
10160.156250; 1.19364E-4
10166.015625; 1.23162E-4
10171.875000; 1.03884E-4
10177.734375; 1.05687E-4
10183.593750; 1.26081E-4
10189.453125; 1.17952E-4
10195.312500; 1.13376E-4
10201.171875; 1.28113E-4
10207.031250; 1.15515E-4
10212.890625; 1.14740E-4
10218.750000; 1.10607E-4
10224.609375; 1.06996E-4
10230.468750; 1.22414E-4
10236.328125; 1.09277E-4
10242.187500; 1.19948E-4
10248.046875; 1.25510E-4
10253.906250; 1.22467E-4
10259.765625; 1.12094E-4
10265.625000; 1.05755E-4
10271.484375; 1.01984E-4
10277.343750; 1.07607E-4
10283.203125; 1.18862E-4
10289.062500; 1.05019E-4
10294.921875; 1.10315E-4
10300.781250; 1.06070E-4
10306.640625; 1.20700E-4
10312.500000; 1.27369E-4
10318.359375; 1.28389E-4
10324.218750; 1.30144E-4
10330.078125; 1.14925E-4
10335.937500; 1.12811E-4
10341.796875; 1.28529E-4
10347.656250; 1.15177E-4
10353.515625; 1.23344E-4
10359.375000; 1.17632E-4
10365.234375; 1.28455E-4
10371.093750; 1.28643E-4
10376.953125; 1.13385E-4
10382.812500; 1.08341E-4
10388.671875; 1.12355E-4
10394.531250; 1.13937E-4
10400.390625; 1.28822E-4
10406.250000; 1.28442E-4
10412.109375; 1.29486E-4
10417.968750; 1.22910E-4
10423.828125; 1.20944E-4
10429.687500; 1.16431E-4
10435.546875; 1.11170E-4
10441.406250; 1.02909E-4
10447.265625; 1.11483E-4
10453.125000; 1.24927E-4
10458.984375; 1.11144E-4
10464.843750; 9.98576E-5
10470.703125; 1.11985E-4
10476.562500; 1.00059E-4
10482.421875; 1.16627E-4
10488.281250; 1.19324E-4
10494.140625; 1.20180E-4
10500.000000; 1.24279E-4
10505.859375; 1.27976E-4
10511.718750; 1.24901E-4
10517.578125; 1.15149E-4
10523.437500; 1.17771E-4
10529.296875; 9.45741E-5
10535.156250; 9.95435E-5
10541.015625; 1.07745E-4
10546.875000; 1.17589E-4
10552.734375; 1.12203E-4
10558.593750; 1.10376E-4
10564.453125; 1.11487E-4
10570.312500; 1.08263E-4
10576.171875; 1.18851E-4
10582.031250; 1.25382E-4
10587.890625; 1.16609E-4
10593.750000; 1.13966E-4
10599.609375; 1.19703E-4
10605.468750; 1.06893E-4
10611.328125; 1.13100E-4
10617.187500; 1.12702E-4
10623.046875; 1.12242E-4
10628.906250; 1.18796E-4
10634.765625; 1.01619E-4
10640.625000; 1.11258E-4
10646.484375; 1.18255E-4
10652.343750; 1.10726E-4
10658.203125; 1.05871E-4
10664.062500; 1.04085E-4
10669.921875; 1.02463E-4
10675.781250; 1.04436E-4
10681.640625; 1.07909E-4
10687.500000; 1.25271E-4
10693.359375; 1.20638E-4
10699.218750; 1.11713E-4
10705.078125; 1.20896E-4
10710.937500; 1.36474E-4
10716.796875; 1.23051E-4
10722.656250; 1.02825E-4
10728.515625; 1.03894E-4
10734.375000; 1.20907E-4
10740.234375; 1.17955E-4
10746.093750; 1.15849E-4
10751.953125; 1.24273E-4
10757.812500; 1.22827E-4
10763.671875; 1.13607E-4
10769.531250; 1.25745E-4
10775.390625; 1.31455E-4
10781.250000; 1.23620E-4
10787.109375; 1.16725E-4
10792.968750; 1.07749E-4
10798.828125; 1.19339E-4
10804.687500; 1.18211E-4
10810.546875; 1.19174E-4
10816.406250; 1.22433E-4
10822.265625; 1.09955E-4
10828.125000; 1.11333E-4
10833.984375; 1.13685E-4
10839.843750; 1.10403E-4
10845.703125; 1.08421E-4
10851.562500; 1.08142E-4
10857.421875; 9.64242E-5
10863.281250; 1.07716E-4
10869.140625; 1.13820E-4
10875.000000; 1.07411E-4
10880.859375; 1.05953E-4
10886.718750; 1.16062E-4
10892.578125; 1.18161E-4
10898.437500; 1.25710E-4
10904.296875; 1.24249E-4
10910.156250; 1.12587E-4
10916.015625; 1.21417E-4
10921.875000; 1.16375E-4
10927.734375; 1.23875E-4
10933.593750; 1.27435E-4
10939.453125; 1.15874E-4
10945.312500; 1.08773E-4
10951.171875; 1.00922E-4
10957.031250; 1.03361E-4
10962.890625; 1.15630E-4
10968.750000; 1.22449E-4
10974.609375; 1.29538E-4
10980.468750; 1.29094E-4
10986.328125; 1.17877E-4
10992.187500; 1.11166E-4
10998.046875; 1.27066E-4
11003.906250; 1.36270E-4
11009.765625; 1.27526E-4
11015.625000; 1.11840E-4
11021.484375; 1.22833E-4
11027.343750; 1.20837E-4
11033.203125; 1.12954E-4
11039.062500; 1.12127E-4
11044.921875; 1.18040E-4
11050.781250; 1.16914E-4
11056.640625; 1.14090E-4
11062.500000; 1.15477E-4
11068.359375; 1.06085E-4
11074.218750; 1.05177E-4
11080.078125; 1.16195E-4
11085.937500; 1.03859E-4
11091.796875; 1.02141E-4
11097.656250; 1.23963E-4
11103.515625; 1.42230E-4
11109.375000; 1.24419E-4
11115.234375; 1.14358E-4
11121.093750; 1.10219E-4
11126.953125; 1.08059E-4
11132.812500; 1.09312E-4
11138.671875; 1.24629E-4
11144.531250; 1.22610E-4
11150.390625; 1.11470E-4
11156.250000; 1.21980E-4
11162.109375; 1.33607E-4
11167.968750; 1.28113E-4
11173.828125; 1.08249E-4
11179.687500; 1.06066E-4
11185.546875; 1.15012E-4
11191.406250; 1.19881E-4
11197.265625; 1.05959E-4
11203.125000; 9.21924E-5
11208.984375; 1.06562E-4
11214.843750; 1.17652E-4
11220.703125; 1.18781E-4
11226.562500; 1.09794E-4
11232.421875; 1.15843E-4
11238.281250; 1.16241E-4
11244.140625; 1.07392E-4
11250.000000; 1.02248E-4
11255.859375; 1.06503E-4
11261.718750; 1.14020E-4
11267.578125; 1.23508E-4
11273.437500; 1.08246E-4
11279.296875; 1.03259E-4
11285.156250; 1.09712E-4
11291.015625; 1.23256E-4
11296.875000; 1.23365E-4
11302.734375; 1.13862E-4
11308.593750; 1.22102E-4
11314.453125; 1.17355E-4
11320.312500; 1.16817E-4
11326.171875; 1.26819E-4
11332.031250; 1.03435E-4
11337.890625; 1.11362E-4
11343.750000; 1.15384E-4
11349.609375; 1.24466E-4
11355.468750; 1.28404E-4
11361.328125; 1.19471E-4
11367.187500; 1.30209E-4
11373.046875; 1.27691E-4
11378.906250; 1.08423E-4
11384.765625; 1.13034E-4
11390.625000; 1.15993E-4
11396.484375; 1.12831E-4
11402.343750; 1.04115E-4
11408.203125; 1.02675E-4
11414.062500; 1.27513E-4
11419.921875; 1.25296E-4
11425.781250; 1.21011E-4
11431.640625; 1.19392E-4
11437.500000; 1.19385E-4
11443.359375; 1.11239E-4
11449.218750; 9.54824E-5
11455.078125; 1.04546E-4
11460.937500; 1.10590E-4
11466.796875; 1.05132E-4
11472.656250; 1.13930E-4
11478.515625; 1.26258E-4
11484.375000; 1.31795E-4
11490.234375; 1.28154E-4
11496.093750; 1.20470E-4
11501.953125; 1.08921E-4
11507.812500; 1.09072E-4
11513.671875; 1.05232E-4
11519.531250; 9.95746E-5
11525.390625; 1.10445E-4
11531.250000; 1.08569E-4
11537.109375; 1.16434E-4
11542.968750; 1.19407E-4
11548.828125; 1.13963E-4
11554.687500; 1.23217E-4
11560.546875; 1.10405E-4
11566.406250; 1.03788E-4
11572.265625; 1.09624E-4
11578.125000; 1.00473E-4
11583.984375; 1.00580E-4
11589.843750; 1.13663E-4
11595.703125; 1.04060E-4
11601.562500; 1.06652E-4
11607.421875; 1.12372E-4
11613.281250; 1.13311E-4
11619.140625; 1.20234E-4
11625.000000; 1.26686E-4
11630.859375; 1.28818E-4
11636.718750; 1.17046E-4
11642.578125; 1.16885E-4
11648.437500; 1.21574E-4
11654.296875; 1.27436E-4
11660.156250; 1.10389E-4
11666.015625; 1.01167E-4
11671.875000; 1.07721E-4
11677.734375; 1.09247E-4
11683.593750; 1.08326E-4
11689.453125; 1.05933E-4
11695.312500; 1.00398E-4
11701.171875; 9.84787E-5
11707.031250; 1.08918E-4
11712.890625; 1.23439E-4
11718.750000; 1.23636E-4
11724.609375; 1.19393E-4
11730.468750; 1.21017E-4
11736.328125; 1.21217E-4
11742.187500; 1.25064E-4
11748.046875; 1.10807E-4
11753.906250; 1.09697E-4
11759.765625; 1.20427E-4
11765.625000; 1.13247E-4
11771.484375; 1.06130E-4
11777.343750; 1.13713E-4
11783.203125; 1.10753E-4
11789.062500; 1.02432E-4
11794.921875; 1.10160E-4
11800.781250; 1.17153E-4
11806.640625; 1.12987E-4
11812.500000; 1.14591E-4
11818.359375; 1.07435E-4
11824.218750; 1.15430E-4
11830.078125; 1.19908E-4
11835.937500; 1.27282E-4
11841.796875; 1.25941E-4
11847.656250; 1.25938E-4
11853.515625; 1.14828E-4
11859.375000; 1.06924E-4
11865.234375; 1.22977E-4
11871.093750; 1.14837E-4
11876.953125; 1.06503E-4
11882.812500; 1.13566E-4
11888.671875; 1.07307E-4
11894.531250; 9.45244E-5
11900.390625; 1.02759E-4
11906.250000; 1.11482E-4
11912.109375; 1.09043E-4
11917.968750; 1.16407E-4
11923.828125; 1.18745E-4
11929.687500; 1.21112E-4
11935.546875; 1.14264E-4
11941.406250; 1.16915E-4
11947.265625; 1.17971E-4
11953.125000; 1.26990E-4
11958.984375; 1.14907E-4
11964.843750; 1.13835E-4
11970.703125; 1.16369E-4
11976.562500; 1.08626E-4
11982.421875; 1.10146E-4
11988.281250; 1.02965E-4
11994.140625; 1.19319E-4
12000.000000; 1.44546E-4
12005.859375; 1.30540E-4
12011.718750; 1.13066E-4
12017.578125; 1.12186E-4
12023.437500; 1.06821E-4
12029.296875; 1.03053E-4
12035.156250; 1.06421E-4
12041.015625; 1.09539E-4
12046.875000; 1.09530E-4
12052.734375; 1.12646E-4
12058.593750; 1.15698E-4
12064.453125; 1.16839E-4
12070.312500; 9.42821E-5
12076.171875; 1.17311E-4
12082.031250; 1.17828E-4
12087.890625; 1.05484E-4
12093.750000; 1.10216E-4
12099.609375; 1.18565E-4
12105.468750; 1.08630E-4
12111.328125; 1.06837E-4
12117.187500; 1.03065E-4
12123.046875; 1.00427E-4
12128.906250; 1.02484E-4
12134.765625; 1.19839E-4
12140.625000; 1.27642E-4
12146.484375; 1.30358E-4
12152.343750; 1.26528E-4
12158.203125; 1.25888E-4
12164.062500; 1.20846E-4
12169.921875; 1.13140E-4
12175.781250; 1.08359E-4
12181.640625; 1.06783E-4
12187.500000; 1.06356E-4
12193.359375; 1.11096E-4
12199.218750; 1.05244E-4
12205.078125; 1.24138E-4
12210.937500; 1.29953E-4
12216.796875; 1.24296E-4
12222.656250; 1.22707E-4
12228.515625; 1.13465E-4
12234.375000; 1.18198E-4
12240.234375; 1.11622E-4
12246.093750; 9.63678E-5
12251.953125; 1.06078E-4
12257.812500; 1.07556E-4
12263.671875; 1.10883E-4
12269.531250; 1.13144E-4
12275.390625; 1.14548E-4
12281.250000; 1.13294E-4
12287.109375; 1.10462E-4
12292.968750; 1.20984E-4
12298.828125; 1.22992E-4
12304.687500; 1.08571E-4
12310.546875; 1.13322E-4
12316.406250; 1.18107E-4
12322.265625; 1.11248E-4
12328.125000; 1.06427E-4
12333.984375; 1.08805E-4
12339.843750; 1.20586E-4
12345.703125; 1.15388E-4
12351.562500; 1.13925E-4
12357.421875; 9.91810E-5
12363.281250; 9.71959E-5
12369.140625; 1.11628E-4
12375.000000; 1.21106E-4
12380.859375; 1.21336E-4
12386.718750; 1.23076E-4
12392.578125; 1.19946E-4
12398.437500; 1.16509E-4
12404.296875; 1.18739E-4
12410.156250; 1.21396E-4
12416.015625; 1.10968E-4
12421.875000; 9.90773E-5
12427.734375; 1.07595E-4
12433.593750; 1.08372E-4
12439.453125; 1.06693E-4
12445.312500; 1.05999E-4
12451.171875; 1.05581E-4
12457.031250; 1.01347E-4
12462.890625; 1.16821E-4
12468.750000; 1.16514E-4
12474.609375; 1.09246E-4
12480.468750; 1.16694E-4
12486.328125; 1.15353E-4
12492.187500; 1.08618E-4
12498.046875; 1.22182E-4
12503.906250; 1.23941E-4
12509.765625; 1.16084E-4
12515.625000; 1.12864E-4
12521.484375; 1.08083E-4
12527.343750; 1.11378E-4
12533.203125; 1.16221E-4
12539.062500; 1.10291E-4
12544.921875; 1.26509E-4
12550.781250; 1.28978E-4
12556.640625; 1.17345E-4
12562.500000; 1.21417E-4
12568.359375; 1.27850E-4
12574.218750; 1.05905E-4
12580.078125; 1.07629E-4
12585.937500; 1.15860E-4
12591.796875; 1.00998E-4
12597.656250; 1.04714E-4
12603.515625; 1.13612E-4
12609.375000; 1.10453E-4
12615.234375; 1.08351E-4
12621.093750; 9.98567E-5
12626.953125; 1.17834E-4
12632.812500; 1.07695E-4
12638.671875; 1.09052E-4
12644.531250; 1.20663E-4
12650.390625; 1.23280E-4
12656.250000; 1.23070E-4
12662.109375; 1.13856E-4
12667.968750; 1.09401E-4
12673.828125; 1.08015E-4
12679.687500; 1.17358E-4
12685.546875; 1.19166E-4
12691.406250; 1.08841E-4
12697.265625; 1.06400E-4
12703.125000; 1.05053E-4
12708.984375; 1.06341E-4
12714.843750; 1.08800E-4
12720.703125; 9.53676E-5
12726.562500; 9.38588E-5
12732.421875; 1.18707E-4
12738.281250; 1.15645E-4
12744.140625; 1.11430E-4
12750.000000; 1.13930E-4
12755.859375; 1.21385E-4
12761.718750; 1.21210E-4
12767.578125; 1.11869E-4
12773.437500; 8.57049E-5
12779.296875; 9.39262E-5
12785.156250; 1.03396E-4
12791.015625; 1.10196E-4
12796.875000; 1.19071E-4
12802.734375; 1.05628E-4
12808.593750; 1.06012E-4
12814.453125; 9.65889E-5
12820.312500; 9.84293E-5
12826.171875; 1.07853E-4
12832.031250; 1.10563E-4
12837.890625; 1.12201E-4
12843.750000; 1.15022E-4
12849.609375; 1.11234E-4
12855.468750; 1.15300E-4
12861.328125; 1.13611E-4
12867.187500; 1.20495E-4
12873.046875; 1.27276E-4
12878.906250; 1.12622E-4
12884.765625; 1.00908E-4
12890.625000; 9.77917E-5
12896.484375; 1.00374E-4
12902.343750; 1.19890E-4
12908.203125; 1.18261E-4
12914.062500; 1.06784E-4
12919.921875; 1.12432E-4
12925.781250; 1.11895E-4
12931.640625; 1.04356E-4
12937.500000; 1.11788E-4
12943.359375; 1.09893E-4
12949.218750; 1.20485E-4
12955.078125; 1.29733E-4
12960.937500; 1.22521E-4
12966.796875; 1.08757E-4
12972.656250; 1.09575E-4
12978.515625; 1.14605E-4
12984.375000; 1.12780E-4
12990.234375; 1.08374E-4
12996.093750; 1.08330E-4
13001.953125; 1.26015E-4
13007.812500; 1.18168E-4
13013.671875; 1.18141E-4
13019.531250; 1.10664E-4
13025.390625; 1.05093E-4
13031.250000; 1.01263E-4
13037.109375; 1.05532E-4
13042.968750; 1.08705E-4
13048.828125; 1.09155E-4
13054.687500; 1.09697E-4
13060.546875; 1.13841E-4
13066.406250; 1.09095E-4
13072.265625; 1.08676E-4
13078.125000; 1.18639E-4
13083.984375; 1.11199E-4
13089.843750; 1.07147E-4
13095.703125; 1.05805E-4
13101.562500; 1.06332E-4
13107.421875; 1.10275E-4
13113.281250; 1.07430E-4
13119.140625; 1.01491E-4
13125.000000; 9.54856E-5
13130.859375; 1.04704E-4
13136.718750; 9.58385E-5
13142.578125; 1.02254E-4
13148.437500; 1.19252E-4
13154.296875; 1.15640E-4
13160.156250; 1.04981E-4
13166.015625; 1.11303E-4
13171.875000; 1.07954E-4
13177.734375; 1.05208E-4
13183.593750; 1.04458E-4
13189.453125; 1.23034E-4
13195.312500; 1.23783E-4
13201.171875; 1.28293E-4
13207.031250; 1.26106E-4
13212.890625; 1.14223E-4
13218.750000; 1.17278E-4
13224.609375; 1.13470E-4
13230.468750; 1.13129E-4
13236.328125; 1.11927E-4
13242.187500; 1.12562E-4
13248.046875; 1.16119E-4
13253.906250; 1.14518E-4
13259.765625; 1.03849E-4
13265.625000; 1.04605E-4
13271.484375; 1.11775E-4
13277.343750; 1.03976E-4
13283.203125; 9.89486E-5
13289.062500; 8.98197E-5
13294.921875; 9.98892E-5
13300.781250; 1.02938E-4
13306.640625; 8.58937E-5
13312.500000; 1.09631E-4
13318.359375; 1.14414E-4
13324.218750; 1.29314E-4
13330.078125; 1.25611E-4
13335.937500; 1.19380E-4
13341.796875; 1.11630E-4
13347.656250; 1.19388E-4
13353.515625; 1.15132E-4
13359.375000; 1.21010E-4
13365.234375; 1.17946E-4
13371.093750; 1.29621E-4
13376.953125; 1.14137E-4
13382.812500; 1.08120E-4
13388.671875; 1.01856E-4
13394.531250; 1.04481E-4
13400.390625; 1.07247E-4
13406.250000; 1.10829E-4
13412.109375; 1.00029E-4
13417.968750; 9.69509E-5
13423.828125; 1.07929E-4
13429.687500; 1.08530E-4
13435.546875; 1.10727E-4
13441.406250; 1.06901E-4
13447.265625; 1.12639E-4
13453.125000; 1.08903E-4
13458.984375; 1.02387E-4
13464.843750; 1.09774E-4
13470.703125; 9.62670E-5
13476.562500; 1.19724E-4
13482.421875; 1.18991E-4
13488.281250; 1.10198E-4
13494.140625; 1.09994E-4
13500.000000; 1.10239E-4
13505.859375; 1.13539E-4
13511.718750; 1.06567E-4
13517.578125; 1.06916E-4
13523.437500; 1.13936E-4
13529.296875; 1.07969E-4
13535.156250; 1.08275E-4
13541.015625; 1.07685E-4
13546.875000; 1.08719E-4
13552.734375; 1.09262E-4
13558.593750; 1.07107E-4
13564.453125; 1.08981E-4
13570.312500; 1.10314E-4
13576.171875; 1.09283E-4
13582.031250; 9.61582E-5
13587.890625; 1.08686E-4
13593.750000; 1.11257E-4
13599.609375; 1.06209E-4
13605.468750; 1.19995E-4
13611.328125; 1.13668E-4
13617.187500; 1.05173E-4
13623.046875; 1.06602E-4
13628.906250; 1.08527E-4
13634.765625; 1.22542E-4
13640.625000; 1.18499E-4
13646.484375; 1.08921E-4
13652.343750; 1.00646E-4
13658.203125; 1.17010E-4
13664.062500; 1.14663E-4
13669.921875; 1.12108E-4
13675.781250; 1.21242E-4
13681.640625; 1.25386E-4
13687.500000; 1.29206E-4
13693.359375; 1.18572E-4
13699.218750; 1.10258E-4
13705.078125; 1.27111E-4
13710.937500; 1.18868E-4
13716.796875; 1.04029E-4
13722.656250; 1.03361E-4
13728.515625; 1.17105E-4
13734.375000; 1.07758E-4
13740.234375; 1.20960E-4
13746.093750; 1.23094E-4
13751.953125; 1.13062E-4
13757.812500; 9.97039E-5
13763.671875; 1.09987E-4
13769.531250; 1.02994E-4
13775.390625; 9.82807E-5
13781.250000; 1.06726E-4
13787.109375; 9.89008E-5
13792.968750; 9.50393E-5
13798.828125; 9.79470E-5
13804.687500; 1.04435E-4
13810.546875; 1.08455E-4
13816.406250; 1.04499E-4
13822.265625; 1.07981E-4
13828.125000; 9.51376E-5
13833.984375; 9.80291E-5
13839.843750; 9.66871E-5
13845.703125; 9.08478E-5
13851.562500; 1.03770E-4
13857.421875; 1.05891E-4
13863.281250; 1.02564E-4
13869.140625; 1.06210E-4
13875.000000; 1.20094E-4
13880.859375; 1.06282E-4
13886.718750; 1.12696E-4
13892.578125; 1.20588E-4
13898.437500; 1.13353E-4
13904.296875; 1.10534E-4
13910.156250; 1.07399E-4
13916.015625; 1.11319E-4
13921.875000; 1.19957E-4
13927.734375; 1.16062E-4
13933.593750; 1.13147E-4
13939.453125; 1.10041E-4
13945.312500; 1.12576E-4
13951.171875; 1.13000E-4
13957.031250; 1.11889E-4
13962.890625; 1.17664E-4
13968.750000; 1.02111E-4
13974.609375; 1.10842E-4
13980.468750; 1.16831E-4
13986.328125; 1.18156E-4
13992.187500; 1.18632E-4
13998.046875; 1.14147E-4
14003.906250; 1.02315E-4
14009.765625; 1.03773E-4
14015.625000; 1.00664E-4
14021.484375; 1.00384E-4
14027.343750; 1.09846E-4
14033.203125; 1.05048E-4
14039.062500; 1.01026E-4
14044.921875; 1.04841E-4
14050.781250; 1.17080E-4
14056.640625; 1.03075E-4
14062.500000; 1.03319E-4
14068.359375; 1.10231E-4
14074.218750; 1.06213E-4
14080.078125; 1.19064E-4
14085.937500; 1.12341E-4
14091.796875; 1.12494E-4
14097.656250; 1.01030E-4
14103.515625; 1.04078E-4
14109.375000; 1.11801E-4
14115.234375; 1.20058E-4
14121.093750; 1.12967E-4
14126.953125; 1.11824E-4
14132.812500; 1.20779E-4
14138.671875; 1.27921E-4
14144.531250; 1.08605E-4
14150.390625; 1.13323E-4
14156.250000; 1.12066E-4
14162.109375; 9.73006E-5
14167.968750; 1.05089E-4
14173.828125; 1.07674E-4
14179.687500; 1.00440E-4
14185.546875; 1.02778E-4
14191.406250; 1.02834E-4
14197.265625; 1.05641E-4
14203.125000; 1.12732E-4
14208.984375; 1.24245E-4
14214.843750; 1.35848E-4
14220.703125; 1.33185E-4
14226.562500; 1.17658E-4
14232.421875; 9.39039E-5
14238.281250; 1.09982E-4
14244.140625; 9.76472E-5
14250.000000; 9.73452E-5
14255.859375; 1.05393E-4
14261.718750; 9.93569E-5
14267.578125; 9.40259E-5
14273.437500; 1.06989E-4
14279.296875; 1.09841E-4
14285.156250; 1.19317E-4
14291.015625; 1.22577E-4
14296.875000; 1.16620E-4
14302.734375; 1.11212E-4
14308.593750; 1.05838E-4
14314.453125; 1.06590E-4
14320.312500; 1.13987E-4
14326.171875; 1.15480E-4
14332.031250; 1.19316E-4
14337.890625; 1.10298E-4
14343.750000; 1.20338E-4
14349.609375; 1.21639E-4
14355.468750; 1.06518E-4
14361.328125; 1.14596E-4
14367.187500; 1.21813E-4
14373.046875; 1.11988E-4
14378.906250; 1.10147E-4
14384.765625; 1.16107E-4
14390.625000; 1.08354E-4
14396.484375; 1.03501E-4
14402.343750; 1.00210E-4
14408.203125; 9.64355E-5
14414.062500; 8.96246E-5
14419.921875; 1.00191E-4
14425.781250; 1.04048E-4
14431.640625; 1.01568E-4
14437.500000; 8.85793E-5
14443.359375; 1.11653E-4
14449.218750; 1.09120E-4
14455.078125; 1.13448E-4
14460.937500; 1.22861E-4
14466.796875; 1.01802E-4
14472.656250; 8.97386E-5
14478.515625; 9.26230E-5
14484.375000; 1.06348E-4
14490.234375; 1.00971E-4
14496.093750; 1.02483E-4
14501.953125; 1.04559E-4
14507.812500; 1.05218E-4
14513.671875; 1.23901E-4
14519.531250; 1.31976E-4
14525.390625; 1.20986E-4
14531.250000; 1.19003E-4
14537.109375; 1.11706E-4
14542.968750; 9.08564E-5
14548.828125; 1.04449E-4
14554.687500; 1.05720E-4
14560.546875; 9.59146E-5
14566.406250; 1.15714E-4
14572.265625; 1.17778E-4
14578.125000; 1.14488E-4
14583.984375; 1.24548E-4
14589.843750; 1.11603E-4
14595.703125; 1.05046E-4
14601.562500; 1.07993E-4
14607.421875; 1.13411E-4
14613.281250; 1.11176E-4
14619.140625; 1.17396E-4
14625.000000; 1.16890E-4
14630.859375; 9.78805E-5
14636.718750; 1.01680E-4
14642.578125; 1.15248E-4
14648.437500; 1.09472E-4
14654.296875; 1.19617E-4
14660.156250; 1.15281E-4
14666.015625; 1.10416E-4
14671.875000; 1.00126E-4
14677.734375; 1.01455E-4
14683.593750; 1.12202E-4
14689.453125; 1.16783E-4
14695.312500; 1.12039E-4
14701.171875; 9.33898E-5
14707.031250; 1.04595E-4
14712.890625; 1.01616E-4
14718.750000; 1.11619E-4
14724.609375; 1.09049E-4
14730.468750; 9.25811E-5
14736.328125; 1.10801E-4
14742.187500; 1.13687E-4
14748.046875; 1.10527E-4
14753.906250; 1.01440E-4
14759.765625; 8.92746E-5
14765.625000; 1.18603E-4
14771.484375; 1.26616E-4
14777.343750; 1.15864E-4
14783.203125; 9.35136E-5
14789.062500; 1.05531E-4
14794.921875; 1.16314E-4
14800.781250; 9.85662E-5
14806.640625; 8.91008E-5
14812.500000; 9.05416E-5
14818.359375; 1.07033E-4
14824.218750; 1.09757E-4
14830.078125; 1.05458E-4
14835.937500; 1.05567E-4
14841.796875; 1.14410E-4
14847.656250; 1.15209E-4
14853.515625; 1.18821E-4
14859.375000; 1.18123E-4
14865.234375; 9.99662E-5
14871.093750; 1.12885E-4
14876.953125; 1.16605E-4
14882.812500; 1.05960E-4
14888.671875; 9.81315E-5
14894.531250; 1.00468E-4
14900.390625; 1.18026E-4
14906.250000; 1.25660E-4
14912.109375; 1.22805E-4
14917.968750; 1.09124E-4
14923.828125; 1.00535E-4
14929.687500; 1.03869E-4
14935.546875; 1.10763E-4
14941.406250; 1.16976E-4
14947.265625; 1.11239E-4
14953.125000; 1.23843E-4
14958.984375; 1.14627E-4
14964.843750; 9.87030E-5
14970.703125; 8.86296E-5
14976.562500; 9.50087E-5
14982.421875; 1.05091E-4
14988.281250; 1.13660E-4
14994.140625; 1.15673E-4
15000.000000; 1.18397E-4
15005.859375; 1.13963E-4
15011.718750; 9.96353E-5
15017.578125; 1.06358E-4
15023.437500; 1.16930E-4
15029.296875; 1.16631E-4
15035.156250; 1.15170E-4
15041.015625; 1.04753E-4
15046.875000; 1.01442E-4
15052.734375; 1.01190E-4
15058.593750; 1.16222E-4
15064.453125; 1.23076E-4
15070.312500; 1.14784E-4
15076.171875; 1.06556E-4
15082.031250; 1.06599E-4
15087.890625; 1.12103E-4
15093.750000; 1.07767E-4
15099.609375; 1.10386E-4
15105.468750; 1.16974E-4
15111.328125; 1.10122E-4
15117.187500; 9.98089E-5
15123.046875; 1.12037E-4
15128.906250; 1.11686E-4
15134.765625; 1.24365E-4
15140.625000; 1.11660E-4
15146.484375; 1.14878E-4
15152.343750; 1.06168E-4
15158.203125; 1.07697E-4
15164.062500; 1.00877E-4
15169.921875; 1.03491E-4
15175.781250; 1.10824E-4
15181.640625; 1.12086E-4
15187.500000; 1.12505E-4
15193.359375; 1.16979E-4
15199.218750; 1.16261E-4
15205.078125; 1.09686E-4
15210.937500; 1.08191E-4
15216.796875; 1.11724E-4
15222.656250; 1.15611E-4
15228.515625; 1.19208E-4
15234.375000; 1.12154E-4
15240.234375; 1.15144E-4
15246.093750; 1.01739E-4
15251.953125; 1.02748E-4
15257.812500; 1.19098E-4
15263.671875; 1.17530E-4
15269.531250; 1.10889E-4
15275.390625; 1.06318E-4
15281.250000; 1.07008E-4
15287.109375; 1.14434E-4
15292.968750; 9.69143E-5
15298.828125; 9.41769E-5
15304.687500; 9.28466E-5
15310.546875; 1.06200E-4
15316.406250; 1.06691E-4
15322.265625; 9.02950E-5
15328.125000; 9.74767E-5
15333.984375; 1.08646E-4
15339.843750; 1.12351E-4
15345.703125; 1.21020E-4
15351.562500; 1.13391E-4
15357.421875; 1.06243E-4
15363.281250; 1.08979E-4
15369.140625; 1.18722E-4
15375.000000; 1.05097E-4
15380.859375; 1.10078E-4
15386.718750; 1.15161E-4
15392.578125; 1.18857E-4
15398.437500; 1.03778E-4
15404.296875; 9.45628E-5
15410.156250; 1.03035E-4
15416.015625; 9.81330E-5
15421.875000; 1.11025E-4
15427.734375; 1.09358E-4
15433.593750; 1.04583E-4
15439.453125; 1.10670E-4
15445.312500; 1.10805E-4
15451.171875; 1.08818E-4
15457.031250; 1.04819E-4
15462.890625; 9.51538E-5
15468.750000; 1.02021E-4
15474.609375; 1.10363E-4
15480.468750; 1.08366E-4
15486.328125; 1.05734E-4
15492.187500; 1.01474E-4
15498.046875; 8.69314E-5
15503.906250; 1.03822E-4
15509.765625; 1.04930E-4
15515.625000; 1.09353E-4
15521.484375; 1.17424E-4
15527.343750; 1.25862E-4
15533.203125; 1.11465E-4
15539.062500; 1.05452E-4
15544.921875; 1.08407E-4
15550.781250; 9.11369E-5
15556.640625; 9.19418E-5
15562.500000; 1.03551E-4
15568.359375; 1.09360E-4
15574.218750; 1.15013E-4
15580.078125; 1.32711E-4
15585.937500; 1.24332E-4
15591.796875; 1.01770E-4
15597.656250; 9.80700E-5
15603.515625; 9.93249E-5
15609.375000; 1.06004E-4
15615.234375; 1.03680E-4
15621.093750; 1.01832E-4
15626.953125; 9.83390E-5
15632.812500; 9.38263E-5
15638.671875; 1.04116E-4
15644.531250; 1.08636E-4
15650.390625; 1.20868E-4
15656.250000; 1.12760E-4
15662.109375; 1.09496E-4
15667.968750; 1.01859E-4
15673.828125; 9.61713E-5
15679.687500; 1.12202E-4
15685.546875; 1.03207E-4
15691.406250; 8.64246E-5
15697.265625; 1.00541E-4
15703.125000; 9.23577E-5
15708.984375; 1.09920E-4
15714.843750; 1.05106E-4
15720.703125; 1.04455E-4
15726.562500; 1.08505E-4
15732.421875; 1.18272E-4
15738.281250; 1.08007E-4
15744.140625; 8.76317E-5
15750.000000; 9.41188E-5
15755.859375; 1.07476E-4
15761.718750; 1.04903E-4
15767.578125; 1.03780E-4
15773.437500; 9.94208E-5
15779.296875; 1.00546E-4
15785.156250; 1.09353E-4
15791.015625; 1.06405E-4
15796.875000; 1.06946E-4
15802.734375; 9.21751E-5
15808.593750; 9.78174E-5
15814.453125; 1.06679E-4
15820.312500; 1.07725E-4
15826.171875; 1.19881E-4
15832.031250; 1.16252E-4
15837.890625; 1.15195E-4
15843.750000; 9.49511E-5
15849.609375; 1.09093E-4
15855.468750; 1.07707E-4
15861.328125; 1.07294E-4
15867.187500; 1.16333E-4
15873.046875; 1.09240E-4
15878.906250; 9.28903E-5
15884.765625; 1.07523E-4
15890.625000; 1.21555E-4
15896.484375; 9.76422E-5
15902.343750; 1.06820E-4
15908.203125; 1.20427E-4
15914.062500; 1.08647E-4
15919.921875; 1.00945E-4
15925.781250; 9.67392E-5
15931.640625; 1.05294E-4
15937.500000; 1.15649E-4
15943.359375; 1.09141E-4
15949.218750; 1.07927E-4
15955.078125; 1.07519E-4
15960.937500; 1.06341E-4
15966.796875; 1.09602E-4
15972.656250; 1.17500E-4
15978.515625; 1.06044E-4
15984.375000; 9.66197E-5
15990.234375; 1.06744E-4
15996.093750; 1.28229E-4
16001.953125; 1.21728E-4
16007.812500; 1.01334E-4
16013.671875; 8.90608E-5
16019.531250; 1.11624E-4
16025.390625; 1.11345E-4
16031.250000; 9.73084E-5
16037.109375; 1.02278E-4
16042.968750; 1.08941E-4
16048.828125; 1.05770E-4
16054.687500; 1.00657E-4
16060.546875; 1.04986E-4
16066.406250; 1.13932E-4
16072.265625; 1.15362E-4
16078.125000; 1.03154E-4
16083.984375; 1.00993E-4
16089.843750; 1.12168E-4
16095.703125; 1.09589E-4
16101.562500; 1.09085E-4
16107.421875; 1.07153E-4
16113.281250; 1.16986E-4
16119.140625; 1.17928E-4
16125.000000; 1.05309E-4
16130.859375; 1.08461E-4
16136.718750; 1.09808E-4
16142.578125; 1.16471E-4
16148.437500; 1.01674E-4
16154.296875; 9.52697E-5
16160.156250; 1.12835E-4
16166.015625; 1.16151E-4
16171.875000; 1.08442E-4
16177.734375; 1.12949E-4
16183.593750; 1.12541E-4
16189.453125; 1.12463E-4
16195.312500; 1.11282E-4
16201.171875; 1.15343E-4
16207.031250; 9.93028E-5
16212.890625; 1.04654E-4
16218.750000; 1.08164E-4
16224.609375; 9.64767E-5
16230.468750; 1.12440E-4
16236.328125; 1.13628E-4
16242.187500; 1.14316E-4
16248.046875; 1.08534E-4
16253.906250; 1.02600E-4
16259.765625; 1.04052E-4
16265.625000; 1.07225E-4
16271.484375; 1.00224E-4
16277.343750; 1.12983E-4
16283.203125; 1.10315E-4
16289.062500; 1.11364E-4
16294.921875; 1.08204E-4
16300.781250; 1.10237E-4
16306.640625; 1.16511E-4
16312.500000; 1.17343E-4
16318.359375; 1.03736E-4
16324.218750; 1.04327E-4
16330.078125; 1.03332E-4
16335.937500; 1.08106E-4
16341.796875; 1.08537E-4
16347.656250; 1.02301E-4
16353.515625; 1.04719E-4
16359.375000; 1.05467E-4
16365.234375; 1.16109E-4
16371.093750; 1.28262E-4
16376.953125; 1.14359E-4
16382.812500; 1.18835E-4
16388.671875; 1.14183E-4
16394.531250; 1.02022E-4
16400.390625; 9.23932E-5
16406.250000; 8.72013E-5
16412.109375; 1.02757E-4
16417.968750; 1.09880E-4
16423.828125; 1.01487E-4
16429.687500; 1.00370E-4
16435.546875; 9.08731E-5
16441.406250; 9.93453E-5
16447.265625; 9.85058E-5
16453.125000; 1.01681E-4
16458.984375; 1.01148E-4
16464.843750; 1.00546E-4
16470.703125; 1.10400E-4
16476.562500; 1.28064E-4
16482.421875; 1.17427E-4
16488.281250; 1.11307E-4
16494.140625; 1.08673E-4
16500.000000; 1.05574E-4
16505.859375; 1.16951E-4
16511.718750; 1.07388E-4
16517.578125; 9.45278E-5
16523.437500; 1.03801E-4
16529.296875; 1.19886E-4
16535.156250; 1.21745E-4
16541.015625; 1.13536E-4
16546.875000; 9.21275E-5
16552.734375; 1.01863E-4
16558.593750; 1.12378E-4
16564.453125; 1.08740E-4
16570.312500; 1.10510E-4
16576.171875; 1.08230E-4
16582.031250; 1.09430E-4
16587.890625; 1.13854E-4
16593.750000; 1.01908E-4
16599.609375; 1.06457E-4
16605.468750; 1.12462E-4
16611.328125; 1.04523E-4
16617.187500; 1.14163E-4
16623.046875; 1.08393E-4
16628.906250; 1.12168E-4
16634.765625; 1.02732E-4
16640.625000; 1.10447E-4
16646.484375; 1.16864E-4
16652.343750; 1.01401E-4
16658.203125; 1.04277E-4
16664.062500; 1.02122E-4
16669.921875; 1.06747E-4
16675.781250; 1.11524E-4
16681.640625; 1.08980E-4
16687.500000; 1.03550E-4
16693.359375; 1.08959E-4
16699.218750; 1.17592E-4
16705.078125; 1.21385E-4
16710.937500; 9.76593E-5
16716.796875; 9.72139E-5
16722.656250; 1.01016E-4
16728.515625; 1.11848E-4
16734.375000; 1.11923E-4
16740.234375; 9.52176E-5
16746.093750; 1.06889E-4
16751.953125; 1.02779E-4
16757.812500; 1.01550E-4
16763.671875; 1.04404E-4
16769.531250; 9.34825E-5
16775.390625; 9.26735E-5
16781.250000; 1.08632E-4
16787.109375; 1.02991E-4
16792.968750; 8.56934E-5
16798.828125; 1.07800E-4
16804.687500; 1.11167E-4
16810.546875; 1.01928E-4
16816.406250; 1.17671E-4
16822.265625; 1.19941E-4
16828.125000; 1.15206E-4
16833.984375; 1.06831E-4
16839.843750; 1.04051E-4
16845.703125; 1.05350E-4
16851.562500; 1.14020E-4
16857.421875; 1.27941E-4
16863.281250; 1.18261E-4
16869.140625; 9.69795E-5
16875.000000; 1.03616E-4
16880.859375; 1.10341E-4
16886.718750; 1.07225E-4
16892.578125; 1.10714E-4
16898.437500; 1.05291E-4
16904.296875; 1.09434E-4
16910.156250; 1.21327E-4
16916.015625; 1.19746E-4
16921.875000; 1.01476E-4
16927.734375; 1.00355E-4
16933.593750; 1.16561E-4
16939.453125; 1.17961E-4
16945.312500; 1.09937E-4
16951.171875; 1.00136E-4
16957.031250; 1.00265E-4
16962.890625; 1.16319E-4
16968.750000; 1.19558E-4
16974.609375; 1.25962E-4
16980.468750; 1.27821E-4
16986.328125; 1.26313E-4
16992.187500; 1.20732E-4
16998.046875; 1.06369E-4
17003.906250; 1.10249E-4
17009.765625; 1.02379E-4
17015.625000; 9.66928E-5
17021.484375; 1.02735E-4
17027.343750; 1.11345E-4
17033.203125; 1.00755E-4
17039.062500; 1.00924E-4
17044.921875; 1.00786E-4
17050.781250; 1.22713E-4
17056.640625; 1.12249E-4
17062.500000; 1.06320E-4
17068.359375; 9.99032E-5
17074.218750; 8.57612E-5
17080.078125; 7.97110E-5
17085.937500; 9.01301E-5
17091.796875; 9.90921E-5
17097.656250; 1.00213E-4
17103.515625; 9.50990E-5
17109.375000; 1.01614E-4
17115.234375; 1.11623E-4
17121.093750; 1.19888E-4
17126.953125; 1.01504E-4
17132.812500; 9.22186E-5
17138.671875; 1.00879E-4
17144.531250; 1.12813E-4
17150.390625; 1.25278E-4
17156.250000; 1.21072E-4
17162.109375; 1.13849E-4
17167.968750; 1.08347E-4
17173.828125; 1.02080E-4
17179.687500; 1.04577E-4
17185.546875; 8.85276E-5
17191.406250; 1.00344E-4
17197.265625; 1.20359E-4
17203.125000; 1.11949E-4
17208.984375; 1.06157E-4
17214.843750; 1.15322E-4
17220.703125; 1.05965E-4
17226.562500; 1.06680E-4
17232.421875; 9.35502E-5
17238.281250; 1.05642E-4
17244.140625; 1.09233E-4
17250.000000; 9.79628E-5
17255.859375; 9.84327E-5
17261.718750; 1.13340E-4
17267.578125; 1.09276E-4
17273.437500; 1.00301E-4
17279.296875; 1.06012E-4
17285.156250; 1.03463E-4
17291.015625; 1.17265E-4
17296.875000; 1.04741E-4
17302.734375; 1.01608E-4
17308.593750; 1.01854E-4
17314.453125; 9.89571E-5
17320.312500; 1.03492E-4
17326.171875; 1.00216E-4
17332.031250; 1.04685E-4
17337.890625; 1.15953E-4
17343.750000; 1.18518E-4
17349.609375; 9.83092E-5
17355.468750; 1.04192E-4
17361.328125; 1.08527E-4
17367.187500; 1.34647E-4
17373.046875; 1.30611E-4
17378.906250; 1.11388E-4
17384.765625; 1.19077E-4
17390.625000; 9.40313E-5
17396.484375; 9.75532E-5
17402.343750; 1.02248E-4
17408.203125; 1.06857E-4
17414.062500; 1.07045E-4
17419.921875; 1.08420E-4
17425.781250; 1.07840E-4
17431.640625; 9.97566E-5
17437.500000; 1.04506E-4
17443.359375; 1.12654E-4
17449.218750; 1.11462E-4
17455.078125; 1.15447E-4
17460.937500; 9.67373E-5
17466.796875; 9.49855E-5
17472.656250; 1.05263E-4
17478.515625; 1.13724E-4
17484.375000; 1.13559E-4
17490.234375; 1.13691E-4
17496.093750; 1.19687E-4
17501.953125; 1.15203E-4
17507.812500; 1.06160E-4
17513.671875; 9.30091E-5
17519.531250; 1.06188E-4
17525.390625; 1.13297E-4
17531.250000; 1.08558E-4
17537.109375; 1.05621E-4
17542.968750; 9.81936E-5
17548.828125; 1.05563E-4
17554.687500; 9.90259E-5
17560.546875; 9.42505E-5
17566.406250; 9.19829E-5
17572.265625; 1.01562E-4
17578.125000; 1.01923E-4
17583.984375; 9.63718E-5
17589.843750; 1.01123E-4
17595.703125; 1.00797E-4
17601.562500; 1.13429E-4
17607.421875; 1.16214E-4
17613.281250; 9.61115E-5
17619.140625; 9.51977E-5
17625.000000; 1.01688E-4
17630.859375; 1.04607E-4
17636.718750; 1.02114E-4
17642.578125; 1.04210E-4
17648.437500; 1.01767E-4
17654.296875; 9.54646E-5
17660.156250; 9.98340E-5
17666.015625; 1.02356E-4
17671.875000; 9.66320E-5
17677.734375; 1.04149E-4
17683.593750; 1.04884E-4
17689.453125; 9.66720E-5
17695.312500; 9.85161E-5
17701.171875; 1.03835E-4
17707.031250; 1.03806E-4
17712.890625; 9.97127E-5
17718.750000; 9.68083E-5
17724.609375; 9.03539E-5
17730.468750; 1.03191E-4
17736.328125; 1.17964E-4
17742.187500; 1.04454E-4
17748.046875; 1.02734E-4
17753.906250; 1.03536E-4
17759.765625; 1.15390E-4
17765.625000; 1.20877E-4
17771.484375; 1.15986E-4
17777.343750; 1.05316E-4
17783.203125; 1.03677E-4
17789.062500; 1.08163E-4
17794.921875; 1.08584E-4
17800.781250; 1.06041E-4
17806.640625; 1.10562E-4
17812.500000; 1.06034E-4
17818.359375; 9.33952E-5
17824.218750; 9.68084E-5
17830.078125; 1.06679E-4
17835.937500; 9.29154E-5
17841.796875; 9.94132E-5
17847.656250; 1.02433E-4
17853.515625; 1.09969E-4
17859.375000; 1.15839E-4
17865.234375; 1.12002E-4
17871.093750; 1.02200E-4
17876.953125; 1.00126E-4
17882.812500; 1.01881E-4
17888.671875; 9.98687E-5
17894.531250; 1.01460E-4
17900.390625; 9.80444E-5
17906.250000; 9.50803E-5
17912.109375; 9.21055E-5
17917.968750; 1.08663E-4
17923.828125; 1.14189E-4
17929.687500; 1.06608E-4
17935.546875; 1.12465E-4
17941.406250; 1.08044E-4
17947.265625; 9.55074E-5
17953.125000; 1.01042E-4
17958.984375; 1.02064E-4
17964.843750; 1.18708E-4
17970.703125; 1.29369E-4
17976.562500; 1.07594E-4
17982.421875; 1.02862E-4
17988.281250; 1.01186E-4
17994.140625; 1.04911E-4
18000.000000; 1.02580E-4
18005.859375; 9.50043E-5
18011.718750; 9.74016E-5
18017.578125; 1.04273E-4
18023.437500; 1.05391E-4
18029.296875; 1.11220E-4
18035.156250; 1.02020E-4
18041.015625; 1.11443E-4
18046.875000; 1.25369E-4
18052.734375; 1.21067E-4
18058.593750; 1.02832E-4
18064.453125; 9.91058E-5
18070.312500; 1.01358E-4
18076.171875; 1.05314E-4
18082.031250; 1.03414E-4
18087.890625; 1.17065E-4
18093.750000; 1.08977E-4
18099.609375; 1.09809E-4
18105.468750; 1.07586E-4
18111.328125; 1.11186E-4
18117.187500; 1.20628E-4
18123.046875; 1.21543E-4
18128.906250; 1.09027E-4
18134.765625; 9.41042E-5
18140.625000; 9.61706E-5
18146.484375; 9.25954E-5
18152.343750; 1.04752E-4
18158.203125; 1.08355E-4
18164.062500; 1.07154E-4
18169.921875; 1.06643E-4
18175.781250; 1.02865E-4
18181.640625; 1.06711E-4
18187.500000; 1.03214E-4
18193.359375; 1.00812E-4
18199.218750; 1.07588E-4
18205.078125; 1.13766E-4
18210.937500; 1.04536E-4
18216.796875; 1.15418E-4
18222.656250; 1.07319E-4
18228.515625; 1.02695E-4
18234.375000; 1.02015E-4
18240.234375; 9.87770E-5
18246.093750; 1.01352E-4
18251.953125; 1.06945E-4
18257.812500; 1.09895E-4
18263.671875; 1.05885E-4
18269.531250; 1.01935E-4
18275.390625; 9.81537E-5
18281.250000; 9.66973E-5
18287.109375; 9.32690E-5
18292.968750; 1.01514E-4
18298.828125; 1.08151E-4
18304.687500; 1.07605E-4
18310.546875; 9.59622E-5
18316.406250; 8.30939E-5
18322.265625; 9.88002E-5
18328.125000; 1.09548E-4
18333.984375; 1.10905E-4
18339.843750; 1.03715E-4
18345.703125; 9.95205E-5
18351.562500; 9.82031E-5
18357.421875; 9.15442E-5
18363.281250; 1.09600E-4
18369.140625; 1.13234E-4
18375.000000; 1.05134E-4
18380.859375; 1.03554E-4
18386.718750; 1.06206E-4
18392.578125; 1.03667E-4
18398.437500; 1.10851E-4
18404.296875; 1.07122E-4
18410.156250; 9.95163E-5
18416.015625; 9.76564E-5
18421.875000; 1.10829E-4
18427.734375; 1.03582E-4
18433.593750; 1.03994E-4
18439.453125; 1.07887E-4
18445.312500; 1.03659E-4
18451.171875; 1.05233E-4
18457.031250; 1.01485E-4
18462.890625; 9.46447E-5
18468.750000; 9.54805E-5
18474.609375; 9.33664E-5
18480.468750; 1.06353E-4
18486.328125; 1.02746E-4
18492.187500; 1.08331E-4
18498.046875; 1.19921E-4
18503.906250; 1.03066E-4
18509.765625; 9.44876E-5
18515.625000; 1.07744E-4
18521.484375; 1.12451E-4
18527.343750; 9.55732E-5
18533.203125; 1.03519E-4
18539.062500; 1.13173E-4
18544.921875; 1.07009E-4
18550.781250; 1.05982E-4
18556.640625; 9.98768E-5
18562.500000; 1.01036E-4
18568.359375; 1.04567E-4
18574.218750; 1.09488E-4
18580.078125; 1.15305E-4
18585.937500; 1.06555E-4
18591.796875; 1.09926E-4
18597.656250; 1.12024E-4
18603.515625; 1.16334E-4
18609.375000; 1.17855E-4
18615.234375; 1.16487E-4
18621.093750; 9.94319E-5
18626.953125; 9.94894E-5
18632.812500; 9.54953E-5
18638.671875; 9.79610E-5
18644.531250; 1.13373E-4
18650.390625; 1.04573E-4
18656.250000; 1.13710E-4
18662.109375; 1.06227E-4
18667.968750; 1.04533E-4
18673.828125; 1.06092E-4
18679.687500; 1.01042E-4
18685.546875; 9.38165E-5
18691.406250; 9.99665E-5
18697.265625; 1.07288E-4
18703.125000; 1.01627E-4
18708.984375; 1.06545E-4
18714.843750; 1.19926E-4
18720.703125; 1.25724E-4
18726.562500; 1.13427E-4
18732.421875; 1.01406E-4
18738.281250; 8.63456E-5
18744.140625; 1.02231E-4
18750.000000; 1.09070E-4
18755.859375; 1.09009E-4
18761.718750; 1.08438E-4
18767.578125; 9.80074E-5
18773.437500; 1.08429E-4
18779.296875; 1.12028E-4
18785.156250; 1.08871E-4
18791.015625; 1.11996E-4
18796.875000; 1.06605E-4
18802.734375; 9.72484E-5
18808.593750; 1.05007E-4
18814.453125; 1.04302E-4
18820.312500; 9.67974E-5
18826.171875; 1.03380E-4
18832.031250; 9.62882E-5
18837.890625; 1.09906E-4
18843.750000; 1.03919E-4
18849.609375; 1.09474E-4
18855.468750; 1.01694E-4
18861.328125; 1.01888E-4
18867.187500; 9.36292E-5
18873.046875; 1.05787E-4
18878.906250; 1.33535E-4
18884.765625; 1.23454E-4
18890.625000; 1.04124E-4
18896.484375; 1.13894E-4
18902.343750; 1.23707E-4
18908.203125; 1.18371E-4
18914.062500; 1.19162E-4
18919.921875; 1.12433E-4
18925.781250; 1.10073E-4
18931.640625; 1.14303E-4
18937.500000; 1.03630E-4
18943.359375; 9.80712E-5
18949.218750; 1.02187E-4
18955.078125; 9.73425E-5
18960.937500; 9.30369E-5
18966.796875; 9.87077E-5
18972.656250; 1.12825E-4
18978.515625; 1.11643E-4
18984.375000; 1.07859E-4
18990.234375; 1.14831E-4
18996.093750; 1.12660E-4
19001.953125; 1.21556E-4
19007.812500; 1.17733E-4
19013.671875; 1.15949E-4
19019.531250; 1.13716E-4
19025.390625; 1.02616E-4
19031.250000; 1.10498E-4
19037.109375; 9.17924E-5
19042.968750; 1.00062E-4
19048.828125; 1.07084E-4
19054.687500; 8.83314E-5
19060.546875; 1.02841E-4
19066.406250; 1.12724E-4
19072.265625; 1.15871E-4
19078.125000; 1.13560E-4
19083.984375; 9.84050E-5
19089.843750; 1.08406E-4
19095.703125; 1.20529E-4
19101.562500; 1.14369E-4
19107.421875; 9.36177E-5
19113.281250; 9.35791E-5
19119.140625; 1.02626E-4
19125.000000; 1.08228E-4
19130.859375; 9.50360E-5
19136.718750; 9.57885E-5
19142.578125; 1.08404E-4
19148.437500; 1.07503E-4
19154.296875; 1.04107E-4
19160.156250; 9.84260E-5
19166.015625; 9.85944E-5
19171.875000; 9.94387E-5
19177.734375; 9.95828E-5
19183.593750; 1.02166E-4
19189.453125; 1.03896E-4
19195.312500; 1.04637E-4
19201.171875; 1.02258E-4
19207.031250; 9.27092E-5
19212.890625; 8.60006E-5
19218.750000; 1.00859E-4
19224.609375; 1.06111E-4
19230.468750; 1.19068E-4
19236.328125; 1.08324E-4
19242.187500; 1.04237E-4
19248.046875; 1.11778E-4
19253.906250; 1.11987E-4
19259.765625; 1.06895E-4
19265.625000; 1.11405E-4
19271.484375; 1.05798E-4
19277.343750; 1.17996E-4
19283.203125; 1.18064E-4
19289.062500; 1.15169E-4
19294.921875; 1.20509E-4
19300.781250; 1.11741E-4
19306.640625; 1.03957E-4
19312.500000; 9.00974E-5
19318.359375; 1.04436E-4
19324.218750; 1.08548E-4
19330.078125; 1.05702E-4
19335.937500; 1.05387E-4
19341.796875; 1.01147E-4
19347.656250; 1.00025E-4
19353.515625; 9.78409E-5
19359.375000; 1.05739E-4
19365.234375; 1.13808E-4
19371.093750; 1.03366E-4
19376.953125; 9.69854E-5
19382.812500; 9.68259E-5
19388.671875; 1.04337E-4
19394.531250; 1.03086E-4
19400.390625; 1.21231E-4
19406.250000; 1.27685E-4
19412.109375; 1.29236E-4
19417.968750; 1.13367E-4
19423.828125; 9.89441E-5
19429.687500; 1.04689E-4
19435.546875; 1.14391E-4
19441.406250; 1.01293E-4
19447.265625; 9.41128E-5
19453.125000; 9.04249E-5
19458.984375; 9.42070E-5
19464.843750; 1.03681E-4
19470.703125; 1.08278E-4
19476.562500; 1.06746E-4
19482.421875; 9.55828E-5
19488.281250; 9.67696E-5
19494.140625; 1.15496E-4
19500.000000; 1.08966E-4
19505.859375; 9.69978E-5
19511.718750; 8.52708E-5
19517.578125; 9.56445E-5
19523.437500; 1.06087E-4
19529.296875; 1.12389E-4
19535.156250; 1.06550E-4
19541.015625; 1.03367E-4
19546.875000; 1.02943E-4
19552.734375; 9.14314E-5
19558.593750; 1.00355E-4
19564.453125; 1.09844E-4
19570.312500; 1.16037E-4
19576.171875; 1.08311E-4
19582.031250; 1.06618E-4
19587.890625; 1.06784E-4
19593.750000; 1.19829E-4
19599.609375; 1.29603E-4
19605.468750; 1.12977E-4
19611.328125; 1.15345E-4
19617.187500; 1.01153E-4
19623.046875; 9.54936E-5
19628.906250; 1.06188E-4
19634.765625; 9.40371E-5
19640.625000; 1.13056E-4
19646.484375; 1.15524E-4
19652.343750; 1.03204E-4
19658.203125; 9.88818E-5
19664.062500; 8.75488E-5
19669.921875; 8.69346E-5
19675.781250; 9.10398E-5
19681.640625; 1.08122E-4
19687.500000; 1.07575E-4
19693.359375; 1.05858E-4
19699.218750; 1.03558E-4
19705.078125; 1.04307E-4
19710.937500; 1.09624E-4
19716.796875; 1.11607E-4
19722.656250; 1.17999E-4
19728.515625; 1.25962E-4
19734.375000; 1.06710E-4
19740.234375; 1.00252E-4
19746.093750; 9.77806E-5
19751.953125; 9.52183E-5
19757.812500; 9.63150E-5
19763.671875; 1.02531E-4
19769.531250; 9.37896E-5
19775.390625; 9.95567E-5
19781.250000; 1.00678E-4
19787.109375; 9.85384E-5
19792.968750; 1.10703E-4
19798.828125; 1.10335E-4
19804.687500; 1.03671E-4
19810.546875; 1.00964E-4
19816.406250; 1.03306E-4
19822.265625; 1.09318E-4
19828.125000; 1.24931E-4
19833.984375; 1.18446E-4
19839.843750; 1.06254E-4
19845.703125; 9.83550E-5
19851.562500; 1.02853E-4
19857.421875; 1.12433E-4
19863.281250; 1.08197E-4
19869.140625; 1.00938E-4
19875.000000; 1.00093E-4
19880.859375; 8.81981E-5
19886.718750; 9.77514E-5
19892.578125; 9.77578E-5
19898.437500; 1.01925E-4
19904.296875; 9.59156E-5
19910.156250; 1.02975E-4
19916.015625; 1.00357E-4
19921.875000; 1.10898E-4
19927.734375; 1.15899E-4
19933.593750; 1.02659E-4
19939.453125; 1.10359E-4
19945.312500; 1.12148E-4
19951.171875; 1.07097E-4
19957.031250; 1.08827E-4
19962.890625; 1.15347E-4
19968.750000; 1.03000E-4
19974.609375; 9.42571E-5
19980.468750; 8.94104E-5
19986.328125; 8.51587E-5
19992.187500; 8.75287E-5
19998.046875; 9.59591E-5
20003.906250; 9.83778E-5
20009.765625; 1.02438E-4
20015.625000; 1.10495E-4
20021.484375; 9.71579E-5
20027.343750; 1.09490E-4
20033.203125; 1.01160E-4
20039.062500; 8.96589E-5
20044.921875; 1.02370E-4
20050.781250; 1.09405E-4
20056.640625; 1.05681E-4
20062.500000; 1.00160E-4
20068.359375; 9.91685E-5
20074.218750; 1.06673E-4
20080.078125; 9.65633E-5
20085.937500; 9.65570E-5
20091.796875; 1.06257E-4
20097.656250; 1.03829E-4
20103.515625; 1.20378E-4
20109.375000; 1.03681E-4
20115.234375; 1.16868E-4
20121.093750; 1.28508E-4
20126.953125; 1.19835E-4
20132.812500; 1.09561E-4
20138.671875; 1.18222E-4
20144.531250; 1.08726E-4
20150.390625; 1.02192E-4
20156.250000; 1.06390E-4
20162.109375; 9.62051E-5
20167.968750; 1.06753E-4
20173.828125; 1.08827E-4
20179.687500; 1.15784E-4
20185.546875; 1.20014E-4
20191.406250; 1.25566E-4
20197.265625; 1.14617E-4
20203.125000; 1.09923E-4
20208.984375; 1.04427E-4
20214.843750; 1.14998E-4
20220.703125; 1.04713E-4
20226.562500; 1.03813E-4
20232.421875; 1.10953E-4
20238.281250; 9.99115E-5
20244.140625; 1.02716E-4
20250.000000; 1.08333E-4
20255.859375; 1.08878E-4
20261.718750; 1.08790E-4
20267.578125; 1.17299E-4
20273.437500; 1.12297E-4
20279.296875; 1.04541E-4
20285.156250; 1.07206E-4
20291.015625; 1.02627E-4
20296.875000; 1.01659E-4
20302.734375; 1.06150E-4
20308.593750; 1.15746E-4
20314.453125; 1.18106E-4
20320.312500; 1.17998E-4
20326.171875; 9.93692E-5
20332.031250; 9.63854E-5
20337.890625; 1.01859E-4
20343.750000; 1.07262E-4
20349.609375; 1.07878E-4
20355.468750; 1.06459E-4
20361.328125; 1.09620E-4
20367.187500; 1.01622E-4
20373.046875; 9.26072E-5
20378.906250; 1.02051E-4
20384.765625; 1.22096E-4
20390.625000; 1.08920E-4
20396.484375; 1.00197E-4
20402.343750; 9.56610E-5
20408.203125; 1.09313E-4
20414.062500; 1.11956E-4
20419.921875; 1.16387E-4
20425.781250; 1.16137E-4
20431.640625; 1.01353E-4
20437.500000; 1.04288E-4
20443.359375; 1.24700E-4
20449.218750; 1.16614E-4
20455.078125; 1.00990E-4
20460.937500; 9.34863E-5
20466.796875; 9.02990E-5
20472.656250; 1.02766E-4
20478.515625; 1.04014E-4
20484.375000; 1.03688E-4
20490.234375; 1.07554E-4
20496.093750; 9.42473E-5
20501.953125; 1.08812E-4
20507.812500; 8.93094E-5
20513.671875; 8.22715E-5
20519.531250; 9.82595E-5
20525.390625; 1.10644E-4
20531.250000; 1.08498E-4
20537.109375; 1.00973E-4
20542.968750; 9.44416E-5
20548.828125; 1.12061E-4
20554.687500; 1.12850E-4
20560.546875; 1.09160E-4
20566.406250; 1.11151E-4
20572.265625; 1.18061E-4
20578.125000; 1.04061E-4
20583.984375; 8.97277E-5
20589.843750; 1.02935E-4
20595.703125; 1.12487E-4
20601.562500; 1.05265E-4
20607.421875; 9.87970E-5
20613.281250; 9.05588E-5
20619.140625; 9.29565E-5
20625.000000; 9.18573E-5
20630.859375; 9.24890E-5
20636.718750; 9.19365E-5
20642.578125; 9.23229E-5
20648.437500; 1.11621E-4
20654.296875; 1.16780E-4
20660.156250; 1.19859E-4
20666.015625; 1.08632E-4
20671.875000; 1.06300E-4
20677.734375; 1.16869E-4
20683.593750; 1.09272E-4
20689.453125; 1.07647E-4
20695.312500; 9.51345E-5
20701.171875; 9.48100E-5
20707.031250; 9.92627E-5
20712.890625; 1.04884E-4
20718.750000; 9.25622E-5
20724.609375; 1.00121E-4
20730.468750; 1.07321E-4
20736.328125; 1.16058E-4
20742.187500; 1.06282E-4
20748.046875; 9.48574E-5
20753.906250; 9.16524E-5
20759.765625; 9.91034E-5
20765.625000; 1.00540E-4
20771.484375; 1.04589E-4
20777.343750; 1.15469E-4
20783.203125; 1.04205E-4
20789.062500; 8.77039E-5
20794.921875; 9.54869E-5
20800.781250; 9.38929E-5
20806.640625; 9.71419E-5
20812.500000; 1.10538E-4
20818.359375; 1.02775E-4
20824.218750; 9.87901E-5
20830.078125; 9.42333E-5
20835.937500; 9.97956E-5
20841.796875; 1.10796E-4
20847.656250; 1.11771E-4
20853.515625; 1.10732E-4
20859.375000; 9.95203E-5
20865.234375; 9.66818E-5
20871.093750; 1.00234E-4
20876.953125; 1.11263E-4
20882.812500; 1.02168E-4
20888.671875; 1.06089E-4
20894.531250; 1.07983E-4
20900.390625; 1.20160E-4
20906.250000; 1.10953E-4
20912.109375; 1.07159E-4
20917.968750; 1.17712E-4
20923.828125; 1.09197E-4
20929.687500; 1.01906E-4
20935.546875; 9.59657E-5
20941.406250; 9.83635E-5
20947.265625; 1.13292E-4
20953.125000; 1.04498E-4
20958.984375; 9.46413E-5
20964.843750; 9.79541E-5
20970.703125; 1.07433E-4
20976.562500; 9.47817E-5
20982.421875; 8.97414E-5
20988.281250; 9.42899E-5
20994.140625; 1.00557E-4
21000.000000; 1.02111E-4
21005.859375; 1.00828E-4
21011.718750; 1.06686E-4
21017.578125; 1.11608E-4
21023.437500; 1.03461E-4
21029.296875; 1.00953E-4
21035.156250; 1.02589E-4
21041.015625; 1.04831E-4
21046.875000; 1.07506E-4
21052.734375; 1.00698E-4
21058.593750; 9.41606E-5
21064.453125; 9.24646E-5
21070.312500; 1.07435E-4
21076.171875; 1.13106E-4
21082.031250; 1.09087E-4
21087.890625; 1.03278E-4
21093.750000; 9.92083E-5
21099.609375; 1.13733E-4
21105.468750; 1.26893E-4
21111.328125; 1.28747E-4
21117.187500; 1.14429E-4
21123.046875; 1.01952E-4
21128.906250; 9.29598E-5
21134.765625; 9.72174E-5
21140.625000; 1.11742E-4
21146.484375; 1.04479E-4
21152.343750; 1.03445E-4
21158.203125; 9.26729E-5
21164.062500; 9.25625E-5
21169.921875; 9.33307E-5
21175.781250; 1.10194E-4
21181.640625; 1.31067E-4
21187.500000; 1.27537E-4
21193.359375; 1.03780E-4
21199.218750; 1.07579E-4
21205.078125; 1.11282E-4
21210.937500; 1.17777E-4
21216.796875; 1.13349E-4
21222.656250; 1.15982E-4
21228.515625; 1.00757E-4
21234.375000; 9.91490E-5
21240.234375; 9.88461E-5
21246.093750; 1.00590E-4
21251.953125; 1.02968E-4
21257.812500; 9.05309E-5
21263.671875; 1.01647E-4
21269.531250; 1.18008E-4
21275.390625; 1.09727E-4
21281.250000; 1.00480E-4
21287.109375; 8.97820E-5
21292.968750; 1.03635E-4
21298.828125; 1.19568E-4
21304.687500; 1.09710E-4
21310.546875; 1.02053E-4
21316.406250; 1.00005E-4
21322.265625; 1.00676E-4
21328.125000; 1.06608E-4
21333.984375; 1.17407E-4
21339.843750; 1.08124E-4
21345.703125; 9.74531E-5
21351.562500; 8.48551E-5
21357.421875; 9.97437E-5
21363.281250; 1.04530E-4
21369.140625; 1.00016E-4
21375.000000; 1.04140E-4
21380.859375; 1.10354E-4
21386.718750; 1.13900E-4
21392.578125; 9.98820E-5
21398.437500; 9.43217E-5
21404.296875; 9.97830E-5
21410.156250; 1.10013E-4
21416.015625; 1.00930E-4
21421.875000; 8.75778E-5
21427.734375; 9.96790E-5
21433.593750; 1.10110E-4
21439.453125; 1.19874E-4
21445.312500; 1.10019E-4
21451.171875; 1.01418E-4
21457.031250; 1.08634E-4
21462.890625; 1.10987E-4
21468.750000; 1.07097E-4
21474.609375; 1.19612E-4
21480.468750; 1.12628E-4
21486.328125; 1.19223E-4
21492.187500; 1.05473E-4
21498.046875; 1.03463E-4
21503.906250; 1.05084E-4
21509.765625; 1.08596E-4
21515.625000; 1.09801E-4
21521.484375; 1.12911E-4
21527.343750; 1.12219E-4
21533.203125; 1.04235E-4
21539.062500; 9.45061E-5
21544.921875; 1.02384E-4
21550.781250; 1.08502E-4
21556.640625; 1.11711E-4
21562.500000; 1.02170E-4
21568.359375; 9.09637E-5
21574.218750; 1.03487E-4
21580.078125; 1.11950E-4
21585.937500; 1.10245E-4
21591.796875; 9.95058E-5
21597.656250; 9.48111E-5
21603.515625; 1.03024E-4
21609.375000; 1.04258E-4
21615.234375; 1.07218E-4
21621.093750; 1.08160E-4
21626.953125; 1.09097E-4
21632.812500; 1.01711E-4
21638.671875; 9.38304E-5
21644.531250; 9.13103E-5
21650.390625; 1.02616E-4
21656.250000; 1.00887E-4
21662.109375; 8.63850E-5
21667.968750; 9.12079E-5
21673.828125; 9.21905E-5
21679.687500; 9.70548E-5
21685.546875; 1.08676E-4
21691.406250; 1.05941E-4
21697.265625; 9.90104E-5
21703.125000; 9.71520E-5
21708.984375; 1.09041E-4
21714.843750; 1.02969E-4
21720.703125; 1.09141E-4
21726.562500; 1.15614E-4
21732.421875; 1.15486E-4
21738.281250; 1.13635E-4
21744.140625; 1.09155E-4
21750.000000; 1.04318E-4
21755.859375; 9.13842E-5
21761.718750; 1.03785E-4
21767.578125; 1.05077E-4
21773.437500; 1.01742E-4
21779.296875; 1.02227E-4
21785.156250; 1.02814E-4
21791.015625; 1.20376E-4
21796.875000; 1.20910E-4
21802.734375; 1.13852E-4
21808.593750; 1.13998E-4
21814.453125; 1.09847E-4
21820.312500; 1.11923E-4
21826.171875; 1.11814E-4
21832.031250; 9.40436E-5
21837.890625; 8.36333E-5
21843.750000; 7.91035E-5
21849.609375; 9.49907E-5
21855.468750; 1.14049E-4
21861.328125; 1.04901E-4
21867.187500; 1.14300E-4
21873.046875; 1.11956E-4
21878.906250; 9.96853E-5
21884.765625; 1.02717E-4
21890.625000; 1.07646E-4
21896.484375; 1.08849E-4
21902.343750; 9.54187E-5
21908.203125; 9.55921E-5
21914.062500; 1.00308E-4
21919.921875; 1.04118E-4
21925.781250; 1.07169E-4
21931.640625; 1.06103E-4
21937.500000; 9.63253E-5
21943.359375; 1.02248E-4
21949.218750; 9.16246E-5
21955.078125; 1.01472E-4
21960.937500; 1.06416E-4
21966.796875; 9.71809E-5
21972.656250; 9.34011E-5
21978.515625; 1.09573E-4
21984.375000; 1.07654E-4
21990.234375; 1.13110E-4
21996.093750; 9.64168E-5
22001.953125; 1.06942E-4
22007.812500; 9.57300E-5
22013.671875; 9.83641E-5
22019.531250; 1.00735E-4
22025.390625; 9.20012E-5
22031.250000; 9.93150E-5
22037.109375; 1.01894E-4
22042.968750; 9.31082E-5
22048.828125; 8.25973E-5
22054.687500; 9.13128E-5
22060.546875; 9.72666E-5
22066.406250; 1.00086E-4
22072.265625; 1.12852E-4
22078.125000; 1.10944E-4
22083.984375; 1.04661E-4
22089.843750; 1.03448E-4
22095.703125; 1.05916E-4
22101.562500; 1.16135E-4
22107.421875; 1.14871E-4
22113.281250; 1.04998E-4
22119.140625; 1.14075E-4
22125.000000; 1.00549E-4
22130.859375; 9.88717E-5
22136.718750; 9.87042E-5
22142.578125; 9.53530E-5
22148.437500; 9.15992E-5
22154.296875; 1.00682E-4
22160.156250; 1.08896E-4
22166.015625; 1.09491E-4
22171.875000; 9.08150E-5
22177.734375; 9.78298E-5
22183.593750; 1.15815E-4
22189.453125; 9.88190E-5
22195.312500; 8.53343E-5
22201.171875; 8.58548E-5
22207.031250; 1.02242E-4
22212.890625; 1.04007E-4
22218.750000; 9.80560E-5
22224.609375; 1.02268E-4
22230.468750; 1.10055E-4
22236.328125; 1.00333E-4
22242.187500; 1.02575E-4
22248.046875; 1.04053E-4
22253.906250; 9.66672E-5
22259.765625; 9.25459E-5
22265.625000; 1.01327E-4
22271.484375; 1.09877E-4
22277.343750; 1.09532E-4
22283.203125; 1.01092E-4
22289.062500; 1.01356E-4
22294.921875; 1.01797E-4
22300.781250; 9.73096E-5
22306.640625; 1.06634E-4
22312.500000; 9.63359E-5
22318.359375; 9.25784E-5
22324.218750; 9.96228E-5
22330.078125; 1.05973E-4
22335.937500; 9.95860E-5
22341.796875; 9.10442E-5
22347.656250; 9.71638E-5
22353.515625; 9.87561E-5
22359.375000; 1.07472E-4
22365.234375; 9.48394E-5
22371.093750; 8.71890E-5
22376.953125; 9.53558E-5
22382.812500; 1.02004E-4
22388.671875; 1.05196E-4
22394.531250; 1.04987E-4
22400.390625; 9.98275E-5
22406.250000; 1.03893E-4
22412.109375; 9.83465E-5
22417.968750; 8.98788E-5
22423.828125; 7.68770E-5
22429.687500; 1.04703E-4
22435.546875; 9.62265E-5
22441.406250; 9.05667E-5
22447.265625; 1.01762E-4
22453.125000; 1.08130E-4
22458.984375; 1.02792E-4
22464.843750; 8.93166E-5
22470.703125; 9.40442E-5
22476.562500; 9.85110E-5
22482.421875; 9.27427E-5
22488.281250; 1.04544E-4
22494.140625; 1.04298E-4
22500.000000; 1.03332E-4
22505.859375; 1.04261E-4
22511.718750; 9.43697E-5
22517.578125; 9.58777E-5
22523.437500; 1.05942E-4
22529.296875; 9.76755E-5
22535.156250; 9.59005E-5
22541.015625; 9.80498E-5
22546.875000; 9.61077E-5
22552.734375; 1.00969E-4
22558.593750; 1.04458E-4
22564.453125; 1.09642E-4
22570.312500; 9.96754E-5
22576.171875; 9.89284E-5
22582.031250; 1.01220E-4
22587.890625; 9.39225E-5
22593.750000; 8.62698E-5
22599.609375; 1.03644E-4
22605.468750; 9.83755E-5
22611.328125; 8.91256E-5
22617.187500; 8.78719E-5
22623.046875; 1.01156E-4
22628.906250; 1.02378E-4
22634.765625; 1.14430E-4
22640.625000; 1.09746E-4
22646.484375; 9.65265E-5
22652.343750; 1.00487E-4
22658.203125; 9.43440E-5
22664.062500; 9.41357E-5
22669.921875; 8.95649E-5
22675.781250; 9.16427E-5
22681.640625; 9.68233E-5
22687.500000; 9.39595E-5
22693.359375; 9.40924E-5
22699.218750; 9.57896E-5
22705.078125; 9.98198E-5
22710.937500; 9.44540E-5
22716.796875; 1.02800E-4
22722.656250; 9.53099E-5
22728.515625; 8.96802E-5
22734.375000; 9.39558E-5
22740.234375; 9.76298E-5
22746.093750; 9.63700E-5
22751.953125; 9.01377E-5
22757.812500; 8.22543E-5
22763.671875; 9.44965E-5
22769.531250; 9.43362E-5
22775.390625; 8.31874E-5
22781.250000; 7.80017E-5
22787.109375; 8.54050E-5
22792.968750; 1.00280E-4
22798.828125; 9.08193E-5
22804.687500; 8.71016E-5
22810.546875; 8.34208E-5
22816.406250; 8.60404E-5
22822.265625; 8.09323E-5
22828.125000; 7.83609E-5
22833.984375; 8.05966E-5
22839.843750; 8.11655E-5
22845.703125; 9.14790E-5
22851.562500; 8.64150E-5
22857.421875; 8.67554E-5
22863.281250; 8.65225E-5
22869.140625; 1.00984E-4
22875.000000; 8.90028E-5
22880.859375; 8.56527E-5
22886.718750; 7.53796E-5
22892.578125; 7.75225E-5
22898.437500; 8.37373E-5
22904.296875; 9.00285E-5
22910.156250; 8.98477E-5
22916.015625; 8.89278E-5
22921.875000; 8.82504E-5
22927.734375; 8.66373E-5
22933.593750; 7.77993E-5
22939.453125; 7.48557E-5
22945.312500; 8.03906E-5
22951.171875; 8.77311E-5
22957.031250; 9.37008E-5
22962.890625; 9.03914E-5
22968.750000; 8.29387E-5
22974.609375; 7.51086E-5
22980.468750; 7.84411E-5
22986.328125; 8.39205E-5
22992.187500; 8.29376E-5
22998.046875; 7.17348E-5
23003.906250; 7.80309E-5
23009.765625; 8.89474E-5
23015.625000; 8.61144E-5
23021.484375; 7.49045E-5
23027.343750; 6.64667E-5
23033.203125; 8.03880E-5
23039.062500; 8.00753E-5
23044.921875; 7.75562E-5
23050.781250; 8.28640E-5
23056.640625; 8.37108E-5
23062.500000; 8.89530E-5
23068.359375; 8.34877E-5
23074.218750; 8.47946E-5
23080.078125; 8.02184E-5
23085.937500; 6.56568E-5
23091.796875; 6.22400E-5
23097.656250; 6.87196E-5
23103.515625; 7.80584E-5
23109.375000; 7.33042E-5
23115.234375; 6.88510E-5
23121.093750; 6.98487E-5
23126.953125; 7.48263E-5
23132.812500; 7.10168E-5
23138.671875; 6.63378E-5
23144.531250; 6.88637E-5
23150.390625; 6.41696E-5
23156.250000; 6.57072E-5
23162.109375; 6.75927E-5
23167.968750; 6.61177E-5
23173.828125; 6.97580E-5
23179.687500; 6.08791E-5
23185.546875; 5.81522E-5
23191.406250; 6.38087E-5
23197.265625; 6.53351E-5
23203.125000; 6.16005E-5
23208.984375; 6.93490E-5
23214.843750; 7.30993E-5
23220.703125; 7.22500E-5
23226.562500; 6.88120E-5
23232.421875; 6.25412E-5
23238.281250; 6.00905E-5
23244.140625; 6.26152E-5
23250.000000; 7.22759E-5
23255.859375; 7.35213E-5
23261.718750; 7.16021E-5
23267.578125; 6.58758E-5
23273.437500; 6.19282E-5
23279.296875; 6.18055E-5
23285.156250; 6.14744E-5
23291.015625; 5.68337E-5
23296.875000; 6.08781E-5
23302.734375; 6.17328E-5
23308.593750; 6.86464E-5
23314.453125; 6.91564E-5
23320.312500; 6.16680E-5
23326.171875; 5.75017E-5
23332.031250; 6.62346E-5
23337.890625; 6.55754E-5
23343.750000; 5.48202E-5
23349.609375; 6.05771E-5
23355.468750; 5.84061E-5
23361.328125; 6.00563E-5
23367.187500; 5.56238E-5
23373.046875; 5.62712E-5
23378.906250; 5.86145E-5
23384.765625; 6.83235E-5
23390.625000; 5.60742E-5
23396.484375; 5.07384E-5
23402.343750; 5.41963E-5
23408.203125; 6.28247E-5
23414.062500; 5.94275E-5
23419.921875; 5.78706E-5
23425.781250; 5.77453E-5
23431.640625; 5.40534E-5
23437.500000; 5.76343E-5
23443.359375; 5.24640E-5
23449.218750; 5.40106E-5
23455.078125; 4.85824E-5
23460.937500; 5.22414E-5
23466.796875; 5.78937E-5
23472.656250; 5.93256E-5
23478.515625; 6.00787E-5
23484.375000; 5.35606E-5
23490.234375; 6.28998E-5
23496.093750; 6.05705E-5
23501.953125; 5.30479E-5
23507.812500; 5.52415E-5
23513.671875; 4.94688E-5
23519.531250; 4.69563E-5
23525.390625; 4.91565E-5
23531.250000; 4.54152E-5
23537.109375; 5.01867E-5
23542.968750; 5.90708E-5
23548.828125; 6.16447E-5
23554.687500; 5.43576E-5
23560.546875; 5.09492E-5
23566.406250; 5.22611E-5
23572.265625; 4.62190E-5
23578.125000; 4.23186E-5
23583.984375; 4.37284E-5
23589.843750; 4.82550E-5
23595.703125; 5.06649E-5
23601.562500; 4.79304E-5
23607.421875; 4.97266E-5
23613.281250; 5.01731E-5
23619.140625; 4.61494E-5
23625.000000; 4.41750E-5
23630.859375; 4.84255E-5
23636.718750; 4.75820E-5
23642.578125; 4.53908E-5
23648.437500; 4.18891E-5
23654.296875; 4.74237E-5
23660.156250; 4.73197E-5
23666.015625; 4.33826E-5
23671.875000; 4.21271E-5
23677.734375; 4.31112E-5
23683.593750; 4.43880E-5
23689.453125; 4.37695E-5
23695.312500; 4.48167E-5
23701.171875; 4.68803E-5
23707.031250; 4.26613E-5
23712.890625; 3.75697E-5
23718.750000; 4.09213E-5
23724.609375; 4.10426E-5
23730.468750; 4.27032E-5
23736.328125; 4.33907E-5
23742.187500; 4.09355E-5
23748.046875; 4.10057E-5
23753.906250; 4.24966E-5
23759.765625; 4.45256E-5
23765.625000; 3.93123E-5
23771.484375; 3.78444E-5
23777.343750; 3.62839E-5
23783.203125; 3.83317E-5
23789.062500; 4.12135E-5
23794.921875; 4.03823E-5
23800.781250; 4.15673E-5
23806.640625; 4.10219E-5
23812.500000; 4.07651E-5
23818.359375; 3.76277E-5
23824.218750; 4.39592E-5
23830.078125; 4.24067E-5
23835.937500; 3.72065E-5
23841.796875; 4.24690E-5
23847.656250; 3.95978E-5
23853.515625; 4.09885E-5
23859.375000; 4.58558E-5
23865.234375; 4.51034E-5
23871.093750; 3.64711E-5
23876.953125; 3.74064E-5
23882.812500; 4.06551E-5
23888.671875; 3.98858E-5
23894.531250; 4.16864E-5
23900.390625; 3.52713E-5
23906.250000; 3.25251E-5
23912.109375; 3.32622E-5
23917.968750; 3.50422E-5
23923.828125; 4.26537E-5
23929.687500; 4.53557E-5
23935.546875; 4.29796E-5
23941.406250; 3.72695E-5
23947.265625; 3.83807E-5
23953.125000; 3.92655E-5
23958.984375; 3.89567E-5
23964.843750; 4.07662E-5
23970.703125; 3.39208E-5
23976.562500; 3.45159E-5
23982.421875; 3.63260E-5
23988.281250; 4.02381E-5
23994.140625; 4.07981E-5
