* Measurement data measured by REW V5.31.3
* Source: PCM: default, no input selected, 2, volume: no control
* Format: 8192-point spectrum using Hann window and exponential averaging 0.97 
* Dated: Mar 9, 2025 1:00:30 PM
* REW Settings:
*  C-weighting compensation: Off
*  Target level: 75.0 dB
* Note: OSDEHA ANODE-OUTPUT; 8192-point spectrum using Hann window and exponential averaging 0.97  Input RMS 2.370 V 2.370 VC, 2.370 VA 2.370 V 22 - 22k UNW 871.0 uV >22k Distortion at 1,000.0 Hz, -32.51 dBFS: Gain: 29.34 dB THD: 0.020 % based on 21 harmonics  [0..22800 Hz] HHD: 0.015 %  [10 .. 22] N: 0.53 %  [0..22800 Hz] N+D: 4.169 mV A THD+N: 0.53 %  [0..22800 Hz] SNR: 45.6 dB ENOB: 13.2 bits 2nd harmonic 0.0049 % -92 deg 3rd harmonic 0.0048 % 179 deg 4th harmonic 0.0043 % -26 deg 5th harmonic 0.0047 % 66 deg 6th harmonic 0.0045 % 48 deg 7th harmonic 0.0042 % 97 deg 8th harmonic 0.0046 % 57 deg 9th harmonic 0.0042 % 171 deg 
* Measurement: OSDEHA A-OUT 2.37V
* Smoothing: None
* Frequency Step: 5.859375 Hz
* Start Frequency: 5.859375 Hz
*
* Freq(Hz); V(V)
5.859375; 2.83614E-4
11.718750; 2.36321E-4
17.578125; 1.95019E-4
23.437500; 1.61672E-4
29.296875; 1.51082E-4
35.156250; 1.62306E-4
41.015625; 1.55316E-4
46.875000; 3.81143E-4
52.734375; 3.99609E-4
58.593750; 1.55370E-4
64.453125; 1.28232E-4
70.312500; 1.24562E-4
76.171875; 1.32001E-4
82.031250; 1.30770E-4
87.890625; 1.75752E-4
93.750000; 5.04621E-3
99.609375; 1.12167E-2
105.468750; 6.20961E-3
111.328125; 1.88215E-4
117.187500; 1.34160E-4
123.046875; 1.28659E-4
128.906250; 1.27866E-4
134.765625; 1.24863E-4
140.625000; 1.23845E-4
146.484375; 1.45637E-4
152.343750; 1.55799E-4
158.203125; 1.20491E-4
164.062500; 1.18590E-4
169.921875; 1.14801E-4
175.781250; 1.16264E-4
181.640625; 1.27109E-4
187.500000; 1.25762E-4
193.359375; 6.24019E-4
199.218750; 1.51489E-3
205.078125; 9.37258E-4
210.937500; 1.26459E-4
216.796875; 1.15303E-4
222.656250; 1.08802E-4
228.515625; 1.22412E-4
234.375000; 1.12244E-4
240.234375; 1.03348E-4
246.093750; 1.31795E-4
251.953125; 1.43717E-4
257.812500; 1.15622E-4
263.671875; 1.11898E-4
269.531250; 1.11467E-4
275.390625; 1.10252E-4
281.250000; 1.06388E-4
287.109375; 1.11658E-4
292.968750; 1.27478E-4
298.828125; 2.29338E-4
304.687500; 1.76150E-4
310.546875; 9.75233E-5
316.406250; 1.04521E-4
322.265625; 1.06178E-4
328.125000; 1.11108E-4
333.984375; 1.06515E-4
339.843750; 1.03108E-4
345.703125; 1.39309E-4
351.562500; 1.64204E-4
357.421875; 1.16707E-4
363.281250; 1.12620E-4
369.140625; 1.08594E-4
375.000000; 1.05599E-4
380.859375; 1.06710E-4
386.718750; 1.16176E-4
392.578125; 1.79087E-4
398.437500; 4.61020E-4
404.296875; 3.45846E-4
410.156250; 1.03483E-4
416.015625; 1.06863E-4
421.875000; 1.15283E-4
427.734375; 1.11339E-4
433.593750; 1.09505E-4
439.453125; 1.08493E-4
445.312500; 1.39611E-4
451.171875; 1.59068E-4
457.031250; 1.19644E-4
462.890625; 1.11812E-4
468.750000; 1.20593E-4
474.609375; 1.11712E-4
480.468750; 1.00471E-4
486.328125; 1.12887E-4
492.187500; 1.46216E-4
498.046875; 3.05387E-4
503.906250; 2.54653E-4
509.765625; 1.15836E-4
515.625000; 1.09257E-4
521.484375; 1.01295E-4
527.343750; 1.09549E-4
533.203125; 1.02611E-4
539.062500; 9.98538E-5
544.921875; 1.06862E-4
550.781250; 1.08991E-4
556.640625; 9.37646E-5
562.500000; 9.72765E-5
568.359375; 9.77011E-5
574.218750; 1.05247E-4
580.078125; 1.00293E-4
585.937500; 1.02616E-4
591.796875; 1.18703E-4
597.656250; 1.12672E-4
603.515625; 1.01073E-4
609.375000; 9.87691E-5
615.234375; 9.34134E-5
621.093750; 1.05537E-4
626.953125; 1.06116E-4
632.812500; 1.05635E-4
638.671875; 1.07396E-4
644.531250; 1.06968E-4
650.390625; 1.04310E-4
656.250000; 1.06226E-4
662.109375; 1.04670E-4
667.968750; 9.89059E-5
673.828125; 1.02297E-4
679.687500; 1.12983E-4
685.546875; 1.12710E-4
691.406250; 1.23871E-4
697.265625; 2.21562E-4
703.125000; 2.23918E-4
708.984375; 1.21522E-4
714.843750; 1.10401E-4
720.703125; 1.24145E-4
726.562500; 1.13278E-4
732.421875; 1.10413E-4
738.281250; 1.05699E-4
744.140625; 1.08168E-4
750.000000; 1.33414E-4
755.859375; 1.11147E-4
761.718750; 1.10937E-4
767.578125; 1.18572E-4
773.437500; 1.13637E-4
779.296875; 1.02709E-4
785.156250; 1.10236E-4
791.015625; 1.16078E-4
796.875000; 1.54607E-4
802.734375; 1.63135E-4
808.593750; 1.17180E-4
814.453125; 1.12706E-4
820.312500; 1.04723E-4
826.171875; 1.01459E-4
832.031250; 1.13009E-4
837.890625; 1.14916E-4
843.750000; 1.27662E-4
849.609375; 1.36939E-4
855.468750; 1.27664E-4
861.328125; 1.03021E-4
867.187500; 1.26928E-4
873.046875; 1.11992E-4
878.906250; 1.28984E-4
884.765625; 1.39399E-4
890.625000; 1.46882E-4
896.484375; 2.08268E-4
902.343750; 1.94213E-4
908.203125; 2.05763E-4
914.062500; 2.20786E-4
919.921875; 2.98796E-4
925.781250; 3.20006E-4
931.640625; 4.32235E-4
937.500000; 5.55009E-4
943.359375; 7.50163E-4
949.218750; 1.00049E-3
955.078125; 1.49093E-3
960.937500; 2.26216E-3
966.796875; 3.69318E-3
972.656250; 6.75066E-3
978.515625; 1.43178E-2
984.375000; 4.00784E-2
990.234375; 2.20492E-1
996.093750; 1.76388E0
1001.953125; 2.20485E0
1007.812500; 6.29954E-1
1013.671875; 6.29919E-2
1019.531250; 1.93845E-2
1025.390625; 8.48842E-3
1031.250000; 4.46260E-3
1037.109375; 2.63571E-3
1042.968750; 1.68074E-3
1048.828125; 1.16449E-3
1054.687500; 8.12111E-4
1060.546875; 6.17283E-4
1066.406250; 4.55775E-4
1072.265625; 3.68717E-4
1078.125000; 2.95267E-4
1083.984375; 2.55805E-4
1089.843750; 2.08536E-4
1095.703125; 1.81344E-4
1101.562500; 1.66549E-4
1107.421875; 1.62729E-4
1113.281250; 1.25177E-4
1119.140625; 1.37500E-4
1125.000000; 1.18010E-4
1130.859375; 1.27350E-4
1136.718750; 1.22097E-4
1142.578125; 1.22457E-4
1148.437500; 1.10407E-4
1154.296875; 1.07639E-4
1160.156250; 9.90059E-5
1166.015625; 1.08226E-4
1171.875000; 1.04421E-4
1177.734375; 1.12938E-4
1183.593750; 1.12179E-4
1189.453125; 1.13965E-4
1195.312500; 1.12843E-4
1201.171875; 1.05444E-4
1207.031250; 1.03580E-4
1212.890625; 1.12131E-4
1218.750000; 1.12050E-4
1224.609375; 1.18191E-4
1230.468750; 1.06729E-4
1236.328125; 9.63524E-5
1242.187500; 1.15430E-4
1248.046875; 1.15925E-4
1253.906250; 1.20052E-4
1259.765625; 9.53872E-5
1265.625000; 9.64879E-5
1271.484375; 1.06624E-4
1277.343750; 1.01502E-4
1283.203125; 1.04559E-4
1289.062500; 1.02249E-4
1294.921875; 1.16763E-4
1300.781250; 1.21609E-4
1306.640625; 1.10905E-4
1312.500000; 9.67350E-5
1318.359375; 9.42297E-5
1324.218750; 9.33892E-5
1330.078125; 1.16162E-4
1335.937500; 1.15327E-4
1341.796875; 9.62365E-5
1347.656250; 1.12410E-4
1353.515625; 1.17527E-4
1359.375000; 1.05982E-4
1365.234375; 1.10589E-4
1371.093750; 1.04492E-4
1376.953125; 1.04476E-4
1382.812500; 1.06275E-4
1388.671875; 1.13106E-4
1394.531250; 1.15381E-4
1400.390625; 1.13572E-4
1406.250000; 1.15764E-4
1412.109375; 1.00211E-4
1417.968750; 9.40590E-5
1423.828125; 1.15528E-4
1429.687500; 1.16692E-4
1435.546875; 1.08297E-4
1441.406250; 1.06221E-4
1447.265625; 1.12111E-4
1453.125000; 1.03433E-4
1458.984375; 9.97286E-5
1464.843750; 1.00161E-4
1470.703125; 1.00450E-4
1476.562500; 1.10485E-4
1482.421875; 1.07067E-4
1488.281250; 1.09197E-4
1494.140625; 9.81509E-5
1500.000000; 1.15469E-4
1505.859375; 1.19138E-4
1511.718750; 1.14917E-4
1517.578125; 1.11290E-4
1523.437500; 1.09801E-4
1529.296875; 1.03708E-4
1535.156250; 1.09044E-4
1541.015625; 1.16964E-4
1546.875000; 1.23152E-4
1552.734375; 1.15664E-4
1558.593750; 1.04004E-4
1564.453125; 1.05944E-4
1570.312500; 1.07784E-4
1576.171875; 1.07546E-4
1582.031250; 1.11312E-4
1587.890625; 1.08145E-4
1593.750000; 1.11385E-4
1599.609375; 1.15102E-4
1605.468750; 1.02564E-4
1611.328125; 1.08586E-4
1617.187500; 1.16923E-4
1623.046875; 1.18169E-4
1628.906250; 1.11053E-4
1634.765625; 9.50658E-5
1640.625000; 1.01910E-4
1646.484375; 1.13753E-4
1652.343750; 1.15854E-4
1658.203125; 1.14513E-4
1664.062500; 1.06342E-4
1669.921875; 1.05270E-4
1675.781250; 1.07759E-4
1681.640625; 1.18970E-4
1687.500000; 1.23956E-4
1693.359375; 1.14185E-4
1699.218750; 1.12045E-4
1705.078125; 1.05427E-4
1710.937500; 1.09554E-4
1716.796875; 1.07917E-4
1722.656250; 1.09616E-4
1728.515625; 1.13733E-4
1734.375000; 1.14232E-4
1740.234375; 1.11756E-4
1746.093750; 1.03720E-4
1751.953125; 1.09879E-4
1757.812500; 1.01256E-4
1763.671875; 1.06092E-4
1769.531250; 1.08191E-4
1775.390625; 1.07528E-4
1781.250000; 1.12511E-4
1787.109375; 1.15853E-4
1792.968750; 1.19169E-4
1798.828125; 1.21455E-4
1804.687500; 1.19453E-4
1810.546875; 1.14797E-4
1816.406250; 1.17566E-4
1822.265625; 1.04628E-4
1828.125000; 1.00604E-4
1833.984375; 9.96374E-5
1839.843750; 9.14708E-5
1845.703125; 9.48138E-5
1851.562500; 1.11447E-4
1857.421875; 1.05617E-4
1863.281250; 1.05095E-4
1869.140625; 1.13220E-4
1875.000000; 1.10942E-4
1880.859375; 1.04597E-4
1886.718750; 1.10527E-4
1892.578125; 9.81566E-5
1898.437500; 1.04005E-4
1904.296875; 1.07093E-4
1910.156250; 9.73758E-5
1916.015625; 1.03670E-4
1921.875000; 1.09472E-4
1927.734375; 1.06314E-4
1933.593750; 1.04732E-4
1939.453125; 1.13986E-4
1945.312500; 1.21929E-4
1951.171875; 1.12120E-4
1957.031250; 1.08840E-4
1962.890625; 1.21302E-4
1968.750000; 1.25691E-4
1974.609375; 1.17583E-4
1980.468750; 1.05095E-4
1986.328125; 1.04005E-4
1992.187500; 1.17261E-4
1998.046875; 1.31550E-4
2003.906250; 1.17479E-4
2009.765625; 1.07060E-4
2015.625000; 1.01169E-4
2021.484375; 1.02977E-4
2027.343750; 1.13846E-4
2033.203125; 1.09084E-4
2039.062500; 1.03116E-4
2044.921875; 1.11194E-4
2050.781250; 1.08706E-4
2056.640625; 9.88730E-5
2062.500000; 1.01145E-4
2068.359375; 1.10838E-4
2074.218750; 1.01481E-4
2080.078125; 9.75064E-5
2085.937500; 1.06282E-4
2091.796875; 1.02111E-4
2097.656250; 1.00874E-4
2103.515625; 1.02133E-4
2109.375000; 1.06504E-4
2115.234375; 9.07202E-5
2121.093750; 1.04491E-4
2126.953125; 1.09912E-4
2132.812500; 1.03008E-4
2138.671875; 1.01968E-4
2144.531250; 1.16331E-4
2150.390625; 1.17941E-4
2156.250000; 1.12868E-4
2162.109375; 1.07480E-4
2167.968750; 1.09692E-4
2173.828125; 1.14845E-4
2179.687500; 1.23347E-4
2185.546875; 1.18480E-4
2191.406250; 1.16691E-4
2197.265625; 1.12141E-4
2203.125000; 1.04872E-4
2208.984375; 1.06280E-4
2214.843750; 9.47977E-5
2220.703125; 9.91357E-5
2226.562500; 1.05327E-4
2232.421875; 9.70181E-5
2238.281250; 1.08642E-4
2244.140625; 1.05995E-4
2250.000000; 1.02564E-4
2255.859375; 9.95749E-5
2261.718750; 1.06625E-4
2267.578125; 1.08746E-4
2273.437500; 1.07096E-4
2279.296875; 1.12956E-4
2285.156250; 1.04204E-4
2291.015625; 9.58817E-5
2296.875000; 1.01572E-4
2302.734375; 1.14594E-4
2308.593750; 1.03524E-4
2314.453125; 9.25385E-5
2320.312500; 1.11385E-4
2326.171875; 1.15726E-4
2332.031250; 1.16359E-4
2337.890625; 1.16054E-4
2343.750000; 1.09299E-4
2349.609375; 1.12610E-4
2355.468750; 1.04749E-4
2361.328125; 1.07515E-4
2367.187500; 1.09051E-4
2373.046875; 1.02357E-4
2378.906250; 1.05183E-4
2384.765625; 1.15844E-4
2390.625000; 1.08983E-4
2396.484375; 1.08552E-4
2402.343750; 1.10803E-4
2408.203125; 9.68640E-5
2414.062500; 1.07475E-4
2419.921875; 9.78187E-5
2425.781250; 9.82503E-5
2431.640625; 1.06255E-4
2437.500000; 1.00472E-4
2443.359375; 1.01090E-4
2449.218750; 1.07991E-4
2455.078125; 1.12793E-4
2460.937500; 1.13298E-4
2466.796875; 1.00840E-4
2472.656250; 9.78995E-5
2478.515625; 1.04392E-4
2484.375000; 1.12542E-4
2490.234375; 1.22402E-4
2496.093750; 1.21942E-4
2501.953125; 1.07657E-4
2507.812500; 1.06828E-4
2513.671875; 1.07299E-4
2519.531250; 1.05838E-4
2525.390625; 9.59874E-5
2531.250000; 1.01478E-4
2537.109375; 9.84984E-5
2542.968750; 1.00801E-4
2548.828125; 1.02371E-4
2554.687500; 1.16027E-4
2560.546875; 1.05030E-4
2566.406250; 1.00338E-4
2572.265625; 1.01797E-4
2578.125000; 1.05497E-4
2583.984375; 1.03806E-4
2589.843750; 1.01286E-4
2595.703125; 1.05753E-4
2601.562500; 1.10353E-4
2607.421875; 1.10820E-4
2613.281250; 1.06018E-4
2619.140625; 1.05863E-4
2625.000000; 1.12850E-4
2630.859375; 1.12015E-4
2636.718750; 1.09991E-4
2642.578125; 1.03082E-4
2648.437500; 1.02518E-4
2654.296875; 1.11136E-4
2660.156250; 1.02931E-4
2666.015625; 1.02666E-4
2671.875000; 9.84435E-5
2677.734375; 9.43699E-5
2683.593750; 1.06543E-4
2689.453125; 9.96692E-5
2695.312500; 1.01318E-4
2701.171875; 1.09982E-4
2707.031250; 1.19718E-4
2712.890625; 1.18325E-4
2718.750000; 1.10920E-4
2724.609375; 1.02015E-4
2730.468750; 1.06459E-4
2736.328125; 1.05841E-4
2742.187500; 1.02038E-4
2748.046875; 1.11740E-4
2753.906250; 1.07070E-4
2759.765625; 1.06388E-4
2765.625000; 1.14184E-4
2771.484375; 1.08350E-4
2777.343750; 1.07600E-4
2783.203125; 1.03353E-4
2789.062500; 1.08185E-4
2794.921875; 1.13650E-4
2800.781250; 1.02328E-4
2806.640625; 1.03176E-4
2812.500000; 1.09274E-4
2818.359375; 1.03575E-4
2824.218750; 1.00283E-4
2830.078125; 1.03185E-4
2835.937500; 9.82256E-5
2841.796875; 1.10140E-4
2847.656250; 1.12617E-4
2853.515625; 1.01611E-4
2859.375000; 1.10199E-4
2865.234375; 1.10151E-4
2871.093750; 1.06696E-4
2876.953125; 9.70045E-5
2882.812500; 1.05107E-4
2888.671875; 1.05557E-4
2894.531250; 1.04809E-4
2900.390625; 1.07641E-4
2906.250000; 1.00165E-4
2912.109375; 1.09494E-4
2917.968750; 1.17372E-4
2923.828125; 1.09438E-4
2929.687500; 1.01621E-4
2935.546875; 1.05266E-4
2941.406250; 1.05726E-4
2947.265625; 1.03553E-4
2953.125000; 1.13437E-4
2958.984375; 1.10965E-4
2964.843750; 1.07123E-4
2970.703125; 1.07595E-4
2976.562500; 1.15700E-4
2982.421875; 1.13126E-4
2988.281250; 1.11318E-4
2994.140625; 1.16483E-4
3000.000000; 1.25855E-4
3005.859375; 1.11678E-4
3011.718750; 9.60578E-5
3017.578125; 9.96612E-5
3023.437500; 1.07977E-4
3029.296875; 1.04380E-4
3035.156250; 1.05428E-4
3041.015625; 1.08046E-4
3046.875000; 1.10524E-4
3052.734375; 1.03886E-4
3058.593750; 1.01797E-4
3064.453125; 1.10721E-4
3070.312500; 1.12260E-4
3076.171875; 1.01791E-4
3082.031250; 9.56834E-5
3087.890625; 1.12842E-4
3093.750000; 1.09628E-4
3099.609375; 9.76013E-5
3105.468750; 9.13505E-5
3111.328125; 8.83761E-5
3117.187500; 1.02184E-4
3123.046875; 1.08366E-4
3128.906250; 1.11015E-4
3134.765625; 1.08498E-4
3140.625000; 1.09345E-4
3146.484375; 1.06038E-4
3152.343750; 1.08689E-4
3158.203125; 1.10584E-4
3164.062500; 1.03104E-4
3169.921875; 1.06660E-4
3175.781250; 1.00640E-4
3181.640625; 1.07080E-4
3187.500000; 1.08502E-4
3193.359375; 1.11028E-4
3199.218750; 1.15037E-4
3205.078125; 1.17751E-4
3210.937500; 1.15252E-4
3216.796875; 1.13441E-4
3222.656250; 1.00061E-4
3228.515625; 9.59137E-5
3234.375000; 1.00398E-4
3240.234375; 1.06250E-4
3246.093750; 9.77391E-5
3251.953125; 1.00533E-4
3257.812500; 9.90908E-5
3263.671875; 9.96449E-5
3269.531250; 1.03669E-4
3275.390625; 1.05298E-4
3281.250000; 1.08126E-4
3287.109375; 1.05080E-4
3292.968750; 1.00912E-4
3298.828125; 9.94082E-5
3304.687500; 1.03218E-4
3310.546875; 1.10440E-4
3316.406250; 1.07864E-4
3322.265625; 1.15447E-4
3328.125000; 1.08171E-4
3333.984375; 1.03738E-4
3339.843750; 9.83109E-5
3345.703125; 1.01882E-4
3351.562500; 9.54744E-5
3357.421875; 1.04630E-4
3363.281250; 1.05362E-4
3369.140625; 1.04544E-4
3375.000000; 1.04580E-4
3380.859375; 1.07826E-4
3386.718750; 1.10692E-4
3392.578125; 1.13061E-4
3398.437500; 1.09927E-4
3404.296875; 1.01500E-4
3410.156250; 9.99355E-5
3416.015625; 9.37928E-5
3421.875000; 1.01990E-4
3427.734375; 1.10071E-4
3433.593750; 1.15204E-4
3439.453125; 1.10925E-4
3445.312500; 1.04667E-4
3451.171875; 1.08351E-4
3457.031250; 1.01917E-4
3462.890625; 1.03239E-4
3468.750000; 1.01744E-4
3474.609375; 1.00117E-4
3480.468750; 1.05408E-4
3486.328125; 9.87336E-5
3492.187500; 9.71862E-5
3498.046875; 1.02880E-4
3503.906250; 1.06379E-4
3509.765625; 1.06321E-4
3515.625000; 1.15739E-4
3521.484375; 1.16659E-4
3527.343750; 1.03520E-4
3533.203125; 1.03542E-4
3539.062500; 1.05855E-4
3544.921875; 1.14239E-4
3550.781250; 1.09531E-4
3556.640625; 1.10931E-4
3562.500000; 1.17873E-4
3568.359375; 1.08431E-4
3574.218750; 1.09895E-4
3580.078125; 1.06413E-4
3585.937500; 1.02697E-4
3591.796875; 1.09647E-4
3597.656250; 1.18215E-4
3603.515625; 1.16441E-4
3609.375000; 1.10856E-4
3615.234375; 1.09664E-4
3621.093750; 1.04721E-4
3626.953125; 1.06737E-4
3632.812500; 1.05773E-4
3638.671875; 9.61245E-5
3644.531250; 1.08389E-4
3650.390625; 1.10728E-4
3656.250000; 1.08879E-4
3662.109375; 1.06145E-4
3667.968750; 9.22411E-5
3673.828125; 9.78109E-5
3679.687500; 9.13177E-5
3685.546875; 9.46824E-5
3691.406250; 1.01495E-4
3697.265625; 9.92420E-5
3703.125000; 1.00362E-4
3708.984375; 1.01218E-4
3714.843750; 9.86249E-5
3720.703125; 1.00053E-4
3726.562500; 1.05000E-4
3732.421875; 1.08780E-4
3738.281250; 9.74957E-5
3744.140625; 1.07702E-4
3750.000000; 1.03740E-4
3755.859375; 9.49718E-5
3761.718750; 1.06180E-4
3767.578125; 1.08224E-4
3773.437500; 1.04236E-4
3779.296875; 9.88327E-5
3785.156250; 1.11500E-4
3791.015625; 1.10673E-4
3796.875000; 1.01314E-4
3802.734375; 9.99075E-5
3808.593750; 1.05789E-4
3814.453125; 1.06709E-4
3820.312500; 1.08270E-4
3826.171875; 9.88115E-5
3832.031250; 9.54925E-5
3837.890625; 9.94591E-5
3843.750000; 9.80620E-5
3849.609375; 1.07369E-4
3855.468750; 1.09851E-4
3861.328125; 1.24780E-4
3867.187500; 1.14674E-4
3873.046875; 1.05242E-4
3878.906250; 1.11786E-4
3884.765625; 1.00465E-4
3890.625000; 9.49041E-5
3896.484375; 9.72652E-5
3902.343750; 1.14973E-4
3908.203125; 1.05520E-4
3914.062500; 1.05165E-4
3919.921875; 1.08556E-4
3925.781250; 1.13239E-4
3931.640625; 1.01299E-4
3937.500000; 9.93579E-5
3943.359375; 1.03157E-4
3949.218750; 1.12119E-4
3955.078125; 1.19985E-4
3960.937500; 1.16961E-4
3966.796875; 1.04127E-4
3972.656250; 1.03055E-4
3978.515625; 1.14224E-4
3984.375000; 1.16739E-4
3990.234375; 9.63769E-5
3996.093750; 9.19615E-5
4001.953125; 1.01777E-4
4007.812500; 1.03133E-4
4013.671875; 9.74868E-5
4019.531250; 1.07124E-4
4025.390625; 1.04105E-4
4031.250000; 1.06937E-4
4037.109375; 1.08653E-4
4042.968750; 9.72245E-5
4048.828125; 1.00575E-4
4054.687500; 1.06726E-4
4060.546875; 1.13727E-4
4066.406250; 1.03931E-4
4072.265625; 1.00722E-4
4078.125000; 9.19932E-5
4083.984375; 9.25633E-5
4089.843750; 1.01494E-4
4095.703125; 1.08581E-4
4101.562500; 1.06787E-4
4107.421875; 9.88308E-5
4113.281250; 9.37829E-5
4119.140625; 9.85956E-5
4125.000000; 1.09995E-4
4130.859375; 1.13845E-4
4136.718750; 1.03206E-4
4142.578125; 9.17369E-5
4148.437500; 9.90055E-5
4154.296875; 1.02295E-4
4160.156250; 1.06930E-4
4166.015625; 1.01498E-4
4171.875000; 9.76295E-5
4177.734375; 1.04790E-4
4183.593750; 1.04492E-4
4189.453125; 1.04322E-4
4195.312500; 1.08135E-4
4201.171875; 1.02933E-4
4207.031250; 1.13285E-4
4212.890625; 9.90738E-5
4218.750000; 9.12583E-5
4224.609375; 9.27622E-5
4230.468750; 9.48994E-5
4236.328125; 9.91197E-5
4242.187500; 1.12221E-4
4248.046875; 1.13514E-4
4253.906250; 1.07593E-4
4259.765625; 1.09092E-4
4265.625000; 1.07655E-4
4271.484375; 1.14637E-4
4277.343750; 1.07929E-4
4283.203125; 1.04918E-4
4289.062500; 9.93095E-5
4294.921875; 1.09613E-4
4300.781250; 1.10564E-4
4306.640625; 1.04254E-4
4312.500000; 1.06756E-4
4318.359375; 1.05568E-4
4324.218750; 1.06006E-4
4330.078125; 1.05456E-4
4335.937500; 1.05396E-4
4341.796875; 1.01998E-4
4347.656250; 1.11122E-4
4353.515625; 1.07181E-4
4359.375000; 9.56221E-5
4365.234375; 1.01179E-4
4371.093750; 1.08903E-4
4376.953125; 1.02543E-4
4382.812500; 9.59444E-5
4388.671875; 9.75236E-5
4394.531250; 1.03328E-4
4400.390625; 1.11062E-4
4406.250000; 1.20277E-4
4412.109375; 1.17911E-4
4417.968750; 1.03078E-4
4423.828125; 9.64747E-5
4429.687500; 1.00968E-4
4435.546875; 1.08739E-4
4441.406250; 9.99845E-5
4447.265625; 9.61181E-5
4453.125000; 9.95948E-5
4458.984375; 1.00818E-4
4464.843750; 1.03727E-4
4470.703125; 1.04795E-4
4476.562500; 9.96586E-5
4482.421875; 1.09664E-4
4488.281250; 1.05368E-4
4494.140625; 1.03022E-4
4500.000000; 1.07855E-4
4505.859375; 1.14881E-4
4511.718750; 1.08884E-4
4517.578125; 1.08003E-4
4523.437500; 1.18100E-4
4529.296875; 1.18150E-4
4535.156250; 1.12908E-4
4541.015625; 1.05415E-4
4546.875000; 9.65233E-5
4552.734375; 1.04487E-4
4558.593750; 1.09702E-4
4564.453125; 9.97992E-5
4570.312500; 9.76831E-5
4576.171875; 1.07296E-4
4582.031250; 1.03496E-4
4587.890625; 1.00895E-4
4593.750000; 1.05499E-4
4599.609375; 1.16701E-4
4605.468750; 1.18310E-4
4611.328125; 9.67292E-5
4617.187500; 9.52423E-5
4623.046875; 9.90173E-5
4628.906250; 1.03546E-4
4634.765625; 9.07324E-5
4640.625000; 9.65208E-5
4646.484375; 1.06272E-4
4652.343750; 1.06023E-4
4658.203125; 8.95708E-5
4664.062500; 1.00190E-4
4669.921875; 9.49134E-5
4675.781250; 1.00805E-4
4681.640625; 1.03976E-4
4687.500000; 1.08885E-4
4693.359375; 1.04021E-4
4699.218750; 9.61690E-5
4705.078125; 1.06880E-4
4710.937500; 1.07344E-4
4716.796875; 9.81751E-5
4722.656250; 1.05012E-4
4728.515625; 1.02247E-4
4734.375000; 1.04906E-4
4740.234375; 1.01086E-4
4746.093750; 1.01785E-4
4751.953125; 1.07972E-4
4757.812500; 1.10911E-4
4763.671875; 1.06920E-4
4769.531250; 1.04532E-4
4775.390625; 1.02701E-4
4781.250000; 9.38426E-5
4787.109375; 9.36260E-5
4792.968750; 1.08327E-4
4798.828125; 1.02838E-4
4804.687500; 9.79235E-5
4810.546875; 9.60274E-5
4816.406250; 9.81716E-5
4822.265625; 9.94451E-5
4828.125000; 1.05782E-4
4833.984375; 9.91746E-5
4839.843750; 9.85947E-5
4845.703125; 1.11035E-4
4851.562500; 1.11275E-4
4857.421875; 1.07196E-4
4863.281250; 9.67848E-5
4869.140625; 9.94775E-5
4875.000000; 1.07484E-4
4880.859375; 1.13220E-4
4886.718750; 1.04261E-4
4892.578125; 9.98228E-5
4898.437500; 9.54281E-5
4904.296875; 1.05160E-4
4910.156250; 9.59903E-5
4916.015625; 9.42239E-5
4921.875000; 9.81099E-5
4927.734375; 9.53305E-5
4933.593750; 1.02840E-4
4939.453125; 1.02409E-4
4945.312500; 9.57596E-5
4951.171875; 9.26896E-5
4957.031250; 9.71710E-5
4962.890625; 1.04020E-4
4968.750000; 9.93605E-5
4974.609375; 1.00647E-4
4980.468750; 9.84782E-5
4986.328125; 1.06631E-4
4992.187500; 1.15577E-4
4998.046875; 1.10439E-4
5003.906250; 1.12148E-4
5009.765625; 1.14772E-4
5015.625000; 1.12409E-4
5021.484375; 1.13453E-4
5027.343750; 1.08845E-4
5033.203125; 1.00336E-4
5039.062500; 9.93455E-5
5044.921875; 1.07635E-4
5050.781250; 1.15430E-4
5056.640625; 1.06410E-4
5062.500000; 9.95470E-5
5068.359375; 9.79035E-5
5074.218750; 9.14513E-5
5080.078125; 9.05721E-5
5085.937500; 1.02132E-4
5091.796875; 1.00421E-4
5097.656250; 9.65564E-5
5103.515625; 1.00130E-4
5109.375000; 9.75821E-5
5115.234375; 9.45594E-5
5121.093750; 9.92066E-5
5126.953125; 1.03834E-4
5132.812500; 1.02603E-4
5138.671875; 9.79412E-5
5144.531250; 1.12567E-4
5150.390625; 1.08127E-4
5156.250000; 1.02050E-4
5162.109375; 1.07840E-4
5167.968750; 9.87203E-5
5173.828125; 1.00887E-4
5179.687500; 9.93877E-5
5185.546875; 9.06779E-5
5191.406250; 9.17614E-5
5197.265625; 1.01344E-4
5203.125000; 1.05665E-4
5208.984375; 1.10906E-4
5214.843750; 1.18083E-4
5220.703125; 1.10588E-4
5226.562500; 1.09171E-4
5232.421875; 1.16490E-4
5238.281250; 1.19255E-4
5244.140625; 1.10800E-4
5250.000000; 1.05827E-4
5255.859375; 9.42816E-5
5261.718750; 1.06219E-4
5267.578125; 1.10561E-4
5273.437500; 1.20150E-4
5279.296875; 1.09598E-4
5285.156250; 1.04575E-4
5291.015625; 1.01197E-4
5296.875000; 9.72977E-5
5302.734375; 1.01208E-4
5308.593750; 1.06538E-4
5314.453125; 1.11663E-4
5320.312500; 1.12082E-4
5326.171875; 1.03424E-4
5332.031250; 9.75137E-5
5337.890625; 1.04224E-4
5343.750000; 1.04991E-4
5349.609375; 8.85903E-5
5355.468750; 1.04197E-4
5361.328125; 1.10699E-4
5367.187500; 1.04737E-4
5373.046875; 9.17505E-5
5378.906250; 9.78725E-5
5384.765625; 9.94998E-5
5390.625000; 1.03179E-4
5396.484375; 1.06204E-4
5402.343750; 1.03936E-4
5408.203125; 9.86085E-5
5414.062500; 1.02873E-4
5419.921875; 1.05141E-4
5425.781250; 1.06802E-4
5431.640625; 1.00119E-4
5437.500000; 9.88254E-5
5443.359375; 1.03394E-4
5449.218750; 1.11008E-4
5455.078125; 1.16083E-4
5460.937500; 1.07202E-4
5466.796875; 1.05294E-4
5472.656250; 9.42088E-5
5478.515625; 1.01684E-4
5484.375000; 1.13679E-4
5490.234375; 1.18862E-4
5496.093750; 1.04918E-4
5501.953125; 1.01739E-4
5507.812500; 1.00189E-4
5513.671875; 9.46050E-5
5519.531250; 9.59907E-5
5525.390625; 1.06823E-4
5531.250000; 9.75027E-5
5537.109375; 9.34418E-5
5542.968750; 1.00942E-4
5548.828125; 1.04328E-4
5554.687500; 1.16298E-4
5560.546875; 1.16741E-4
5566.406250; 1.04677E-4
5572.265625; 9.58275E-5
5578.125000; 1.02903E-4
5583.984375; 9.54833E-5
5589.843750; 1.00745E-4
5595.703125; 1.04553E-4
5601.562500; 1.07718E-4
5607.421875; 1.02282E-4
5613.281250; 1.05873E-4
5619.140625; 9.89229E-5
5625.000000; 9.70661E-5
5630.859375; 1.03882E-4
5636.718750; 1.02820E-4
5642.578125; 1.07071E-4
5648.437500; 1.03733E-4
5654.296875; 9.99370E-5
5660.156250; 1.03778E-4
5666.015625; 9.90710E-5
5671.875000; 1.02752E-4
5677.734375; 9.83833E-5
5683.593750; 9.47028E-5
5689.453125; 9.77634E-5
5695.312500; 1.04460E-4
5701.171875; 1.01085E-4
5707.031250; 1.03007E-4
5712.890625; 1.03242E-4
5718.750000; 1.01131E-4
5724.609375; 1.07023E-4
5730.468750; 1.11842E-4
5736.328125; 1.08380E-4
5742.187500; 9.88873E-5
5748.046875; 1.13623E-4
5753.906250; 1.12653E-4
5759.765625; 1.02997E-4
5765.625000; 9.96383E-5
5771.484375; 1.03799E-4
5777.343750; 9.95400E-5
5783.203125; 9.40478E-5
5789.062500; 1.04973E-4
5794.921875; 9.83560E-5
5800.781250; 1.01024E-4
5806.640625; 9.63310E-5
5812.500000; 1.06788E-4
5818.359375; 1.16475E-4
5824.218750; 1.07955E-4
5830.078125; 9.75490E-5
5835.937500; 1.02185E-4
5841.796875; 1.16951E-4
5847.656250; 1.13114E-4
5853.515625; 1.04867E-4
5859.375000; 1.08747E-4
5865.234375; 1.02392E-4
5871.093750; 1.12049E-4
5876.953125; 1.10627E-4
5882.812500; 1.10419E-4
5888.671875; 1.00177E-4
5894.531250; 8.82602E-5
5900.390625; 1.00886E-4
5906.250000; 1.06004E-4
5912.109375; 1.13395E-4
5917.968750; 1.16219E-4
5923.828125; 9.82394E-5
5929.687500; 1.05481E-4
5935.546875; 1.13015E-4
5941.406250; 1.14133E-4
5947.265625; 1.01676E-4
5953.125000; 9.96284E-5
5958.984375; 9.63238E-5
5964.843750; 1.03409E-4
5970.703125; 1.02812E-4
5976.562500; 1.03121E-4
5982.421875; 9.90064E-5
5988.281250; 1.02242E-4
5994.140625; 1.14695E-4
6000.000000; 1.18868E-4
6005.859375; 1.04240E-4
6011.718750; 9.73549E-5
6017.578125; 9.56267E-5
6023.437500; 9.45881E-5
6029.296875; 1.02166E-4
6035.156250; 1.04005E-4
6041.015625; 1.05654E-4
6046.875000; 1.04825E-4
6052.734375; 1.01475E-4
6058.593750; 9.64222E-5
6064.453125; 9.85870E-5
6070.312500; 1.02011E-4
6076.171875; 9.99034E-5
6082.031250; 1.03676E-4
6087.890625; 1.04074E-4
6093.750000; 1.07689E-4
6099.609375; 1.15222E-4
6105.468750; 1.02884E-4
6111.328125; 9.91217E-5
6117.187500; 1.00280E-4
6123.046875; 9.75623E-5
6128.906250; 9.89345E-5
6134.765625; 1.04698E-4
6140.625000; 9.90684E-5
6146.484375; 9.26270E-5
6152.343750; 9.17720E-5
6158.203125; 8.77944E-5
6164.062500; 9.15788E-5
6169.921875; 9.49184E-5
6175.781250; 1.03370E-4
6181.640625; 1.03906E-4
6187.500000; 1.03142E-4
6193.359375; 1.11440E-4
6199.218750; 1.04374E-4
6205.078125; 9.15891E-5
6210.937500; 1.00938E-4
6216.796875; 1.05313E-4
6222.656250; 1.06050E-4
6228.515625; 1.07593E-4
6234.375000; 1.08993E-4
6240.234375; 9.20455E-5
6246.093750; 9.70642E-5
6251.953125; 1.07291E-4
6257.812500; 9.34048E-5
6263.671875; 9.40284E-5
6269.531250; 9.81690E-5
6275.390625; 1.01354E-4
6281.250000; 9.68477E-5
6287.109375; 1.08127E-4
6292.968750; 1.13213E-4
6298.828125; 9.70638E-5
6304.687500; 9.16121E-5
6310.546875; 9.98575E-5
6316.406250; 9.02757E-5
6322.265625; 1.00609E-4
6328.125000; 1.14459E-4
6333.984375; 1.10499E-4
6339.843750; 1.06630E-4
6345.703125; 9.83064E-5
6351.562500; 1.04927E-4
6357.421875; 9.97496E-5
6363.281250; 8.80139E-5
6369.140625; 1.02360E-4
6375.000000; 1.09619E-4
6380.859375; 1.06747E-4
6386.718750; 1.10724E-4
6392.578125; 1.05693E-4
6398.437500; 1.08929E-4
6404.296875; 9.24511E-5
6410.156250; 9.31293E-5
6416.015625; 1.02852E-4
6421.875000; 9.36283E-5
6427.734375; 9.16273E-5
6433.593750; 9.54777E-5
6439.453125; 1.03902E-4
6445.312500; 1.08735E-4
6451.171875; 1.03579E-4
6457.031250; 1.00689E-4
6462.890625; 1.00731E-4
6468.750000; 1.07597E-4
6474.609375; 1.08394E-4
6480.468750; 1.09998E-4
6486.328125; 1.06495E-4
6492.187500; 9.91587E-5
6498.046875; 1.03567E-4
6503.906250; 1.09305E-4
6509.765625; 1.09078E-4
6515.625000; 1.00483E-4
6521.484375; 1.01724E-4
6527.343750; 9.83797E-5
6533.203125; 1.02711E-4
6539.062500; 1.04097E-4
6544.921875; 1.03105E-4
6550.781250; 9.64075E-5
6556.640625; 9.85418E-5
6562.500000; 1.10258E-4
6568.359375; 1.01688E-4
6574.218750; 1.01634E-4
6580.078125; 9.65080E-5
6585.937500; 9.67697E-5
6591.796875; 1.09501E-4
6597.656250; 1.21185E-4
6603.515625; 1.24321E-4
6609.375000; 1.06310E-4
6615.234375; 1.02040E-4
6621.093750; 1.04246E-4
6626.953125; 9.74841E-5
6632.812500; 1.03400E-4
6638.671875; 1.02560E-4
6644.531250; 1.00110E-4
6650.390625; 1.04779E-4
6656.250000; 9.84594E-5
6662.109375; 9.42498E-5
6667.968750; 9.75635E-5
6673.828125; 9.20860E-5
6679.687500; 1.05014E-4
6685.546875; 1.12966E-4
6691.406250; 1.06134E-4
6697.265625; 9.28363E-5
6703.125000; 1.01813E-4
6708.984375; 9.51872E-5
6714.843750; 1.08190E-4
6720.703125; 1.06340E-4
6726.562500; 1.07432E-4
6732.421875; 1.12415E-4
6738.281250; 1.17192E-4
6744.140625; 1.02112E-4
6750.000000; 1.04261E-4
6755.859375; 1.11786E-4
6761.718750; 1.05662E-4
6767.578125; 9.98108E-5
6773.437500; 9.33927E-5
6779.296875; 9.12574E-5
6785.156250; 9.82014E-5
6791.015625; 1.09498E-4
6796.875000; 1.11426E-4
6802.734375; 1.09072E-4
6808.593750; 1.11316E-4
6814.453125; 1.10066E-4
6820.312500; 1.15899E-4
6826.171875; 1.10095E-4
6832.031250; 9.31710E-5
6837.890625; 9.81625E-5
6843.750000; 9.92019E-5
6849.609375; 9.97299E-5
6855.468750; 1.00769E-4
6861.328125; 9.56925E-5
6867.187500; 1.02892E-4
6873.046875; 1.04932E-4
6878.906250; 1.02009E-4
6884.765625; 1.06271E-4
6890.625000; 9.86653E-5
6896.484375; 9.33155E-5
6902.343750; 1.14892E-4
6908.203125; 1.07018E-4
6914.062500; 1.00494E-4
6919.921875; 8.55672E-5
6925.781250; 8.58894E-5
6931.640625; 1.01782E-4
6937.500000; 1.11027E-4
6943.359375; 1.11924E-4
6949.218750; 1.13344E-4
6955.078125; 1.07324E-4
6960.937500; 1.00432E-4
6966.796875; 9.61680E-5
6972.656250; 9.32020E-5
6978.515625; 9.66779E-5
6984.375000; 9.02783E-5
6990.234375; 9.26837E-5
6996.093750; 1.00144E-4
7001.953125; 1.05836E-4
7007.812500; 1.07898E-4
7013.671875; 9.77040E-5
7019.531250; 9.98641E-5
7025.390625; 1.03843E-4
7031.250000; 1.06530E-4
7037.109375; 1.11266E-4
7042.968750; 1.10115E-4
7048.828125; 1.05053E-4
7054.687500; 1.00169E-4
7060.546875; 9.79685E-5
7066.406250; 1.15151E-4
7072.265625; 1.22051E-4
7078.125000; 1.10148E-4
7083.984375; 1.05218E-4
7089.843750; 1.04994E-4
7095.703125; 9.99119E-5
7101.562500; 9.77899E-5
7107.421875; 1.09796E-4
7113.281250; 1.13496E-4
7119.140625; 1.07752E-4
7125.000000; 1.01570E-4
7130.859375; 1.08580E-4
7136.718750; 1.06535E-4
7142.578125; 9.76032E-5
7148.437500; 1.00646E-4
7154.296875; 1.06655E-4
7160.156250; 1.17974E-4
7166.015625; 1.21124E-4
7171.875000; 1.09686E-4
7177.734375; 9.90005E-5
7183.593750; 1.00052E-4
7189.453125; 1.01473E-4
7195.312500; 1.10756E-4
7201.171875; 1.03910E-4
7207.031250; 1.02556E-4
7212.890625; 1.04537E-4
7218.750000; 1.03611E-4
7224.609375; 9.70001E-5
7230.468750; 9.49631E-5
7236.328125; 1.07352E-4
7242.187500; 1.11607E-4
7248.046875; 1.05561E-4
7253.906250; 1.01226E-4
7259.765625; 1.01491E-4
7265.625000; 9.78647E-5
7271.484375; 1.02519E-4
7277.343750; 9.32809E-5
7283.203125; 1.04538E-4
7289.062500; 1.01172E-4
7294.921875; 9.63178E-5
7300.781250; 1.15508E-4
7306.640625; 1.06315E-4
7312.500000; 1.12074E-4
7318.359375; 1.15649E-4
7324.218750; 1.03742E-4
7330.078125; 1.12596E-4
7335.937500; 1.06289E-4
7341.796875; 1.01064E-4
7347.656250; 1.02074E-4
7353.515625; 1.08500E-4
7359.375000; 1.05466E-4
7365.234375; 9.31844E-5
7371.093750; 1.04421E-4
7376.953125; 1.11937E-4
7382.812500; 1.01818E-4
7388.671875; 9.56627E-5
7394.531250; 1.10398E-4
7400.390625; 1.08028E-4
7406.250000; 9.92614E-5
7412.109375; 9.78937E-5
7417.968750; 1.06574E-4
7423.828125; 1.04450E-4
7429.687500; 9.53717E-5
7435.546875; 1.04867E-4
7441.406250; 9.83560E-5
7447.265625; 9.54651E-5
7453.125000; 1.02246E-4
7458.984375; 1.11035E-4
7464.843750; 1.11200E-4
7470.703125; 1.06882E-4
7476.562500; 1.05466E-4
7482.421875; 1.12926E-4
7488.281250; 1.10452E-4
7494.140625; 1.02986E-4
7500.000000; 1.00760E-4
7505.859375; 1.04030E-4
7511.718750; 1.07539E-4
7517.578125; 1.09820E-4
7523.437500; 1.06613E-4
7529.296875; 8.97696E-5
7535.156250; 1.04079E-4
7541.015625; 1.09632E-4
7546.875000; 1.11914E-4
7552.734375; 1.04178E-4
7558.593750; 1.03456E-4
7564.453125; 1.06042E-4
7570.312500; 9.54705E-5
7576.171875; 9.87927E-5
7582.031250; 1.06698E-4
7587.890625; 1.04621E-4
7593.750000; 9.51081E-5
7599.609375; 1.09595E-4
7605.468750; 1.09939E-4
7611.328125; 1.10617E-4
7617.187500; 1.16992E-4
7623.046875; 1.02866E-4
7628.906250; 1.03659E-4
7634.765625; 1.05992E-4
7640.625000; 9.23228E-5
7646.484375; 1.05121E-4
7652.343750; 1.09714E-4
7658.203125; 9.82263E-5
7664.062500; 9.71965E-5
7669.921875; 1.11439E-4
7675.781250; 1.04267E-4
7681.640625; 9.83644E-5
7687.500000; 9.93596E-5
7693.359375; 1.03320E-4
7699.218750; 1.01796E-4
7705.078125; 1.03057E-4
7710.937500; 9.85159E-5
7716.796875; 1.04551E-4
7722.656250; 9.94967E-5
7728.515625; 9.36278E-5
7734.375000; 9.78440E-5
7740.234375; 1.02747E-4
7746.093750; 1.04550E-4
7751.953125; 1.02675E-4
7757.812500; 1.05351E-4
7763.671875; 9.85399E-5
7769.531250; 1.01011E-4
7775.390625; 1.09830E-4
7781.250000; 1.03736E-4
7787.109375; 1.02920E-4
7792.968750; 1.07217E-4
7798.828125; 1.12872E-4
7804.687500; 1.22901E-4
7810.546875; 1.09368E-4
7816.406250; 9.97216E-5
7822.265625; 9.56388E-5
7828.125000; 1.00785E-4
7833.984375; 9.68227E-5
7839.843750; 1.01776E-4
7845.703125; 1.03857E-4
7851.562500; 9.98166E-5
7857.421875; 1.08653E-4
7863.281250; 1.11480E-4
7869.140625; 1.08700E-4
7875.000000; 1.02645E-4
7880.859375; 1.08017E-4
7886.718750; 9.84703E-5
7892.578125; 8.83371E-5
7898.437500; 9.61917E-5
7904.296875; 9.85500E-5
7910.156250; 1.01840E-4
7916.015625; 1.05999E-4
7921.875000; 1.06368E-4
7927.734375; 1.08410E-4
7933.593750; 1.12927E-4
7939.453125; 1.15267E-4
7945.312500; 1.05719E-4
7951.171875; 9.94380E-5
7957.031250; 9.37663E-5
7962.890625; 9.94672E-5
7968.750000; 1.10778E-4
7974.609375; 9.77954E-5
7980.468750; 8.91152E-5
7986.328125; 1.02990E-4
7992.187500; 1.01969E-4
7998.046875; 1.19123E-4
8003.906250; 1.13512E-4
8009.765625; 1.05733E-4
8015.625000; 1.05974E-4
8021.484375; 1.08535E-4
8027.343750; 9.21112E-5
8033.203125; 9.89685E-5
8039.062500; 1.09248E-4
8044.921875; 1.15323E-4
8050.781250; 1.10372E-4
8056.640625; 9.96508E-5
8062.500000; 9.53044E-5
8068.359375; 9.73310E-5
8074.218750; 9.93718E-5
8080.078125; 1.04390E-4
8085.937500; 1.11172E-4
8091.796875; 1.03953E-4
8097.656250; 1.01394E-4
8103.515625; 1.02666E-4
8109.375000; 1.06056E-4
8115.234375; 9.60411E-5
8121.093750; 9.97184E-5
8126.953125; 9.96060E-5
8132.812500; 9.62468E-5
8138.671875; 1.05236E-4
8144.531250; 1.05177E-4
8150.390625; 1.09085E-4
8156.250000; 1.17381E-4
8162.109375; 1.08516E-4
8167.968750; 1.01362E-4
8173.828125; 1.00265E-4
8179.687500; 1.00401E-4
8185.546875; 9.56273E-5
8191.406250; 1.05616E-4
8197.265625; 1.10125E-4
8203.125000; 1.00931E-4
8208.984375; 9.98483E-5
8214.843750; 1.03647E-4
8220.703125; 1.02524E-4
8226.562500; 1.00792E-4
8232.421875; 1.07280E-4
8238.281250; 1.05509E-4
8244.140625; 1.04890E-4
8250.000000; 1.05995E-4
8255.859375; 1.03680E-4
8261.718750; 1.03461E-4
8267.578125; 1.15092E-4
8273.437500; 1.11638E-4
8279.296875; 9.80179E-5
8285.156250; 1.01801E-4
8291.015625; 1.03970E-4
8296.875000; 1.11722E-4
8302.734375; 1.16442E-4
8308.593750; 1.12623E-4
8314.453125; 1.13287E-4
8320.312500; 1.02552E-4
8326.171875; 9.48475E-5
8332.031250; 9.95032E-5
8337.890625; 9.55074E-5
8343.750000; 1.02930E-4
8349.609375; 9.89663E-5
8355.468750; 9.63689E-5
8361.328125; 9.60809E-5
8367.187500; 9.17623E-5
8373.046875; 1.00164E-4
8378.906250; 1.04703E-4
8384.765625; 9.51736E-5
8390.625000; 9.23440E-5
8396.484375; 1.05376E-4
8402.343750; 1.13746E-4
8408.203125; 1.13037E-4
8414.062500; 1.04246E-4
8419.921875; 9.69214E-5
8425.781250; 9.12546E-5
8431.640625; 9.86934E-5
8437.500000; 9.80027E-5
8443.359375; 1.02400E-4
8449.218750; 9.55467E-5
8455.078125; 1.03307E-4
8460.937500; 1.04948E-4
8466.796875; 1.08333E-4
8472.656250; 1.04908E-4
8478.515625; 1.11021E-4
8484.375000; 1.11217E-4
8490.234375; 9.94036E-5
8496.093750; 9.77806E-5
8501.953125; 9.56877E-5
8507.812500; 9.71688E-5
8513.671875; 9.30399E-5
8519.531250; 9.59016E-5
8525.390625; 9.92248E-5
8531.250000; 9.25356E-5
8537.109375; 8.81011E-5
8542.968750; 9.55660E-5
8548.828125; 9.79049E-5
8554.687500; 9.81363E-5
8560.546875; 1.04679E-4
8566.406250; 1.03594E-4
8572.265625; 1.19643E-4
8578.125000; 1.09617E-4
8583.984375; 9.18784E-5
8589.843750; 1.00375E-4
8595.703125; 9.86539E-5
8601.562500; 9.73469E-5
8607.421875; 9.58198E-5
8613.281250; 1.12092E-4
8619.140625; 1.07364E-4
8625.000000; 1.13444E-4
8630.859375; 1.18419E-4
8636.718750; 1.03910E-4
8642.578125; 1.06373E-4
8648.437500; 1.04961E-4
8654.296875; 1.01515E-4
8660.156250; 1.01439E-4
8666.015625; 1.10666E-4
8671.875000; 1.10892E-4
8677.734375; 1.14159E-4
8683.593750; 1.07084E-4
8689.453125; 1.05270E-4
8695.312500; 1.00164E-4
8701.171875; 1.02462E-4
8707.031250; 1.04467E-4
8712.890625; 1.05473E-4
8718.750000; 1.02725E-4
8724.609375; 9.93605E-5
8730.468750; 9.67659E-5
8736.328125; 1.01268E-4
8742.187500; 1.08969E-4
8748.046875; 1.00186E-4
8753.906250; 1.00311E-4
8759.765625; 1.02560E-4
8765.625000; 1.03797E-4
8771.484375; 1.01047E-4
8777.343750; 9.08960E-5
8783.203125; 1.00151E-4
8789.062500; 1.06451E-4
8794.921875; 1.05496E-4
8800.781250; 1.10909E-4
8806.640625; 1.04918E-4
8812.500000; 9.40494E-5
8818.359375; 1.04280E-4
8824.218750; 1.01511E-4
8830.078125; 1.07286E-4
8835.937500; 1.15276E-4
8841.796875; 1.05625E-4
8847.656250; 1.05460E-4
8853.515625; 1.03585E-4
8859.375000; 1.01512E-4
8865.234375; 1.00585E-4
8871.093750; 1.03775E-4
8876.953125; 1.08677E-4
8882.812500; 1.14922E-4
8888.671875; 1.10645E-4
8894.531250; 1.07116E-4
8900.390625; 1.11806E-4
8906.250000; 1.04161E-4
8912.109375; 1.01566E-4
8917.968750; 1.04483E-4
8923.828125; 1.01881E-4
8929.687500; 1.05284E-4
8935.546875; 1.10287E-4
8941.406250; 1.11001E-4
8947.265625; 1.09695E-4
8953.125000; 1.02555E-4
8958.984375; 1.00916E-4
8964.843750; 1.13963E-4
8970.703125; 1.13221E-4
8976.562500; 1.07787E-4
8982.421875; 1.08369E-4
8988.281250; 1.03675E-4
8994.140625; 9.66741E-5
9000.000000; 9.80913E-5
9005.859375; 9.45186E-5
9011.718750; 1.00182E-4
9017.578125; 9.79138E-5
9023.437500; 9.59839E-5
9029.296875; 1.01961E-4
9035.156250; 9.76549E-5
9041.015625; 9.24901E-5
9046.875000; 9.35030E-5
9052.734375; 1.05588E-4
9058.593750; 1.12973E-4
9064.453125; 1.08497E-4
9070.312500; 1.04000E-4
9076.171875; 1.03432E-4
9082.031250; 9.89847E-5
9087.890625; 9.39971E-5
9093.750000; 1.15373E-4
9099.609375; 1.00425E-4
9105.468750; 9.76609E-5
9111.328125; 1.03825E-4
9117.187500; 1.07247E-4
9123.046875; 1.02722E-4
9128.906250; 9.48210E-5
9134.765625; 1.03019E-4
9140.625000; 1.10868E-4
9146.484375; 1.07119E-4
9152.343750; 1.04838E-4
9158.203125; 1.01840E-4
9164.062500; 1.03252E-4
9169.921875; 1.07921E-4
9175.781250; 1.05459E-4
9181.640625; 1.09266E-4
9187.500000; 1.04971E-4
9193.359375; 1.09111E-4
9199.218750; 1.04194E-4
9205.078125; 1.04456E-4
9210.937500; 1.01671E-4
9216.796875; 1.00826E-4
9222.656250; 1.01744E-4
9228.515625; 1.03312E-4
9234.375000; 1.02310E-4
9240.234375; 9.53057E-5
9246.093750; 1.00443E-4
9251.953125; 1.11338E-4
9257.812500; 1.00420E-4
9263.671875; 8.94289E-5
9269.531250; 9.55418E-5
9275.390625; 1.17838E-4
9281.250000; 1.19371E-4
9287.109375; 1.09264E-4
9292.968750; 9.66991E-5
9298.828125; 9.72789E-5
9304.687500; 1.02852E-4
9310.546875; 1.09065E-4
9316.406250; 1.08523E-4
9322.265625; 1.10316E-4
9328.125000; 9.97312E-5
9333.984375; 1.05128E-4
9339.843750; 1.02969E-4
9345.703125; 1.13839E-4
9351.562500; 1.07059E-4
9357.421875; 1.00992E-4
9363.281250; 9.71399E-5
9369.140625; 1.01252E-4
9375.000000; 1.04359E-4
9380.859375; 9.82316E-5
9386.718750; 1.00030E-4
9392.578125; 9.96003E-5
9398.437500; 1.05423E-4
9404.296875; 1.08457E-4
9410.156250; 1.09422E-4
9416.015625; 9.63463E-5
9421.875000; 1.10250E-4
9427.734375; 1.07809E-4
9433.593750; 1.09017E-4
9439.453125; 1.01896E-4
9445.312500; 9.93047E-5
9451.171875; 1.07459E-4
9457.031250; 1.05750E-4
9462.890625; 9.52736E-5
9468.750000; 9.66494E-5
9474.609375; 1.01167E-4
9480.468750; 9.51565E-5
9486.328125; 9.57545E-5
9492.187500; 1.00300E-4
9498.046875; 1.11588E-4
9503.906250; 1.07876E-4
9509.765625; 1.05128E-4
9515.625000; 9.95656E-5
9521.484375; 1.04147E-4
9527.343750; 1.10668E-4
9533.203125; 9.57101E-5
9539.062500; 1.04863E-4
9544.921875; 9.89229E-5
9550.781250; 9.06984E-5
9556.640625; 1.00893E-4
9562.500000; 1.09116E-4
9568.359375; 1.07078E-4
9574.218750; 1.14347E-4
9580.078125; 1.06425E-4
9585.937500; 9.99430E-5
9591.796875; 1.08234E-4
9597.656250; 1.08427E-4
9603.515625; 9.01152E-5
9609.375000; 8.73905E-5
9615.234375; 8.75312E-5
9621.093750; 9.91578E-5
9626.953125; 1.09248E-4
9632.812500; 1.07445E-4
9638.671875; 1.10954E-4
9644.531250; 1.09330E-4
9650.390625; 9.79310E-5
9656.250000; 1.02607E-4
9662.109375; 1.07608E-4
9667.968750; 1.05469E-4
9673.828125; 9.26157E-5
9679.687500; 1.03447E-4
9685.546875; 1.14360E-4
9691.406250; 1.13885E-4
9697.265625; 1.03653E-4
9703.125000; 1.13678E-4
9708.984375; 1.09852E-4
9714.843750; 9.18263E-5
9720.703125; 9.45098E-5
9726.562500; 1.02119E-4
9732.421875; 1.05568E-4
9738.281250; 9.96052E-5
9744.140625; 9.35691E-5
9750.000000; 1.03816E-4
9755.859375; 9.49253E-5
9761.718750; 1.01078E-4
9767.578125; 1.00755E-4
9773.437500; 9.13654E-5
9779.296875; 9.78634E-5
9785.156250; 1.06336E-4
9791.015625; 1.13361E-4
9796.875000; 1.05251E-4
9802.734375; 1.01008E-4
9808.593750; 9.27364E-5
9814.453125; 9.99629E-5
9820.312500; 1.01211E-4
9826.171875; 9.88467E-5
9832.031250; 1.05091E-4
9837.890625; 1.09261E-4
9843.750000; 9.65023E-5
9849.609375; 9.71487E-5
9855.468750; 9.22609E-5
9861.328125; 1.03801E-4
9867.187500; 1.07734E-4
9873.046875; 1.05865E-4
9878.906250; 1.09446E-4
9884.765625; 1.09487E-4
9890.625000; 1.06123E-4
9896.484375; 9.93396E-5
9902.343750; 8.99890E-5
9908.203125; 8.51162E-5
9914.062500; 9.00359E-5
9919.921875; 9.63249E-5
9925.781250; 9.99701E-5
9931.640625; 1.05026E-4
9937.500000; 1.17179E-4
9943.359375; 1.10401E-4
9949.218750; 1.02841E-4
9955.078125; 1.12102E-4
9960.937500; 1.04790E-4
9966.796875; 1.00524E-4
9972.656250; 1.00924E-4
9978.515625; 1.02909E-4
9984.375000; 1.03266E-4
9990.234375; 1.04369E-4
9996.093750; 9.81094E-5
10001.953125; 9.73171E-5
10007.812500; 9.08894E-5
10013.671875; 9.34455E-5
10019.531250; 1.02725E-4
10025.390625; 1.03152E-4
10031.250000; 9.80279E-5
10037.109375; 9.30348E-5
10042.968750; 9.76357E-5
10048.828125; 1.06798E-4
10054.687500; 1.06472E-4
10060.546875; 1.06610E-4
10066.406250; 1.08249E-4
10072.265625; 1.06124E-4
10078.125000; 1.01731E-4
10083.984375; 1.06627E-4
10089.843750; 9.48946E-5
10095.703125; 9.12700E-5
10101.562500; 9.60263E-5
10107.421875; 1.04683E-4
10113.281250; 9.84883E-5
10119.140625; 9.70787E-5
10125.000000; 9.73723E-5
10130.859375; 9.75920E-5
10136.718750; 1.00708E-4
10142.578125; 9.89664E-5
10148.437500; 1.01163E-4
10154.296875; 1.08547E-4
10160.156250; 1.07281E-4
10166.015625; 1.12661E-4
10171.875000; 1.02760E-4
10177.734375; 9.91568E-5
10183.593750; 1.06634E-4
10189.453125; 1.07025E-4
10195.312500; 1.04329E-4
10201.171875; 1.03862E-4
10207.031250; 1.04110E-4
10212.890625; 1.02750E-4
10218.750000; 1.02733E-4
10224.609375; 9.48828E-5
10230.468750; 9.10413E-5
10236.328125; 9.91072E-5
10242.187500; 9.93877E-5
10248.046875; 1.06937E-4
10253.906250; 1.13446E-4
10259.765625; 1.08048E-4
10265.625000; 9.30920E-5
10271.484375; 9.38115E-5
10277.343750; 1.06848E-4
10283.203125; 1.09959E-4
10289.062500; 1.02859E-4
10294.921875; 9.55918E-5
10300.781250; 9.78724E-5
10306.640625; 1.06455E-4
10312.500000; 1.13321E-4
10318.359375; 1.07542E-4
10324.218750; 1.00353E-4
10330.078125; 9.14521E-5
10335.937500; 9.78205E-5
10341.796875; 1.00612E-4
10347.656250; 9.47417E-5
10353.515625; 1.00848E-4
10359.375000; 9.80039E-5
10365.234375; 9.73694E-5
10371.093750; 1.00669E-4
10376.953125; 1.04419E-4
10382.812500; 1.20515E-4
10388.671875; 1.02601E-4
10394.531250; 9.61559E-5
10400.390625; 1.11269E-4
10406.250000; 1.14467E-4
10412.109375; 1.06878E-4
10417.968750; 1.10179E-4
10423.828125; 1.13458E-4
10429.687500; 1.00466E-4
10435.546875; 1.01567E-4
10441.406250; 9.82397E-5
10447.265625; 1.03385E-4
10453.125000; 9.30276E-5
10458.984375; 9.44935E-5
10464.843750; 9.74716E-5
10470.703125; 9.90586E-5
10476.562500; 1.11182E-4
10482.421875; 1.13953E-4
10488.281250; 9.71072E-5
10494.140625; 9.71893E-5
10500.000000; 9.89877E-5
10505.859375; 9.97023E-5
10511.718750; 1.03796E-4
10517.578125; 1.10162E-4
10523.437500; 1.10663E-4
10529.296875; 1.11264E-4
10535.156250; 1.00739E-4
10541.015625; 1.00372E-4
10546.875000; 9.61147E-5
10552.734375; 9.79663E-5
10558.593750; 1.03175E-4
10564.453125; 1.02874E-4
10570.312500; 1.01034E-4
10576.171875; 1.07346E-4
10582.031250; 9.30903E-5
10587.890625; 9.40943E-5
10593.750000; 9.98584E-5
10599.609375; 8.86137E-5
10605.468750; 1.03816E-4
10611.328125; 1.04232E-4
10617.187500; 1.05738E-4
10623.046875; 1.00915E-4
10628.906250; 1.06505E-4
10634.765625; 9.89223E-5
10640.625000; 1.00199E-4
10646.484375; 9.84560E-5
10652.343750; 1.03937E-4
10658.203125; 1.01141E-4
10664.062500; 1.02962E-4
10669.921875; 1.14779E-4
10675.781250; 1.10029E-4
10681.640625; 1.05897E-4
10687.500000; 1.03656E-4
10693.359375; 1.07498E-4
10699.218750; 9.70915E-5
10705.078125; 9.29855E-5
10710.937500; 9.50347E-5
10716.796875; 9.92074E-5
10722.656250; 9.71820E-5
10728.515625; 1.08203E-4
10734.375000; 9.00479E-5
10740.234375; 1.00277E-4
10746.093750; 1.05393E-4
10751.953125; 1.00367E-4
10757.812500; 1.07473E-4
10763.671875; 1.01561E-4
10769.531250; 1.02283E-4
10775.390625; 9.90741E-5
10781.250000; 1.04276E-4
10787.109375; 9.36854E-5
10792.968750; 9.82358E-5
10798.828125; 1.06707E-4
10804.687500; 9.40844E-5
10810.546875; 1.01404E-4
10816.406250; 1.04995E-4
10822.265625; 1.01406E-4
10828.125000; 9.39142E-5
10833.984375; 9.92556E-5
10839.843750; 1.05287E-4
10845.703125; 1.04843E-4
10851.562500; 1.05794E-4
10857.421875; 9.73198E-5
10863.281250; 9.10976E-5
10869.140625; 1.10607E-4
10875.000000; 1.05351E-4
10880.859375; 9.33000E-5
10886.718750; 9.99088E-5
10892.578125; 1.05468E-4
10898.437500; 1.06434E-4
10904.296875; 1.00329E-4
10910.156250; 1.00804E-4
10916.015625; 1.01081E-4
10921.875000; 1.01156E-4
10927.734375; 1.01520E-4
10933.593750; 9.48959E-5
10939.453125; 1.02621E-4
10945.312500; 1.09709E-4
10951.171875; 9.81471E-5
10957.031250; 9.07577E-5
10962.890625; 9.45251E-5
10968.750000; 9.68424E-5
10974.609375; 1.07545E-4
10980.468750; 1.09345E-4
10986.328125; 1.23968E-4
10992.187500; 1.15014E-4
10998.046875; 1.01575E-4
11003.906250; 1.04142E-4
11009.765625; 9.41596E-5
11015.625000; 9.91343E-5
11021.484375; 1.06568E-4
11027.343750; 1.07236E-4
11033.203125; 9.53805E-5
11039.062500; 9.46106E-5
11044.921875; 9.78698E-5
11050.781250; 1.01084E-4
11056.640625; 1.13357E-4
11062.500000; 1.06764E-4
11068.359375; 1.07580E-4
11074.218750; 1.11810E-4
11080.078125; 9.25474E-5
11085.937500; 9.38321E-5
11091.796875; 1.01720E-4
11097.656250; 9.72877E-5
11103.515625; 9.50706E-5
11109.375000; 9.89638E-5
11115.234375; 9.50687E-5
11121.093750; 9.85760E-5
11126.953125; 1.04883E-4
11132.812500; 1.03678E-4
11138.671875; 9.49331E-5
11144.531250; 8.93938E-5
11150.390625; 9.39736E-5
11156.250000; 9.66235E-5
11162.109375; 1.10476E-4
11167.968750; 1.12350E-4
11173.828125; 9.87597E-5
11179.687500; 9.78909E-5
11185.546875; 9.79317E-5
11191.406250; 1.00241E-4
11197.265625; 1.03581E-4
11203.125000; 1.06161E-4
11208.984375; 1.04396E-4
11214.843750; 9.44142E-5
11220.703125; 8.75430E-5
11226.562500; 9.59652E-5
11232.421875; 9.79044E-5
11238.281250; 1.00452E-4
11244.140625; 9.35822E-5
11250.000000; 9.91624E-5
11255.859375; 1.03154E-4
11261.718750; 1.02620E-4
11267.578125; 1.08740E-4
11273.437500; 1.09382E-4
11279.296875; 1.05710E-4
11285.156250; 9.53961E-5
11291.015625; 8.73133E-5
11296.875000; 9.20441E-5
11302.734375; 9.53079E-5
11308.593750; 1.02246E-4
11314.453125; 9.57555E-5
11320.312500; 9.78842E-5
11326.171875; 9.42049E-5
11332.031250; 1.04231E-4
11337.890625; 9.68748E-5
11343.750000; 9.38483E-5
11349.609375; 1.04079E-4
11355.468750; 1.06820E-4
11361.328125; 1.06077E-4
11367.187500; 1.00919E-4
11373.046875; 1.15861E-4
11378.906250; 1.12327E-4
11384.765625; 1.00432E-4
11390.625000; 9.28725E-5
11396.484375; 1.04757E-4
11402.343750; 1.02026E-4
11408.203125; 9.53823E-5
11414.062500; 9.77233E-5
11419.921875; 9.20199E-5
11425.781250; 9.87730E-5
11431.640625; 9.59599E-5
11437.500000; 9.35156E-5
11443.359375; 9.73429E-5
11449.218750; 1.08097E-4
11455.078125; 1.19409E-4
11460.937500; 1.08046E-4
11466.796875; 1.01590E-4
11472.656250; 9.89819E-5
11478.515625; 9.74190E-5
11484.375000; 9.37028E-5
11490.234375; 9.94569E-5
11496.093750; 1.04052E-4
11501.953125; 9.63300E-5
11507.812500; 9.62735E-5
11513.671875; 1.07507E-4
11519.531250; 9.89226E-5
11525.390625; 9.42369E-5
11531.250000; 9.39620E-5
11537.109375; 1.04329E-4
11542.968750; 1.05682E-4
11548.828125; 1.03308E-4
11554.687500; 1.03503E-4
11560.546875; 1.11032E-4
11566.406250; 9.70920E-5
11572.265625; 9.10813E-5
11578.125000; 9.54462E-5
11583.984375; 9.88966E-5
11589.843750; 1.01393E-4
11595.703125; 9.94325E-5
11601.562500; 9.73101E-5
11607.421875; 8.95569E-5
11613.281250; 9.18051E-5
11619.140625; 9.22035E-5
11625.000000; 8.49007E-5
11630.859375; 9.11152E-5
11636.718750; 1.05884E-4
11642.578125; 1.10035E-4
11648.437500; 1.06787E-4
11654.296875; 1.01927E-4
11660.156250; 9.94592E-5
11666.015625; 9.20218E-5
11671.875000; 8.91567E-5
11677.734375; 1.05276E-4
11683.593750; 1.15204E-4
11689.453125; 1.04225E-4
11695.312500; 9.39646E-5
11701.171875; 9.61482E-5
11707.031250; 1.02705E-4
11712.890625; 1.09311E-4
11718.750000; 1.02297E-4
11724.609375; 9.33860E-5
11730.468750; 9.60536E-5
11736.328125; 9.49126E-5
11742.187500; 1.02107E-4
11748.046875; 1.10517E-4
11753.906250; 1.08698E-4
11759.765625; 9.94578E-5
11765.625000; 9.89295E-5
11771.484375; 1.08602E-4
11777.343750; 1.06995E-4
11783.203125; 1.10776E-4
11789.062500; 1.07930E-4
11794.921875; 9.16389E-5
11800.781250; 8.65167E-5
11806.640625; 9.07465E-5
11812.500000; 1.01880E-4
11818.359375; 1.07537E-4
11824.218750; 9.87758E-5
11830.078125; 1.08582E-4
11835.937500; 1.08122E-4
11841.796875; 9.34118E-5
11847.656250; 9.51875E-5
11853.515625; 9.77509E-5
11859.375000; 1.03785E-4
11865.234375; 1.10735E-4
11871.093750; 1.09702E-4
11876.953125; 9.61241E-5
11882.812500; 1.02073E-4
11888.671875; 1.12907E-4
11894.531250; 1.16292E-4
11900.390625; 1.14458E-4
11906.250000; 1.08896E-4
11912.109375; 1.02898E-4
11917.968750; 9.22731E-5
11923.828125; 1.03041E-4
11929.687500; 1.00020E-4
11935.546875; 8.98621E-5
11941.406250; 8.78910E-5
11947.265625; 9.58286E-5
11953.125000; 9.99257E-5
11958.984375; 1.00689E-4
11964.843750; 9.34533E-5
11970.703125; 8.63544E-5
11976.562500; 9.66780E-5
11982.421875; 1.07017E-4
11988.281250; 1.02489E-4
11994.140625; 9.77254E-5
12000.000000; 1.02605E-4
12005.859375; 1.02573E-4
12011.718750; 1.00087E-4
12017.578125; 9.94422E-5
12023.437500; 1.09488E-4
12029.296875; 1.05487E-4
12035.156250; 9.76886E-5
12041.015625; 9.63783E-5
12046.875000; 1.00884E-4
12052.734375; 1.01627E-4
12058.593750; 9.08608E-5
12064.453125; 9.34130E-5
12070.312500; 1.05088E-4
12076.171875; 1.11028E-4
12082.031250; 1.04360E-4
12087.890625; 1.05141E-4
12093.750000; 9.61501E-5
12099.609375; 1.01685E-4
12105.468750; 1.04876E-4
12111.328125; 9.64926E-5
12117.187500; 9.38681E-5
12123.046875; 9.91554E-5
12128.906250; 1.01128E-4
12134.765625; 1.03841E-4
12140.625000; 9.96943E-5
12146.484375; 1.00376E-4
12152.343750; 1.02568E-4
12158.203125; 9.68008E-5
12164.062500; 1.08458E-4
12169.921875; 1.06867E-4
12175.781250; 1.02191E-4
12181.640625; 9.43840E-5
12187.500000; 1.02222E-4
12193.359375; 1.03501E-4
12199.218750; 9.61056E-5
12205.078125; 9.39415E-5
12210.937500; 9.64337E-5
12216.796875; 9.90611E-5
12222.656250; 1.06412E-4
12228.515625; 9.88169E-5
12234.375000; 9.62057E-5
12240.234375; 1.01105E-4
12246.093750; 1.01490E-4
12251.953125; 1.13282E-4
12257.812500; 1.12701E-4
12263.671875; 9.57887E-5
12269.531250; 1.04838E-4
12275.390625; 1.09212E-4
12281.250000; 1.10093E-4
12287.109375; 9.77823E-5
12292.968750; 9.24471E-5
12298.828125; 1.00577E-4
12304.687500; 1.07075E-4
12310.546875; 1.03439E-4
12316.406250; 1.03846E-4
12322.265625; 9.88031E-5
12328.125000; 9.91756E-5
12333.984375; 1.07385E-4
12339.843750; 1.04426E-4
12345.703125; 9.83729E-5
12351.562500; 1.00689E-4
12357.421875; 9.06573E-5
12363.281250; 9.54612E-5
12369.140625; 1.01681E-4
12375.000000; 1.07004E-4
12380.859375; 9.49139E-5
12386.718750; 1.05478E-4
12392.578125; 1.14669E-4
12398.437500; 9.71404E-5
12404.296875; 9.17829E-5
12410.156250; 9.88874E-5
12416.015625; 1.08925E-4
12421.875000; 1.06290E-4
12427.734375; 1.02464E-4
12433.593750; 1.05558E-4
12439.453125; 1.05551E-4
12445.312500; 1.03766E-4
12451.171875; 1.00506E-4
12457.031250; 1.06896E-4
12462.890625; 1.09306E-4
12468.750000; 1.03927E-4
12474.609375; 9.96648E-5
12480.468750; 9.33996E-5
12486.328125; 9.84262E-5
12492.187500; 9.27770E-5
12498.046875; 9.89327E-5
12503.906250; 1.06579E-4
12509.765625; 1.13893E-4
12515.625000; 1.07034E-4
12521.484375; 9.69024E-5
12527.343750; 9.75291E-5
12533.203125; 1.09380E-4
12539.062500; 1.11246E-4
12544.921875; 1.10482E-4
12550.781250; 1.06027E-4
12556.640625; 1.03962E-4
12562.500000; 1.10076E-4
12568.359375; 1.10637E-4
12574.218750; 1.09520E-4
12580.078125; 1.07794E-4
12585.937500; 1.00787E-4
12591.796875; 1.00790E-4
12597.656250; 1.06927E-4
12603.515625; 1.10413E-4
12609.375000; 1.01429E-4
12615.234375; 1.09102E-4
12621.093750; 1.11909E-4
12626.953125; 9.95856E-5
12632.812500; 9.19196E-5
12638.671875; 1.05027E-4
12644.531250; 1.01778E-4
12650.390625; 9.26486E-5
12656.250000; 1.04113E-4
12662.109375; 1.06893E-4
12667.968750; 1.00659E-4
12673.828125; 1.01928E-4
12679.687500; 9.52358E-5
12685.546875; 1.05429E-4
12691.406250; 1.08814E-4
12697.265625; 9.95234E-5
12703.125000; 9.98360E-5
12708.984375; 1.13013E-4
12714.843750; 1.04525E-4
12720.703125; 1.05770E-4
12726.562500; 1.03484E-4
12732.421875; 9.79456E-5
12738.281250; 8.73416E-5
12744.140625; 9.50961E-5
12750.000000; 1.07487E-4
12755.859375; 1.04328E-4
12761.718750; 9.85437E-5
12767.578125; 1.03803E-4
12773.437500; 1.04650E-4
12779.296875; 1.04159E-4
12785.156250; 9.60176E-5
12791.015625; 8.82326E-5
12796.875000; 9.45353E-5
12802.734375; 9.42247E-5
12808.593750; 9.48404E-5
12814.453125; 1.02493E-4
12820.312500; 1.07748E-4
12826.171875; 1.01687E-4
12832.031250; 9.76095E-5
12837.890625; 8.90048E-5
12843.750000; 9.04010E-5
12849.609375; 1.07727E-4
12855.468750; 1.04484E-4
12861.328125; 1.00129E-4
12867.187500; 1.05647E-4
12873.046875; 1.06392E-4
12878.906250; 1.04572E-4
12884.765625; 1.02159E-4
12890.625000; 9.53470E-5
12896.484375; 9.87831E-5
12902.343750; 1.04159E-4
12908.203125; 9.73861E-5
12914.062500; 9.77195E-5
12919.921875; 9.60829E-5
12925.781250; 1.01416E-4
12931.640625; 1.01738E-4
12937.500000; 1.04591E-4
12943.359375; 1.00084E-4
12949.218750; 9.88256E-5
12955.078125; 9.55567E-5
12960.937500; 8.62777E-5
12966.796875; 1.06816E-4
12972.656250; 1.06321E-4
12978.515625; 1.02410E-4
12984.375000; 9.94095E-5
12990.234375; 1.07570E-4
12996.093750; 1.08202E-4
13001.953125; 1.17822E-4
13007.812500; 9.26670E-5
13013.671875; 9.88760E-5
13019.531250; 1.07446E-4
13025.390625; 1.00455E-4
13031.250000; 1.02943E-4
13037.109375; 1.02819E-4
13042.968750; 1.01660E-4
13048.828125; 1.03509E-4
13054.687500; 1.05646E-4
13060.546875; 1.05672E-4
13066.406250; 1.02714E-4
13072.265625; 9.59562E-5
13078.125000; 1.02622E-4
13083.984375; 9.48427E-5
13089.843750; 1.03888E-4
13095.703125; 1.18722E-4
13101.562500; 1.17341E-4
13107.421875; 1.08211E-4
13113.281250; 1.00377E-4
13119.140625; 9.45298E-5
13125.000000; 9.21725E-5
13130.859375; 1.03427E-4
13136.718750; 1.03951E-4
13142.578125; 1.02329E-4
13148.437500; 1.03530E-4
13154.296875; 1.06285E-4
13160.156250; 1.06911E-4
13166.015625; 1.06990E-4
13171.875000; 1.00979E-4
13177.734375; 9.57665E-5
13183.593750; 9.30169E-5
13189.453125; 1.06473E-4
13195.312500; 1.02940E-4
13201.171875; 9.67894E-5
13207.031250; 9.91817E-5
13212.890625; 9.17498E-5
13218.750000; 9.27274E-5
13224.609375; 9.48814E-5
13230.468750; 1.04626E-4
13236.328125; 9.98194E-5
13242.187500; 1.00324E-4
13248.046875; 9.50591E-5
13253.906250; 9.61997E-5
13259.765625; 9.92774E-5
13265.625000; 9.12642E-5
13271.484375; 8.99480E-5
13277.343750; 9.41852E-5
13283.203125; 9.87235E-5
13289.062500; 1.04670E-4
13294.921875; 1.07827E-4
13300.781250; 1.15722E-4
13306.640625; 1.01785E-4
13312.500000; 1.01524E-4
13318.359375; 1.04554E-4
13324.218750; 1.09239E-4
13330.078125; 1.02090E-4
13335.937500; 1.00706E-4
13341.796875; 9.30414E-5
13347.656250; 1.03407E-4
13353.515625; 1.00154E-4
13359.375000; 9.70649E-5
13365.234375; 9.27684E-5
13371.093750; 8.95527E-5
13376.953125; 9.89095E-5
13382.812500; 1.06887E-4
13388.671875; 1.01847E-4
13394.531250; 9.67582E-5
13400.390625; 1.00127E-4
13406.250000; 9.52007E-5
13412.109375; 1.02665E-4
13417.968750; 1.03738E-4
13423.828125; 1.00693E-4
13429.687500; 1.01665E-4
13435.546875; 1.01306E-4
13441.406250; 9.65955E-5
13447.265625; 9.72143E-5
13453.125000; 1.09189E-4
13458.984375; 1.17699E-4
13464.843750; 1.08274E-4
13470.703125; 1.02011E-4
13476.562500; 9.68804E-5
13482.421875; 9.23370E-5
13488.281250; 1.03102E-4
13494.140625; 1.01033E-4
13500.000000; 9.81156E-5
13505.859375; 1.04989E-4
13511.718750; 1.10404E-4
13517.578125; 8.65166E-5
13523.437500; 9.33816E-5
13529.296875; 1.00763E-4
13535.156250; 1.04350E-4
13541.015625; 9.59487E-5
13546.875000; 9.81372E-5
13552.734375; 1.02751E-4
13558.593750; 1.06426E-4
13564.453125; 1.08312E-4
13570.312500; 1.00878E-4
13576.171875; 9.82231E-5
13582.031250; 1.00369E-4
13587.890625; 1.09976E-4
13593.750000; 1.13508E-4
13599.609375; 1.10215E-4
13605.468750; 1.02531E-4
13611.328125; 9.63090E-5
13617.187500; 1.10096E-4
13623.046875; 1.01306E-4
13628.906250; 1.03738E-4
13634.765625; 1.06022E-4
13640.625000; 1.01550E-4
13646.484375; 1.05289E-4
13652.343750; 1.01188E-4
13658.203125; 1.02792E-4
13664.062500; 1.01549E-4
13669.921875; 9.63801E-5
13675.781250; 9.39174E-5
13681.640625; 1.12445E-4
13687.500000; 1.15113E-4
13693.359375; 9.55352E-5
13699.218750; 9.95394E-5
13705.078125; 1.09998E-4
13710.937500; 1.00428E-4
13716.796875; 9.37715E-5
13722.656250; 1.17966E-4
13728.515625; 1.15873E-4
13734.375000; 9.62414E-5
13740.234375; 9.07253E-5
13746.093750; 8.82926E-5
13751.953125; 9.59793E-5
13757.812500; 1.10215E-4
13763.671875; 1.03010E-4
13769.531250; 1.01560E-4
13775.390625; 1.02516E-4
13781.250000; 1.08580E-4
13787.109375; 1.02557E-4
13792.968750; 1.02535E-4
13798.828125; 1.00385E-4
13804.687500; 9.53961E-5
13810.546875; 9.33820E-5
13816.406250; 1.00061E-4
13822.265625; 9.90438E-5
13828.125000; 9.66541E-5
13833.984375; 1.06909E-4
13839.843750; 1.09866E-4
13845.703125; 1.04600E-4
13851.562500; 1.00663E-4
13857.421875; 1.05536E-4
13863.281250; 9.22361E-5
13869.140625; 9.20606E-5
13875.000000; 9.41844E-5
13880.859375; 9.70062E-5
13886.718750; 1.11149E-4
13892.578125; 1.08021E-4
13898.437500; 1.01919E-4
13904.296875; 9.77245E-5
13910.156250; 9.85789E-5
13916.015625; 1.08699E-4
13921.875000; 1.02348E-4
13927.734375; 9.66950E-5
13933.593750; 9.48393E-5
13939.453125; 1.00046E-4
13945.312500; 1.10551E-4
13951.171875; 1.05112E-4
13957.031250; 1.06219E-4
13962.890625; 1.00331E-4
13968.750000; 9.76925E-5
13974.609375; 9.26076E-5
13980.468750; 1.02666E-4
13986.328125; 1.02635E-4
13992.187500; 1.04876E-4
13998.046875; 9.78474E-5
14003.906250; 9.37477E-5
14009.765625; 9.66503E-5
14015.625000; 8.72164E-5
14021.484375; 9.74618E-5
14027.343750; 9.56517E-5
14033.203125; 1.00886E-4
14039.062500; 1.02342E-4
14044.921875; 1.01899E-4
14050.781250; 1.04507E-4
14056.640625; 9.59011E-5
14062.500000; 1.00089E-4
14068.359375; 9.93998E-5
14074.218750; 9.41859E-5
14080.078125; 9.82423E-5
14085.937500; 9.56162E-5
14091.796875; 9.89312E-5
14097.656250; 9.74568E-5
14103.515625; 9.76469E-5
14109.375000; 1.01979E-4
14115.234375; 9.66012E-5
14121.093750; 9.74375E-5
14126.953125; 1.03281E-4
14132.812500; 9.60014E-5
14138.671875; 1.02383E-4
14144.531250; 9.25181E-5
14150.390625; 1.07900E-4
14156.250000; 1.03966E-4
14162.109375; 9.95094E-5
14167.968750; 1.01749E-4
14173.828125; 1.02165E-4
14179.687500; 1.10847E-4
14185.546875; 1.09625E-4
14191.406250; 1.00278E-4
14197.265625; 9.96095E-5
14203.125000; 9.74180E-5
14208.984375; 9.58089E-5
14214.843750; 9.39955E-5
14220.703125; 9.72546E-5
14226.562500; 1.01357E-4
14232.421875; 1.06605E-4
14238.281250; 1.04087E-4
14244.140625; 9.85080E-5
14250.000000; 9.64134E-5
14255.859375; 1.00269E-4
14261.718750; 1.01691E-4
14267.578125; 1.09767E-4
14273.437500; 1.08597E-4
14279.296875; 1.03485E-4
14285.156250; 9.87371E-5
14291.015625; 9.77722E-5
14296.875000; 9.86864E-5
14302.734375; 9.88900E-5
14308.593750; 9.32607E-5
14314.453125; 9.00567E-5
14320.312500; 8.71064E-5
14326.171875; 9.78359E-5
14332.031250; 9.09893E-5
14337.890625; 9.09732E-5
14343.750000; 8.55639E-5
14349.609375; 9.57445E-5
14355.468750; 1.02513E-4
14361.328125; 1.00156E-4
14367.187500; 9.39839E-5
14373.046875; 9.60844E-5
14378.906250; 1.08172E-4
14384.765625; 1.01430E-4
14390.625000; 9.57252E-5
14396.484375; 1.00860E-4
14402.343750; 1.01018E-4
14408.203125; 1.01094E-4
14414.062500; 9.95907E-5
14419.921875; 9.18408E-5
14425.781250; 9.93485E-5
14431.640625; 1.02291E-4
14437.500000; 1.06233E-4
14443.359375; 1.01406E-4
14449.218750; 1.05066E-4
14455.078125; 1.03477E-4
14460.937500; 9.32022E-5
14466.796875; 1.00901E-4
14472.656250; 1.10646E-4
14478.515625; 1.14046E-4
14484.375000; 1.04730E-4
14490.234375; 1.10821E-4
14496.093750; 1.09845E-4
14501.953125; 1.02419E-4
14507.812500; 9.75502E-5
14513.671875; 1.01705E-4
14519.531250; 1.01513E-4
14525.390625; 1.05443E-4
14531.250000; 1.05285E-4
14537.109375; 1.11757E-4
14542.968750; 1.06980E-4
14548.828125; 9.36333E-5
14554.687500; 1.02923E-4
14560.546875; 1.09873E-4
14566.406250; 1.00808E-4
14572.265625; 1.04540E-4
14578.125000; 9.54947E-5
14583.984375; 9.07906E-5
14589.843750; 8.74492E-5
14595.703125; 9.54696E-5
14601.562500; 8.92384E-5
14607.421875; 9.43898E-5
14613.281250; 1.05762E-4
14619.140625; 1.00090E-4
14625.000000; 1.07727E-4
14630.859375; 1.20965E-4
14636.718750; 1.14942E-4
14642.578125; 9.59308E-5
14648.437500; 1.06180E-4
14654.296875; 1.00494E-4
14660.156250; 1.04617E-4
14666.015625; 1.10859E-4
14671.875000; 1.07326E-4
14677.734375; 9.78762E-5
14683.593750; 1.04570E-4
14689.453125; 1.03689E-4
14695.312500; 1.00985E-4
14701.171875; 1.08724E-4
14707.031250; 1.07209E-4
14712.890625; 9.97354E-5
14718.750000; 1.01264E-4
14724.609375; 1.02091E-4
14730.468750; 1.04501E-4
14736.328125; 9.08820E-5
14742.187500; 9.42172E-5
14748.046875; 1.12595E-4
14753.906250; 1.05656E-4
14759.765625; 1.06657E-4
14765.625000; 1.05233E-4
14771.484375; 1.13702E-4
14777.343750; 1.12636E-4
14783.203125; 1.04198E-4
14789.062500; 9.75557E-5
14794.921875; 1.00325E-4
14800.781250; 9.72878E-5
14806.640625; 9.57290E-5
14812.500000; 9.04329E-5
14818.359375; 8.94448E-5
14824.218750; 1.00566E-4
14830.078125; 1.10566E-4
14835.937500; 1.00390E-4
14841.796875; 1.01546E-4
14847.656250; 1.05274E-4
14853.515625; 1.02643E-4
14859.375000; 1.08487E-4
14865.234375; 1.06167E-4
14871.093750; 1.02387E-4
14876.953125; 9.46968E-5
14882.812500; 8.90377E-5
14888.671875; 9.52632E-5
14894.531250; 9.68942E-5
14900.390625; 1.00999E-4
14906.250000; 1.00014E-4
14912.109375; 1.05155E-4
14917.968750; 9.92550E-5
14923.828125; 9.39874E-5
14929.687500; 9.27151E-5
14935.546875; 9.85409E-5
14941.406250; 9.43292E-5
14947.265625; 9.58585E-5
14953.125000; 1.03365E-4
14958.984375; 1.04692E-4
14964.843750; 1.06093E-4
14970.703125; 1.09324E-4
14976.562500; 1.15437E-4
14982.421875; 1.06316E-4
14988.281250; 9.62128E-5
14994.140625; 9.41062E-5
15000.000000; 9.99867E-5
15005.859375; 9.82357E-5
15011.718750; 1.01111E-4
15017.578125; 1.05242E-4
15023.437500; 1.01718E-4
15029.296875; 1.04416E-4
15035.156250; 1.02075E-4
15041.015625; 1.07187E-4
15046.875000; 1.08950E-4
15052.734375; 1.04639E-4
15058.593750; 8.87202E-5
15064.453125; 9.65985E-5
15070.312500; 9.32422E-5
15076.171875; 9.23663E-5
15082.031250; 9.94632E-5
15087.890625; 1.08985E-4
15093.750000; 1.08252E-4
15099.609375; 1.10957E-4
15105.468750; 1.03582E-4
15111.328125; 1.09485E-4
15117.187500; 1.09311E-4
15123.046875; 1.11494E-4
15128.906250; 1.02272E-4
15134.765625; 1.06971E-4
15140.625000; 1.07876E-4
15146.484375; 1.02598E-4
15152.343750; 9.91298E-5
15158.203125; 1.01429E-4
15164.062500; 1.02814E-4
15169.921875; 1.01077E-4
15175.781250; 8.95216E-5
15181.640625; 1.02504E-4
15187.500000; 1.07301E-4
15193.359375; 9.49673E-5
15199.218750; 9.82599E-5
15205.078125; 9.23702E-5
15210.937500; 1.03797E-4
15216.796875; 1.01342E-4
15222.656250; 9.41661E-5
15228.515625; 1.01377E-4
15234.375000; 1.03437E-4
15240.234375; 1.09147E-4
15246.093750; 1.06014E-4
15251.953125; 1.01255E-4
15257.812500; 9.96008E-5
15263.671875; 1.03228E-4
15269.531250; 1.05691E-4
15275.390625; 1.06359E-4
15281.250000; 9.36408E-5
15287.109375; 9.71264E-5
15292.968750; 1.04753E-4
15298.828125; 1.00687E-4
15304.687500; 1.00554E-4
15310.546875; 1.00912E-4
15316.406250; 1.13736E-4
15322.265625; 1.12277E-4
15328.125000; 1.12588E-4
15333.984375; 1.05750E-4
15339.843750; 1.06476E-4
15345.703125; 1.06462E-4
15351.562500; 1.02096E-4
15357.421875; 1.04885E-4
15363.281250; 1.07484E-4
15369.140625; 1.04516E-4
15375.000000; 1.00588E-4
15380.859375; 9.41878E-5
15386.718750; 9.73464E-5
15392.578125; 1.09970E-4
15398.437500; 1.20198E-4
15404.296875; 1.16785E-4
15410.156250; 1.03335E-4
15416.015625; 1.01803E-4
15421.875000; 1.04386E-4
15427.734375; 1.01003E-4
15433.593750; 9.95200E-5
15439.453125; 9.87861E-5
15445.312500; 8.61373E-5
15451.171875; 9.35584E-5
15457.031250; 9.03538E-5
15462.890625; 8.67401E-5
15468.750000; 1.10846E-4
15474.609375; 1.14311E-4
15480.468750; 9.44106E-5
15486.328125; 9.65559E-5
15492.187500; 9.79622E-5
15498.046875; 1.03604E-4
15503.906250; 1.04880E-4
15509.765625; 9.55547E-5
15515.625000; 9.57740E-5
15521.484375; 1.01372E-4
15527.343750; 9.54391E-5
15533.203125; 9.14724E-5
15539.062500; 1.01549E-4
15544.921875; 1.07937E-4
15550.781250; 1.11524E-4
15556.640625; 1.02366E-4
15562.500000; 9.77574E-5
15568.359375; 9.12187E-5
15574.218750; 8.99128E-5
15580.078125; 1.01140E-4
15585.937500; 1.04855E-4
15591.796875; 1.04202E-4
15597.656250; 9.41481E-5
15603.515625; 9.18542E-5
15609.375000; 9.26360E-5
15615.234375; 9.73591E-5
15621.093750; 9.55505E-5
15626.953125; 1.08513E-4
15632.812500; 1.07257E-4
15638.671875; 9.51219E-5
15644.531250; 9.34784E-5
15650.390625; 9.37109E-5
15656.250000; 8.96474E-5
15662.109375; 9.26335E-5
15667.968750; 9.58601E-5
15673.828125; 1.01729E-4
15679.687500; 9.91607E-5
15685.546875; 9.96857E-5
15691.406250; 1.06536E-4
15697.265625; 1.06550E-4
15703.125000; 9.77095E-5
15708.984375; 8.84112E-5
15714.843750; 1.00455E-4
15720.703125; 9.56264E-5
15726.562500; 9.27830E-5
15732.421875; 9.63985E-5
15738.281250; 9.31759E-5
15744.140625; 9.28949E-5
15750.000000; 9.58926E-5
15755.859375; 8.92635E-5
15761.718750; 9.69305E-5
15767.578125; 1.00956E-4
15773.437500; 9.87146E-5
15779.296875; 9.97824E-5
15785.156250; 1.03984E-4
15791.015625; 1.04955E-4
15796.875000; 1.03375E-4
15802.734375; 1.04740E-4
15808.593750; 1.02428E-4
15814.453125; 9.23744E-5
15820.312500; 9.40314E-5
15826.171875; 1.13635E-4
15832.031250; 1.21891E-4
15837.890625; 1.13020E-4
15843.750000; 1.05843E-4
15849.609375; 1.05495E-4
15855.468750; 1.00279E-4
15861.328125; 9.95487E-5
15867.187500; 9.52492E-5
15873.046875; 1.00387E-4
15878.906250; 9.33006E-5
15884.765625; 9.22397E-5
15890.625000; 1.01343E-4
15896.484375; 9.63142E-5
15902.343750; 9.62907E-5
15908.203125; 9.84186E-5
15914.062500; 9.33737E-5
15919.921875; 9.62066E-5
15925.781250; 1.02563E-4
15931.640625; 1.07940E-4
15937.500000; 1.09293E-4
15943.359375; 1.08689E-4
15949.218750; 1.04603E-4
15955.078125; 1.02886E-4
15960.937500; 1.06502E-4
15966.796875; 1.03475E-4
15972.656250; 9.30384E-5
15978.515625; 1.08467E-4
15984.375000; 1.04408E-4
15990.234375; 9.85724E-5
15996.093750; 1.00780E-4
16001.953125; 1.00566E-4
16007.812500; 9.55919E-5
16013.671875; 9.30914E-5
16019.531250; 1.02141E-4
16025.390625; 1.04782E-4
16031.250000; 1.14794E-4
16037.109375; 9.97399E-5
16042.968750; 9.38340E-5
16048.828125; 1.03689E-4
16054.687500; 1.01130E-4
16060.546875; 9.54041E-5
16066.406250; 9.50309E-5
16072.265625; 9.58201E-5
16078.125000; 1.03640E-4
16083.984375; 1.07870E-4
16089.843750; 9.65813E-5
16095.703125; 9.24144E-5
16101.562500; 9.63020E-5
16107.421875; 8.93220E-5
16113.281250; 8.36990E-5
16119.140625; 9.47876E-5
16125.000000; 9.71981E-5
16130.859375; 9.78802E-5
16136.718750; 9.62057E-5
16142.578125; 1.00266E-4
16148.437500; 1.00774E-4
16154.296875; 1.06007E-4
16160.156250; 1.10523E-4
16166.015625; 1.07100E-4
16171.875000; 9.05727E-5
16177.734375; 9.01735E-5
16183.593750; 1.08148E-4
16189.453125; 1.07341E-4
16195.312500; 9.64906E-5
16201.171875; 9.16483E-5
16207.031250; 9.24473E-5
16212.890625; 9.37330E-5
16218.750000; 9.75939E-5
16224.609375; 1.01713E-4
16230.468750; 9.92309E-5
16236.328125; 1.04609E-4
16242.187500; 1.06215E-4
16248.046875; 1.05143E-4
16253.906250; 9.39431E-5
16259.765625; 9.14174E-5
16265.625000; 9.97505E-5
16271.484375; 1.06764E-4
16277.343750; 9.73930E-5
16283.203125; 9.23355E-5
16289.062500; 1.04755E-4
16294.921875; 1.02946E-4
16300.781250; 8.90548E-5
16306.640625; 9.04556E-5
16312.500000; 1.02205E-4
16318.359375; 1.03330E-4
16324.218750; 9.44153E-5
16330.078125; 8.80429E-5
16335.937500; 9.89974E-5
16341.796875; 1.03755E-4
16347.656250; 9.79516E-5
16353.515625; 9.08874E-5
16359.375000; 9.90487E-5
16365.234375; 9.99690E-5
16371.093750; 8.68748E-5
16376.953125; 9.60909E-5
16382.812500; 1.09213E-4
16388.671875; 1.04514E-4
16394.531250; 1.01330E-4
16400.390625; 9.55341E-5
16406.250000; 1.03626E-4
16412.109375; 9.96351E-5
16417.968750; 1.07149E-4
16423.828125; 1.10155E-4
16429.687500; 1.09417E-4
16435.546875; 9.53062E-5
16441.406250; 1.01801E-4
16447.265625; 1.03671E-4
16453.125000; 1.00181E-4
16458.984375; 1.08640E-4
16464.843750; 1.19595E-4
16470.703125; 1.08392E-4
16476.562500; 1.03487E-4
16482.421875; 1.10098E-4
16488.281250; 9.78676E-5
16494.140625; 9.93415E-5
16500.000000; 1.00432E-4
16505.859375; 1.02986E-4
16511.718750; 1.01724E-4
16517.578125; 9.62629E-5
16523.437500; 9.62817E-5
16529.296875; 8.99848E-5
16535.156250; 9.92506E-5
16541.015625; 1.02192E-4
16546.875000; 1.02479E-4
16552.734375; 1.00002E-4
16558.593750; 1.01701E-4
16564.453125; 8.98827E-5
16570.312500; 8.87878E-5
16576.171875; 9.68191E-5
16582.031250; 1.03018E-4
16587.890625; 9.58745E-5
16593.750000; 9.67040E-5
16599.609375; 9.89372E-5
16605.468750; 9.81914E-5
16611.328125; 1.00246E-4
16617.187500; 9.56520E-5
16623.046875; 9.14413E-5
16628.906250; 9.05141E-5
16634.765625; 8.77983E-5
16640.625000; 9.49143E-5
16646.484375; 9.53525E-5
16652.343750; 9.94113E-5
16658.203125; 9.86608E-5
16664.062500; 9.81217E-5
16669.921875; 1.04116E-4
16675.781250; 1.07879E-4
16681.640625; 9.77937E-5
16687.500000; 1.03798E-4
16693.359375; 1.09397E-4
16699.218750; 1.01250E-4
16705.078125; 9.54465E-5
16710.937500; 1.03079E-4
16716.796875; 9.61086E-5
16722.656250; 9.95951E-5
16728.515625; 1.03191E-4
16734.375000; 1.02141E-4
16740.234375; 1.05320E-4
16746.093750; 1.00850E-4
16751.953125; 1.02137E-4
16757.812500; 1.01691E-4
16763.671875; 1.01811E-4
16769.531250; 1.00857E-4
16775.390625; 9.32084E-5
16781.250000; 9.21160E-5
16787.109375; 1.01249E-4
16792.968750; 1.02344E-4
16798.828125; 1.02972E-4
16804.687500; 1.00330E-4
16810.546875; 9.97584E-5
16816.406250; 9.99419E-5
16822.265625; 9.49410E-5
16828.125000; 8.58789E-5
16833.984375; 9.37370E-5
16839.843750; 1.00249E-4
16845.703125; 1.00211E-4
16851.562500; 9.62730E-5
16857.421875; 9.98565E-5
16863.281250; 9.42034E-5
16869.140625; 9.37139E-5
16875.000000; 1.00972E-4
16880.859375; 1.03956E-4
16886.718750; 9.97565E-5
16892.578125; 1.03865E-4
16898.437500; 1.09266E-4
16904.296875; 1.08547E-4
16910.156250; 1.10401E-4
16916.015625; 1.22458E-4
16921.875000; 1.07981E-4
16927.734375; 9.60816E-5
16933.593750; 1.03485E-4
16939.453125; 1.02054E-4
16945.312500; 9.65566E-5
16951.171875; 9.43515E-5
16957.031250; 9.68122E-5
16962.890625; 9.93315E-5
16968.750000; 9.15331E-5
16974.609375; 9.52797E-5
16980.468750; 1.04355E-4
16986.328125; 9.77848E-5
16992.187500; 8.92961E-5
16998.046875; 9.42266E-5
17003.906250; 1.05095E-4
17009.765625; 1.11002E-4
17015.625000; 1.00111E-4
17021.484375; 9.38189E-5
17027.343750; 9.12727E-5
17033.203125; 8.85728E-5
17039.062500; 9.36638E-5
17044.921875; 8.35383E-5
17050.781250; 9.05713E-5
17056.640625; 1.02677E-4
17062.500000; 1.02036E-4
17068.359375; 9.88885E-5
17074.218750; 9.55200E-5
17080.078125; 9.23537E-5
17085.937500; 9.33545E-5
17091.796875; 9.82374E-5
17097.656250; 1.13004E-4
17103.515625; 1.06024E-4
17109.375000; 9.97278E-5
17115.234375; 9.98339E-5
17121.093750; 1.02956E-4
17126.953125; 9.69912E-5
17132.812500; 9.75089E-5
17138.671875; 9.66405E-5
17144.531250; 1.00845E-4
17150.390625; 1.01708E-4
17156.250000; 9.81117E-5
17162.109375; 9.71081E-5
17167.968750; 1.00502E-4
17173.828125; 1.08051E-4
17179.687500; 1.02230E-4
17185.546875; 1.11736E-4
17191.406250; 1.10965E-4
17197.265625; 1.12952E-4
17203.125000; 1.09691E-4
17208.984375; 1.03081E-4
17214.843750; 9.96599E-5
17220.703125; 9.56849E-5
17226.562500; 1.07350E-4
17232.421875; 1.03011E-4
17238.281250; 9.69824E-5
17244.140625; 1.03830E-4
17250.000000; 1.03434E-4
17255.859375; 9.62634E-5
17261.718750; 9.42338E-5
17267.578125; 1.01729E-4
17273.437500; 1.08968E-4
17279.296875; 1.03667E-4
17285.156250; 9.46095E-5
17291.015625; 9.16438E-5
17296.875000; 9.20377E-5
17302.734375; 9.70807E-5
17308.593750; 1.01227E-4
17314.453125; 9.65192E-5
17320.312500; 1.07954E-4
17326.171875; 1.06621E-4
17332.031250; 1.04268E-4
17337.890625; 1.04078E-4
17343.750000; 1.02517E-4
17349.609375; 1.07263E-4
17355.468750; 9.84843E-5
17361.328125; 1.02267E-4
17367.187500; 1.05431E-4
17373.046875; 1.01460E-4
17378.906250; 8.90554E-5
17384.765625; 9.51447E-5
17390.625000; 9.64828E-5
17396.484375; 9.52135E-5
17402.343750; 1.00108E-4
17408.203125; 9.03924E-5
17414.062500; 9.08612E-5
17419.921875; 9.34427E-5
17425.781250; 1.02555E-4
17431.640625; 9.83351E-5
17437.500000; 9.72969E-5
17443.359375; 1.07894E-4
17449.218750; 9.44644E-5
17455.078125; 8.64760E-5
17460.937500; 9.76604E-5
17466.796875; 9.70924E-5
17472.656250; 1.06534E-4
17478.515625; 1.02220E-4
17484.375000; 9.16874E-5
17490.234375; 9.88025E-5
17496.093750; 1.05116E-4
17501.953125; 1.09452E-4
17507.812500; 1.10792E-4
17513.671875; 1.06502E-4
17519.531250; 9.83243E-5
17525.390625; 9.94683E-5
17531.250000; 9.47286E-5
17537.109375; 9.68033E-5
17542.968750; 1.04005E-4
17548.828125; 1.06136E-4
17554.687500; 9.26789E-5
17560.546875; 1.02284E-4
17566.406250; 9.45505E-5
17572.265625; 9.80353E-5
17578.125000; 9.22792E-5
17583.984375; 1.03156E-4
17589.843750; 1.09348E-4
17595.703125; 1.06587E-4
17601.562500; 9.61727E-5
17607.421875; 1.01256E-4
17613.281250; 1.04694E-4
17619.140625; 9.27271E-5
17625.000000; 9.38795E-5
17630.859375; 1.04054E-4
17636.718750; 9.68321E-5
17642.578125; 9.25034E-5
17648.437500; 9.40943E-5
17654.296875; 1.04975E-4
17660.156250; 1.07718E-4
17666.015625; 9.90049E-5
17671.875000; 9.50494E-5
17677.734375; 8.90857E-5
17683.593750; 1.02541E-4
17689.453125; 1.00334E-4
17695.312500; 9.59437E-5
17701.171875; 9.44886E-5
17707.031250; 9.92312E-5
17712.890625; 1.02371E-4
17718.750000; 1.07254E-4
17724.609375; 1.10994E-4
17730.468750; 1.10455E-4
17736.328125; 1.11290E-4
17742.187500; 1.01431E-4
17748.046875; 1.01834E-4
17753.906250; 1.00713E-4
17759.765625; 1.00518E-4
17765.625000; 9.92671E-5
17771.484375; 9.72962E-5
17777.343750; 1.01758E-4
17783.203125; 9.43317E-5
17789.062500; 9.30378E-5
17794.921875; 9.96966E-5
17800.781250; 1.10757E-4
17806.640625; 1.06325E-4
17812.500000; 1.09548E-4
17818.359375; 1.06969E-4
17824.218750; 8.98599E-5
17830.078125; 9.36422E-5
17835.937500; 9.54213E-5
17841.796875; 1.00790E-4
17847.656250; 1.00241E-4
17853.515625; 9.65633E-5
17859.375000; 9.83373E-5
17865.234375; 9.91251E-5
17871.093750; 9.25319E-5
17876.953125; 9.68854E-5
17882.812500; 9.71906E-5
17888.671875; 9.99468E-5
17894.531250; 9.56854E-5
17900.390625; 9.03206E-5
17906.250000; 9.82131E-5
17912.109375; 9.57014E-5
17917.968750; 1.10773E-4
17923.828125; 1.04027E-4
17929.687500; 9.80119E-5
17935.546875; 1.02929E-4
17941.406250; 1.06037E-4
17947.265625; 1.02287E-4
17953.125000; 1.04644E-4
17958.984375; 1.10264E-4
17964.843750; 1.10288E-4
17970.703125; 9.45198E-5
17976.562500; 1.09569E-4
17982.421875; 1.13206E-4
17988.281250; 1.04210E-4
17994.140625; 1.02116E-4
18000.000000; 1.01664E-4
18005.859375; 9.44543E-5
18011.718750; 8.74526E-5
18017.578125; 9.30177E-5
18023.437500; 9.66555E-5
18029.296875; 9.76073E-5
18035.156250; 1.03401E-4
18041.015625; 9.86987E-5
18046.875000; 9.91436E-5
18052.734375; 9.66412E-5
18058.593750; 8.92332E-5
18064.453125; 9.88490E-5
18070.312500; 1.00311E-4
18076.171875; 1.03215E-4
18082.031250; 1.17129E-4
18087.890625; 9.81230E-5
18093.750000; 9.97486E-5
18099.609375; 1.10977E-4
18105.468750; 1.16862E-4
18111.328125; 1.00160E-4
18117.187500; 1.00669E-4
18123.046875; 1.01862E-4
18128.906250; 9.93718E-5
18134.765625; 1.05202E-4
18140.625000; 1.03274E-4
18146.484375; 9.66023E-5
18152.343750; 9.13789E-5
18158.203125; 9.80047E-5
18164.062500; 9.54948E-5
18169.921875; 9.60058E-5
18175.781250; 1.10003E-4
18181.640625; 1.12190E-4
18187.500000; 1.02041E-4
18193.359375; 9.91868E-5
18199.218750; 8.39971E-5
18205.078125; 9.16031E-5
18210.937500; 9.82125E-5
18216.796875; 9.77492E-5
18222.656250; 1.02612E-4
18228.515625; 1.07670E-4
18234.375000; 9.24587E-5
18240.234375; 1.04316E-4
18246.093750; 1.02170E-4
18251.953125; 9.95282E-5
18257.812500; 1.06015E-4
18263.671875; 9.52282E-5
18269.531250; 1.02864E-4
18275.390625; 1.00764E-4
18281.250000; 9.17494E-5
18287.109375; 9.65732E-5
18292.968750; 1.10070E-4
18298.828125; 1.11954E-4
18304.687500; 1.04867E-4
18310.546875; 9.96506E-5
18316.406250; 1.02415E-4
18322.265625; 1.10144E-4
18328.125000; 1.05021E-4
18333.984375; 1.06651E-4
18339.843750; 1.00163E-4
18345.703125; 9.37370E-5
18351.562500; 9.47152E-5
18357.421875; 9.07918E-5
18363.281250; 8.98918E-5
18369.140625; 9.35224E-5
18375.000000; 9.21218E-5
18380.859375; 9.16789E-5
18386.718750; 8.99677E-5
18392.578125; 8.08445E-5
18398.437500; 8.64180E-5
18404.296875; 1.04938E-4
18410.156250; 1.07686E-4
18416.015625; 9.42509E-5
18421.875000; 8.62166E-5
18427.734375; 9.63815E-5
18433.593750; 1.07217E-4
18439.453125; 9.74987E-5
18445.312500; 9.77109E-5
18451.171875; 1.02267E-4
18457.031250; 9.67260E-5
18462.890625; 1.01368E-4
18468.750000; 9.76608E-5
18474.609375; 8.89762E-5
18480.468750; 9.80278E-5
18486.328125; 1.01531E-4
18492.187500; 1.03318E-4
18498.046875; 1.00225E-4
18503.906250; 1.05013E-4
18509.765625; 1.02600E-4
18515.625000; 9.58146E-5
18521.484375; 1.00956E-4
18527.343750; 1.06892E-4
18533.203125; 9.88348E-5
18539.062500; 9.82483E-5
18544.921875; 9.84052E-5
18550.781250; 8.94892E-5
18556.640625; 8.61757E-5
18562.500000; 9.02180E-5
18568.359375; 9.02175E-5
18574.218750; 9.72058E-5
18580.078125; 1.02646E-4
18585.937500; 9.36099E-5
18591.796875; 1.00081E-4
18597.656250; 9.56212E-5
18603.515625; 9.14903E-5
18609.375000; 8.91750E-5
18615.234375; 8.31509E-5
18621.093750; 8.87929E-5
18626.953125; 8.93020E-5
18632.812500; 8.89707E-5
18638.671875; 9.48733E-5
18644.531250; 9.67088E-5
18650.390625; 9.40943E-5
18656.250000; 9.28263E-5
18662.109375; 8.60389E-5
18667.968750; 9.33805E-5
18673.828125; 1.00813E-4
18679.687500; 9.73410E-5
18685.546875; 9.41748E-5
18691.406250; 1.08632E-4
18697.265625; 1.06495E-4
18703.125000; 1.07643E-4
18708.984375; 9.85738E-5
18714.843750; 1.02875E-4
18720.703125; 9.53285E-5
18726.562500; 8.27859E-5
18732.421875; 8.39025E-5
18738.281250; 9.36052E-5
18744.140625; 9.77383E-5
18750.000000; 8.90242E-5
18755.859375; 9.93752E-5
18761.718750; 1.01183E-4
18767.578125; 1.03623E-4
18773.437500; 1.15747E-4
18779.296875; 1.02327E-4
18785.156250; 8.27896E-5
18791.015625; 8.05188E-5
18796.875000; 9.57565E-5
18802.734375; 1.04620E-4
18808.593750; 1.05667E-4
18814.453125; 1.11545E-4
18820.312500; 9.49535E-5
18826.171875; 9.59786E-5
18832.031250; 9.68283E-5
18837.890625; 9.81730E-5
18843.750000; 1.02022E-4
18849.609375; 9.84808E-5
18855.468750; 9.42152E-5
18861.328125; 8.99352E-5
18867.187500; 8.49525E-5
18873.046875; 8.81317E-5
18878.906250; 9.07666E-5
18884.765625; 8.98313E-5
18890.625000; 9.39714E-5
18896.484375; 9.94227E-5
18902.343750; 9.59065E-5
18908.203125; 9.73395E-5
18914.062500; 1.14099E-4
18919.921875; 1.03706E-4
18925.781250; 9.82581E-5
18931.640625; 9.84035E-5
18937.500000; 9.97540E-5
18943.359375; 1.07912E-4
18949.218750; 9.68764E-5
18955.078125; 9.60157E-5
18960.937500; 9.07014E-5
18966.796875; 9.62082E-5
18972.656250; 1.10241E-4
18978.515625; 1.11492E-4
18984.375000; 9.23275E-5
18990.234375; 8.66016E-5
18996.093750; 8.99503E-5
19001.953125; 9.05581E-5
19007.812500; 9.02590E-5
19013.671875; 9.57959E-5
19019.531250; 9.93217E-5
19025.390625; 9.86008E-5
19031.250000; 1.02878E-4
19037.109375; 1.00129E-4
19042.968750; 1.08684E-4
19048.828125; 1.06003E-4
19054.687500; 9.83894E-5
19060.546875; 1.03418E-4
19066.406250; 1.07608E-4
19072.265625; 9.97382E-5
19078.125000; 9.80376E-5
19083.984375; 1.02585E-4
19089.843750; 1.01150E-4
19095.703125; 1.02973E-4
19101.562500; 8.88123E-5
19107.421875; 9.26500E-5
19113.281250; 1.01062E-4
19119.140625; 1.02913E-4
19125.000000; 9.25860E-5
19130.859375; 9.39576E-5
19136.718750; 9.08518E-5
19142.578125; 9.30807E-5
19148.437500; 9.25412E-5
19154.296875; 8.75191E-5
19160.156250; 1.03221E-4
19166.015625; 1.05350E-4
19171.875000; 9.28380E-5
19177.734375; 1.00154E-4
19183.593750; 9.60629E-5
19189.453125; 1.00427E-4
19195.312500; 9.16548E-5
19201.171875; 8.68842E-5
19207.031250; 9.98708E-5
19212.890625; 8.94320E-5
19218.750000; 9.70524E-5
19224.609375; 9.74059E-5
19230.468750; 1.03003E-4
19236.328125; 9.51964E-5
19242.187500; 9.99626E-5
19248.046875; 9.55373E-5
19253.906250; 8.94402E-5
19259.765625; 1.02169E-4
19265.625000; 9.59301E-5
19271.484375; 9.22629E-5
19277.343750; 9.40040E-5
19283.203125; 8.86336E-5
19289.062500; 9.29359E-5
19294.921875; 8.86978E-5
19300.781250; 9.62259E-5
19306.640625; 1.04209E-4
19312.500000; 1.02658E-4
19318.359375; 9.17440E-5
19324.218750; 8.97399E-5
19330.078125; 1.03422E-4
19335.937500; 9.48192E-5
19341.796875; 9.33172E-5
19347.656250; 1.04531E-4
19353.515625; 1.01842E-4
19359.375000; 9.60595E-5
19365.234375; 9.60031E-5
19371.093750; 9.94712E-5
19376.953125; 1.06212E-4
19382.812500; 9.89551E-5
19388.671875; 9.78614E-5
19394.531250; 9.55013E-5
19400.390625; 9.30536E-5
19406.250000; 9.03526E-5
19412.109375; 9.40429E-5
19417.968750; 1.01069E-4
19423.828125; 1.07754E-4
19429.687500; 1.04154E-4
19435.546875; 1.06279E-4
19441.406250; 9.47314E-5
19447.265625; 9.06184E-5
19453.125000; 1.03431E-4
19458.984375; 1.02646E-4
19464.843750; 9.09006E-5
19470.703125; 9.67477E-5
19476.562500; 9.73768E-5
19482.421875; 9.94649E-5
19488.281250; 1.03790E-4
19494.140625; 1.05139E-4
19500.000000; 1.04032E-4
19505.859375; 9.55649E-5
19511.718750; 8.79931E-5
19517.578125; 8.61061E-5
19523.437500; 9.71860E-5
19529.296875; 1.00971E-4
19535.156250; 9.80049E-5
19541.015625; 8.83092E-5
19546.875000; 1.03169E-4
19552.734375; 1.06906E-4
19558.593750; 1.02621E-4
19564.453125; 9.19382E-5
19570.312500; 9.43249E-5
19576.171875; 1.05313E-4
19582.031250; 1.04168E-4
19587.890625; 9.52692E-5
19593.750000; 1.05640E-4
19599.609375; 1.07101E-4
19605.468750; 9.78940E-5
19611.328125; 9.45932E-5
19617.187500; 9.34821E-5
19623.046875; 9.61541E-5
19628.906250; 9.47127E-5
19634.765625; 9.32272E-5
19640.625000; 9.91944E-5
19646.484375; 9.69687E-5
19652.343750; 9.28079E-5
19658.203125; 9.32660E-5
19664.062500; 9.30476E-5
19669.921875; 8.01885E-5
19675.781250; 8.77648E-5
19681.640625; 1.00008E-4
19687.500000; 1.02183E-4
19693.359375; 1.01233E-4
19699.218750; 1.02574E-4
19705.078125; 9.87155E-5
19710.937500; 1.00864E-4
19716.796875; 1.01452E-4
19722.656250; 9.12344E-5
19728.515625; 1.06900E-4
19734.375000; 1.12660E-4
19740.234375; 1.11180E-4
19746.093750; 9.92877E-5
19751.953125; 9.28287E-5
19757.812500; 9.43643E-5
19763.671875; 1.00674E-4
19769.531250; 1.01737E-4
19775.390625; 1.00868E-4
19781.250000; 8.64806E-5
19787.109375; 8.66510E-5
19792.968750; 8.56356E-5
19798.828125; 9.28266E-5
19804.687500; 9.93080E-5
19810.546875; 1.04483E-4
19816.406250; 9.65771E-5
19822.265625; 8.73778E-5
19828.125000; 9.52159E-5
19833.984375; 9.89167E-5
19839.843750; 1.01293E-4
19845.703125; 1.03426E-4
19851.562500; 1.09219E-4
19857.421875; 1.05604E-4
19863.281250; 1.05171E-4
19869.140625; 1.14815E-4
19875.000000; 1.02956E-4
19880.859375; 9.43630E-5
19886.718750; 1.02381E-4
19892.578125; 1.05777E-4
19898.437500; 1.03822E-4
19904.296875; 1.03450E-4
19910.156250; 9.28740E-5
19916.015625; 9.36946E-5
19921.875000; 9.23031E-5
19927.734375; 8.57688E-5
19933.593750; 8.59732E-5
19939.453125; 9.01355E-5
19945.312500; 9.82023E-5
19951.171875; 9.59949E-5
19957.031250; 1.05808E-4
19962.890625; 1.10772E-4
19968.750000; 1.08375E-4
19974.609375; 1.00077E-4
19980.468750; 9.67004E-5
19986.328125; 8.85341E-5
19992.187500; 9.95788E-5
19998.046875; 1.08101E-4
20003.906250; 1.03788E-4
20009.765625; 1.00486E-4
20015.625000; 9.36403E-5
20021.484375; 9.11749E-5
20027.343750; 9.21512E-5
20033.203125; 9.89817E-5
20039.062500; 1.10371E-4
20044.921875; 1.04571E-4
20050.781250; 1.01153E-4
20056.640625; 1.02708E-4
20062.500000; 1.04461E-4
20068.359375; 9.85873E-5
20074.218750; 9.60520E-5
20080.078125; 1.02466E-4
20085.937500; 9.73239E-5
20091.796875; 9.48963E-5
20097.656250; 9.47494E-5
20103.515625; 1.05539E-4
20109.375000; 1.02764E-4
20115.234375; 9.54426E-5
20121.093750; 8.95856E-5
20126.953125; 8.25421E-5
20132.812500; 8.94589E-5
20138.671875; 9.85823E-5
20144.531250; 9.23267E-5
20150.390625; 9.44574E-5
20156.250000; 1.03627E-4
20162.109375; 9.56344E-5
20167.968750; 9.48975E-5
20173.828125; 1.02119E-4
20179.687500; 1.14222E-4
20185.546875; 1.06823E-4
20191.406250; 1.01199E-4
20197.265625; 9.52522E-5
20203.125000; 9.63049E-5
20208.984375; 9.17962E-5
20214.843750; 9.85460E-5
20220.703125; 9.83627E-5
20226.562500; 1.04385E-4
20232.421875; 1.00705E-4
20238.281250; 9.47823E-5
20244.140625; 9.39203E-5
20250.000000; 1.03765E-4
20255.859375; 9.30352E-5
20261.718750; 9.82001E-5
20267.578125; 8.99447E-5
20273.437500; 8.90892E-5
20279.296875; 9.67301E-5
20285.156250; 1.03114E-4
20291.015625; 1.12524E-4
20296.875000; 1.03363E-4
20302.734375; 1.02607E-4
20308.593750; 9.79791E-5
20314.453125; 9.08680E-5
20320.312500; 9.77696E-5
20326.171875; 9.33340E-5
20332.031250; 9.97305E-5
20337.890625; 9.61057E-5
20343.750000; 9.79943E-5
20349.609375; 1.00721E-4
20355.468750; 9.78114E-5
20361.328125; 9.71423E-5
20367.187500; 9.87935E-5
20373.046875; 1.01224E-4
20378.906250; 9.95370E-5
20384.765625; 9.27323E-5
20390.625000; 9.04362E-5
20396.484375; 9.50628E-5
20402.343750; 8.85059E-5
20408.203125; 8.54420E-5
20414.062500; 8.60062E-5
20419.921875; 9.91530E-5
20425.781250; 9.36636E-5
20431.640625; 8.85380E-5
20437.500000; 1.00003E-4
20443.359375; 9.78260E-5
20449.218750; 9.85330E-5
20455.078125; 9.50587E-5
20460.937500; 1.01197E-4
20466.796875; 1.04099E-4
20472.656250; 9.94553E-5
20478.515625; 9.55475E-5
20484.375000; 8.92722E-5
20490.234375; 9.46621E-5
20496.093750; 9.51761E-5
20501.953125; 9.85629E-5
20507.812500; 1.00830E-4
20513.671875; 9.61780E-5
20519.531250; 9.92644E-5
20525.390625; 9.84125E-5
20531.250000; 1.05760E-4
20537.109375; 1.01048E-4
20542.968750; 1.06879E-4
20548.828125; 9.41269E-5
20554.687500; 9.49293E-5
20560.546875; 1.04002E-4
20566.406250; 9.83590E-5
20572.265625; 9.63333E-5
20578.125000; 9.11645E-5
20583.984375; 8.89352E-5
20589.843750; 8.99251E-5
20595.703125; 8.47046E-5
20601.562500; 9.12199E-5
20607.421875; 9.45914E-5
20613.281250; 1.00593E-4
20619.140625; 1.02221E-4
20625.000000; 9.85574E-5
20630.859375; 9.80117E-5
20636.718750; 9.78883E-5
20642.578125; 9.65084E-5
20648.437500; 9.38645E-5
20654.296875; 9.43862E-5
20660.156250; 8.81648E-5
20666.015625; 9.05572E-5
20671.875000; 9.74522E-5
20677.734375; 9.44706E-5
20683.593750; 1.00022E-4
20689.453125; 9.34655E-5
20695.312500; 9.82005E-5
20701.171875; 1.01565E-4
20707.031250; 8.95271E-5
20712.890625; 9.02168E-5
20718.750000; 9.26449E-5
20724.609375; 9.51011E-5
20730.468750; 9.60200E-5
20736.328125; 9.16840E-5
20742.187500; 9.81034E-5
20748.046875; 9.73188E-5
20753.906250; 9.52276E-5
20759.765625; 9.52888E-5
20765.625000; 8.78321E-5
20771.484375; 8.93837E-5
20777.343750; 9.91830E-5
20783.203125; 9.53349E-5
20789.062500; 8.78900E-5
20794.921875; 8.14762E-5
20800.781250; 9.66390E-5
20806.640625; 9.39619E-5
20812.500000; 8.88464E-5
20818.359375; 9.20714E-5
20824.218750; 9.54046E-5
20830.078125; 9.20055E-5
20835.937500; 9.44622E-5
20841.796875; 1.05543E-4
20847.656250; 1.00494E-4
20853.515625; 9.90337E-5
20859.375000; 1.04374E-4
20865.234375; 9.50521E-5
20871.093750; 8.46707E-5
20876.953125; 9.44157E-5
20882.812500; 9.53702E-5
20888.671875; 9.38184E-5
20894.531250; 9.80099E-5
20900.390625; 1.02638E-4
20906.250000; 9.92628E-5
20912.109375; 9.11460E-5
20917.968750; 9.07823E-5
20923.828125; 1.00346E-4
20929.687500; 9.45323E-5
20935.546875; 9.02399E-5
20941.406250; 9.68167E-5
20947.265625; 9.72589E-5
20953.125000; 9.16027E-5
20958.984375; 8.94353E-5
20964.843750; 9.76731E-5
20970.703125; 1.03988E-4
20976.562500; 9.62158E-5
20982.421875; 8.33709E-5
20988.281250; 8.99895E-5
20994.140625; 9.35552E-5
21000.000000; 9.65363E-5
21005.859375; 9.27182E-5
21011.718750; 9.70715E-5
21017.578125; 1.00470E-4
21023.437500; 9.54539E-5
21029.296875; 9.23715E-5
21035.156250; 1.00211E-4
21041.015625; 9.88466E-5
21046.875000; 1.06234E-4
21052.734375; 1.10439E-4
21058.593750; 9.91060E-5
21064.453125; 9.40763E-5
21070.312500; 9.79949E-5
21076.171875; 1.02828E-4
21082.031250; 9.66293E-5
21087.890625; 9.47386E-5
21093.750000; 9.06101E-5
21099.609375; 9.03328E-5
21105.468750; 9.70214E-5
21111.328125; 1.05915E-4
21117.187500; 1.00646E-4
21123.046875; 9.07953E-5
21128.906250; 9.25219E-5
21134.765625; 1.06729E-4
21140.625000; 1.07098E-4
21146.484375; 1.05696E-4
21152.343750; 9.41899E-5
21158.203125; 9.56957E-5
21164.062500; 9.93385E-5
21169.921875; 9.89484E-5
21175.781250; 8.47032E-5
21181.640625; 9.52445E-5
21187.500000; 1.06309E-4
21193.359375; 1.06443E-4
21199.218750; 9.49973E-5
21205.078125; 1.04061E-4
21210.937500; 9.37851E-5
21216.796875; 9.32861E-5
21222.656250; 9.74465E-5
21228.515625; 9.42075E-5
21234.375000; 9.58110E-5
21240.234375; 9.40133E-5
21246.093750; 9.02348E-5
21251.953125; 9.13095E-5
21257.812500; 9.62600E-5
21263.671875; 9.80293E-5
21269.531250; 1.06286E-4
21275.390625; 9.89240E-5
21281.250000; 9.22087E-5
21287.109375; 9.37961E-5
21292.968750; 9.35361E-5
21298.828125; 9.22855E-5
21304.687500; 9.35868E-5
21310.546875; 9.28962E-5
21316.406250; 9.42612E-5
21322.265625; 9.66242E-5
21328.125000; 1.05551E-4
21333.984375; 1.03161E-4
21339.843750; 9.56926E-5
21345.703125; 9.77955E-5
21351.562500; 9.59095E-5
21357.421875; 1.05289E-4
21363.281250; 9.81831E-5
21369.140625; 1.00048E-4
21375.000000; 9.32596E-5
21380.859375; 8.42226E-5
21386.718750; 8.91639E-5
21392.578125; 1.02070E-4
21398.437500; 9.79771E-5
21404.296875; 8.57171E-5
21410.156250; 9.45967E-5
21416.015625; 1.03168E-4
21421.875000; 9.31963E-5
21427.734375; 9.15549E-5
21433.593750; 9.28104E-5
21439.453125; 9.70403E-5
21445.312500; 9.32806E-5
21451.171875; 9.04333E-5
21457.031250; 8.39530E-5
21462.890625; 9.64025E-5
21468.750000; 8.67036E-5
21474.609375; 7.83642E-5
21480.468750; 9.35010E-5
21486.328125; 1.00538E-4
21492.187500; 9.89458E-5
21498.046875; 1.00404E-4
21503.906250; 1.00038E-4
21509.765625; 9.47285E-5
21515.625000; 9.68043E-5
21521.484375; 1.07805E-4
21527.343750; 9.96091E-5
21533.203125; 9.43487E-5
21539.062500; 9.89408E-5
21544.921875; 9.36270E-5
21550.781250; 9.51689E-5
21556.640625; 1.06035E-4
21562.500000; 1.03106E-4
21568.359375; 9.34054E-5
21574.218750; 8.71431E-5
21580.078125; 8.59857E-5
21585.937500; 9.50253E-5
21591.796875; 1.01497E-4
21597.656250; 9.71431E-5
21603.515625; 1.00117E-4
21609.375000; 1.03163E-4
21615.234375; 1.08079E-4
21621.093750; 9.75857E-5
21626.953125; 8.47354E-5
21632.812500; 9.13674E-5
21638.671875; 9.24263E-5
21644.531250; 8.43204E-5
21650.390625; 9.63812E-5
21656.250000; 1.02806E-4
21662.109375; 1.01131E-4
21667.968750; 1.06906E-4
21673.828125; 1.11605E-4
21679.687500; 9.62366E-5
21685.546875; 9.36496E-5
21691.406250; 9.77033E-5
21697.265625; 9.09998E-5
21703.125000; 9.65095E-5
21708.984375; 9.47406E-5
21714.843750; 9.85257E-5
21720.703125; 9.85399E-5
21726.562500; 9.52410E-5
21732.421875; 9.72614E-5
21738.281250; 9.46580E-5
21744.140625; 8.98608E-5
21750.000000; 8.70078E-5
21755.859375; 9.91129E-5
21761.718750; 1.00696E-4
21767.578125; 9.78903E-5
21773.437500; 1.01862E-4
21779.296875; 9.05032E-5
21785.156250; 8.03106E-5
21791.015625; 8.72718E-5
21796.875000; 9.73786E-5
21802.734375; 1.00799E-4
21808.593750; 9.24642E-5
21814.453125; 8.88074E-5
21820.312500; 9.57762E-5
21826.171875; 9.49935E-5
21832.031250; 1.00973E-4
21837.890625; 1.04995E-4
21843.750000; 9.31328E-5
21849.609375; 9.88676E-5
21855.468750; 9.34378E-5
21861.328125; 1.01904E-4
21867.187500; 1.08643E-4
21873.046875; 1.00090E-4
21878.906250; 9.94227E-5
21884.765625; 8.76984E-5
21890.625000; 8.84244E-5
21896.484375; 9.79336E-5
21902.343750; 9.62126E-5
21908.203125; 9.77264E-5
21914.062500; 9.66718E-5
21919.921875; 9.68778E-5
21925.781250; 9.73299E-5
21931.640625; 1.04524E-4
21937.500000; 1.06890E-4
21943.359375; 9.83900E-5
21949.218750; 9.41954E-5
21955.078125; 8.42581E-5
21960.937500; 9.35335E-5
21966.796875; 9.80633E-5
21972.656250; 8.97802E-5
21978.515625; 8.30287E-5
21984.375000; 9.24409E-5
21990.234375; 9.74801E-5
21996.093750; 9.94400E-5
22001.953125; 8.88629E-5
22007.812500; 9.03887E-5
22013.671875; 9.41905E-5
22019.531250; 9.09501E-5
22025.390625; 8.89357E-5
22031.250000; 8.07977E-5
22037.109375; 8.54078E-5
22042.968750; 9.52887E-5
22048.828125; 9.12935E-5
22054.687500; 8.88606E-5
22060.546875; 9.85852E-5
22066.406250; 8.95549E-5
22072.265625; 9.69110E-5
22078.125000; 1.01477E-4
22083.984375; 9.51534E-5
22089.843750; 9.28238E-5
22095.703125; 9.31827E-5
22101.562500; 9.87211E-5
22107.421875; 9.46854E-5
22113.281250; 9.80465E-5
22119.140625; 9.54576E-5
22125.000000; 8.88031E-5
22130.859375; 8.59289E-5
22136.718750; 9.03228E-5
22142.578125; 9.67919E-5
22148.437500; 9.99509E-5
22154.296875; 9.80488E-5
22160.156250; 9.03525E-5
22166.015625; 9.06755E-5
22171.875000; 9.64863E-5
22177.734375; 9.72938E-5
22183.593750; 8.98651E-5
22189.453125; 8.26550E-5
22195.312500; 9.50256E-5
22201.171875; 8.61792E-5
22207.031250; 8.30818E-5
22212.890625; 8.71818E-5
22218.750000; 9.73651E-5
22224.609375; 9.34803E-5
22230.468750; 8.44646E-5
22236.328125; 8.89159E-5
22242.187500; 9.25990E-5
22248.046875; 9.66176E-5
22253.906250; 1.04056E-4
22259.765625; 9.54916E-5
22265.625000; 9.15016E-5
22271.484375; 9.21875E-5
22277.343750; 9.05168E-5
22283.203125; 8.66468E-5
22289.062500; 9.70513E-5
22294.921875; 1.00763E-4
22300.781250; 8.90857E-5
22306.640625; 8.55414E-5
22312.500000; 8.41715E-5
22318.359375; 9.65104E-5
22324.218750; 9.85872E-5
22330.078125; 9.78774E-5
22335.937500; 9.97988E-5
22341.796875; 9.47234E-5
22347.656250; 8.72745E-5
22353.515625; 8.28264E-5
22359.375000; 9.00742E-5
22365.234375; 8.82113E-5
22371.093750; 8.98040E-5
22376.953125; 9.36196E-5
22382.812500; 9.21432E-5
22388.671875; 9.36605E-5
22394.531250; 8.85839E-5
22400.390625; 8.60068E-5
22406.250000; 8.80453E-5
22412.109375; 7.90270E-5
22417.968750; 8.92906E-5
22423.828125; 9.81882E-5
22429.687500; 9.65543E-5
22435.546875; 8.98778E-5
22441.406250; 8.40017E-5
22447.265625; 9.20132E-5
22453.125000; 8.83677E-5
22458.984375; 9.30316E-5
22464.843750; 9.05390E-5
22470.703125; 9.45672E-5
22476.562500; 9.20163E-5
22482.421875; 8.97270E-5
22488.281250; 8.76835E-5
22494.140625; 8.28762E-5
22500.000000; 8.59959E-5
22505.859375; 8.68726E-5
22511.718750; 9.17627E-5
22517.578125; 1.01115E-4
22523.437500; 9.79174E-5
22529.296875; 9.10883E-5
22535.156250; 7.80329E-5
22541.015625; 8.69437E-5
22546.875000; 9.79527E-5
22552.734375; 8.29118E-5
22558.593750; 8.12363E-5
22564.453125; 8.55412E-5
22570.312500; 7.66422E-5
22576.171875; 7.64027E-5
22582.031250; 7.32193E-5
22587.890625; 8.16062E-5
22593.750000; 8.42789E-5
22599.609375; 8.49305E-5
22605.468750; 8.36277E-5
22611.328125; 9.25162E-5
22617.187500; 9.92636E-5
22623.046875; 8.81202E-5
22628.906250; 8.26157E-5
22634.765625; 8.30764E-5
22640.625000; 8.32469E-5
22646.484375; 8.06468E-5
22652.343750; 8.09081E-5
22658.203125; 8.02854E-5
22664.062500; 7.43703E-5
22669.921875; 8.03120E-5
22675.781250; 8.72386E-5
22681.640625; 8.67262E-5
22687.500000; 9.04014E-5
22693.359375; 8.25408E-5
22699.218750; 8.70706E-5
22705.078125; 9.11769E-5
22710.937500; 8.41938E-5
22716.796875; 8.45436E-5
22722.656250; 8.18124E-5
22728.515625; 9.14244E-5
22734.375000; 8.65042E-5
22740.234375; 7.41528E-5
22746.093750; 7.83294E-5
22751.953125; 7.90351E-5
22757.812500; 8.10132E-5
22763.671875; 9.03927E-5
22769.531250; 8.99357E-5
22775.390625; 8.81555E-5
22781.250000; 9.06177E-5
22787.109375; 8.28329E-5
22792.968750; 7.42706E-5
22798.828125; 7.95529E-5
22804.687500; 8.58612E-5
22810.546875; 7.78724E-5
22816.406250; 8.12971E-5
22822.265625; 7.81550E-5
22828.125000; 7.05656E-5
22833.984375; 7.59105E-5
22839.843750; 6.90419E-5
22845.703125; 7.47777E-5
22851.562500; 7.55304E-5
22857.421875; 7.02080E-5
22863.281250; 7.31943E-5
22869.140625; 8.22965E-5
22875.000000; 8.09664E-5
22880.859375; 7.53237E-5
22886.718750; 7.78423E-5
22892.578125; 7.90179E-5
22898.437500; 7.63667E-5
22904.296875; 7.85407E-5
22910.156250; 7.64352E-5
22916.015625; 7.66026E-5
22921.875000; 7.75797E-5
22927.734375; 7.45443E-5
22933.593750; 7.33889E-5
22939.453125; 7.40583E-5
22945.312500; 6.91291E-5
22951.171875; 7.18988E-5
22957.031250; 6.93631E-5
22962.890625; 6.90963E-5
22968.750000; 6.52350E-5
22974.609375; 7.55641E-5
22980.468750; 7.73221E-5
22986.328125; 7.43597E-5
22992.187500; 7.50026E-5
22998.046875; 7.11877E-5
23003.906250; 7.34129E-5
23009.765625; 7.06412E-5
23015.625000; 7.07998E-5
23021.484375; 6.98181E-5
23027.343750; 7.03380E-5
23033.203125; 6.88677E-5
23039.062500; 7.02582E-5
23044.921875; 7.03671E-5
23050.781250; 6.90595E-5
23056.640625; 6.73001E-5
23062.500000; 7.48925E-5
23068.359375; 6.68707E-5
23074.218750; 6.60278E-5
23080.078125; 6.89611E-5
23085.937500; 6.65397E-5
23091.796875; 6.50559E-5
23097.656250; 6.44119E-5
23103.515625; 6.44497E-5
23109.375000; 6.29636E-5
23115.234375; 6.25381E-5
23121.093750; 5.87564E-5
23126.953125; 5.75077E-5
23132.812500; 6.27378E-5
23138.671875; 6.44291E-5
23144.531250; 6.29057E-5
23150.390625; 6.59712E-5
23156.250000; 6.21085E-5
23162.109375; 6.69786E-5
23167.968750; 6.87960E-5
23173.828125; 6.49527E-5
23179.687500; 6.74566E-5
23185.546875; 6.78939E-5
23191.406250; 5.97620E-5
23197.265625; 6.23738E-5
23203.125000; 5.45590E-5
23208.984375; 5.27992E-5
23214.843750; 5.93892E-5
23220.703125; 6.46263E-5
23226.562500; 6.91123E-5
23232.421875; 6.66271E-5
23238.281250; 6.58448E-5
23244.140625; 5.66624E-5
23250.000000; 5.16691E-5
23255.859375; 6.09267E-5
23261.718750; 5.99269E-5
23267.578125; 5.43621E-5
23273.437500; 5.85323E-5
23279.296875; 5.80095E-5
23285.156250; 5.56799E-5
23291.015625; 5.35234E-5
23296.875000; 5.28911E-5
23302.734375; 5.36429E-5
23308.593750; 5.34885E-5
23314.453125; 5.93047E-5
23320.312500; 5.72015E-5
23326.171875; 5.30721E-5
23332.031250; 5.57966E-5
23337.890625; 6.08992E-5
23343.750000; 5.97843E-5
23349.609375; 5.52388E-5
23355.468750; 5.69320E-5
23361.328125; 5.18748E-5
23367.187500; 5.10381E-5
23373.046875; 5.78235E-5
23378.906250; 6.07200E-5
23384.765625; 5.30970E-5
23390.625000; 5.37020E-5
23396.484375; 5.44267E-5
23402.343750; 5.49513E-5
23408.203125; 5.41704E-5
23414.062500; 5.32522E-5
23419.921875; 5.56809E-5
23425.781250; 5.15610E-5
23431.640625; 4.92983E-5
23437.500000; 4.36976E-5
23443.359375; 4.93579E-5
23449.218750; 5.08912E-5
23455.078125; 4.82562E-5
23460.937500; 4.80375E-5
23466.796875; 4.71312E-5
23472.656250; 4.87219E-5
23478.515625; 5.43110E-5
23484.375000; 5.42921E-5
23490.234375; 5.13978E-5
23496.093750; 4.92519E-5
23501.953125; 4.48535E-5
23507.812500; 4.57607E-5
23513.671875; 4.76942E-5
23519.531250; 4.77075E-5
23525.390625; 4.54880E-5
23531.250000; 4.46521E-5
23537.109375; 4.44854E-5
23542.968750; 4.28323E-5
23548.828125; 4.54594E-5
23554.687500; 4.27328E-5
23560.546875; 4.20836E-5
23566.406250; 4.30402E-5
23572.265625; 4.23959E-5
23578.125000; 4.42222E-5
23583.984375; 4.29857E-5
23589.843750; 4.14411E-5
23595.703125; 4.42043E-5
23601.562500; 4.14802E-5
23607.421875; 3.76744E-5
23613.281250; 4.26351E-5
23619.140625; 4.25513E-5
23625.000000; 4.09070E-5
23630.859375; 4.09518E-5
23636.718750; 4.16731E-5
23642.578125; 4.11713E-5
23648.437500; 4.15127E-5
23654.296875; 4.11921E-5
23660.156250; 4.52800E-5
23666.015625; 4.27674E-5
23671.875000; 4.50316E-5
23677.734375; 3.95230E-5
23683.593750; 3.81271E-5
23689.453125; 3.92369E-5
23695.312500; 4.09105E-5
23701.171875; 4.19537E-5
23707.031250; 3.95829E-5
23712.890625; 3.52354E-5
23718.750000; 3.62746E-5
23724.609375; 4.03058E-5
23730.468750; 3.62333E-5
23736.328125; 3.32837E-5
23742.187500; 3.52133E-5
23748.046875; 3.62840E-5
23753.906250; 3.82374E-5
23759.765625; 4.06033E-5
23765.625000; 3.83681E-5
23771.484375; 3.80718E-5
23777.343750; 3.97499E-5
23783.203125; 3.47167E-5
23789.062500; 3.49205E-5
23794.921875; 3.75960E-5
23800.781250; 3.53077E-5
23806.640625; 3.46249E-5
23812.500000; 3.46887E-5
23818.359375; 3.47718E-5
23824.218750; 3.37802E-5
23830.078125; 3.53876E-5
23835.937500; 3.61897E-5
23841.796875; 3.84083E-5
23847.656250; 3.49327E-5
23853.515625; 3.57820E-5
23859.375000; 3.36788E-5
23865.234375; 3.41907E-5
23871.093750; 3.50606E-5
23876.953125; 3.69098E-5
23882.812500; 3.78736E-5
23888.671875; 3.64793E-5
23894.531250; 3.35508E-5
23900.390625; 3.39556E-5
23906.250000; 3.45766E-5
23912.109375; 3.38341E-5
23917.968750; 3.24438E-5
23923.828125; 2.97858E-5
23929.687500; 3.15130E-5
23935.546875; 3.22998E-5
23941.406250; 3.47413E-5
23947.265625; 3.51586E-5
23953.125000; 3.35352E-5
23958.984375; 3.50636E-5
23964.843750; 3.18793E-5
23970.703125; 3.32608E-5
23976.562500; 3.11987E-5
23982.421875; 2.79652E-5
23988.281250; 3.06098E-5
23994.140625; 3.23888E-5
