* Measurement data measured by REW V5.31.3
* Source: PCM: default, no input selected, 2, volume: no control
* Format: 8192-point spectrum using Hann window and exponential averaging 0.97 
* Dated: Mar 9, 2025 1:01:11 PM
* REW Settings:
*  C-weighting compensation: Off
*  Target level: 75.0 dB
* Note: OSDEHA ANODE-OUTPUT; 8192-point spectrum using Hann window and exponential averaging 0.97  Input RMS 1.333 V 1.333 VC, 1.333 VA 1.333 V 22 - 22k UNW 863.1 uV >22k Distortion at 1,000.0 Hz, -37.51 dBFS: Gain: 29.34 dB THD: 0.035 % based on 21 harmonics  [0..22800 Hz] HHD: 0.027 %  [10 .. 22] N: 0.93 %  [0..22800 Hz] N+D: 4.158 mV A THD+N: 0.93 %  [0..22800 Hz] SNR: 40.6 dB ENOB: 13.2 bits 2nd harmonic 0.0078 % -51 deg 3rd harmonic 0.0082 % 168 deg 4th harmonic 0.0079 % 48 deg 5th harmonic 0.0076 % -43 deg 6th harmonic 0.0080 % -53 deg 7th harmonic 0.0077 % 106 deg 8th harmonic 0.0076 % -72 deg 9th harmonic 0.0078 % -156 deg 
* Measurement: OSDEHA A-OUT 1.33V
* Smoothing: None
* Frequency Step: 5.859375 Hz
* Start Frequency: 5.859375 Hz
*
* Freq(Hz); V(V)
5.859375; 4.54729E-4
11.718750; 3.59602E-4
17.578125; 2.64291E-4
23.437500; 2.11954E-4
29.296875; 1.89891E-4
35.156250; 1.69298E-4
41.015625; 1.65783E-4
46.875000; 4.01063E-4
52.734375; 4.01923E-4
58.593750; 1.40539E-4
64.453125; 1.32306E-4
70.312500; 1.41621E-4
76.171875; 1.40131E-4
82.031250; 1.38834E-4
87.890625; 1.69432E-4
93.750000; 4.98869E-3
99.609375; 1.10955E-2
105.468750; 6.15198E-3
111.328125; 1.72614E-4
117.187500; 1.42095E-4
123.046875; 1.30666E-4
128.906250; 1.30231E-4
134.765625; 1.17847E-4
140.625000; 1.25006E-4
146.484375; 1.26146E-4
152.343750; 1.32135E-4
158.203125; 1.20596E-4
164.062500; 1.15521E-4
169.921875; 1.20717E-4
175.781250; 1.15900E-4
181.640625; 1.13019E-4
187.500000; 1.29306E-4
193.359375; 6.36722E-4
199.218750; 1.57746E-3
205.078125; 9.71667E-4
210.937500; 1.23579E-4
216.796875; 1.19867E-4
222.656250; 1.13990E-4
228.515625; 1.16454E-4
234.375000; 1.17787E-4
240.234375; 1.11291E-4
246.093750; 1.48329E-4
251.953125; 1.55223E-4
257.812500; 1.12887E-4
263.671875; 1.22306E-4
269.531250; 1.19170E-4
275.390625; 1.13083E-4
281.250000; 1.03652E-4
287.109375; 1.09190E-4
292.968750; 1.70752E-4
298.828125; 3.39050E-4
304.687500; 2.52241E-4
310.546875; 1.08758E-4
316.406250; 1.05857E-4
322.265625; 1.15870E-4
328.125000; 1.09187E-4
333.984375; 1.08352E-4
339.843750; 1.02384E-4
345.703125; 1.49215E-4
351.562500; 1.71200E-4
357.421875; 1.19431E-4
363.281250; 1.25166E-4
369.140625; 1.10923E-4
375.000000; 1.11050E-4
380.859375; 1.11926E-4
386.718750; 1.11092E-4
392.578125; 1.78762E-4
398.437500; 4.99198E-4
404.296875; 3.82710E-4
410.156250; 1.06479E-4
416.015625; 1.09075E-4
421.875000; 1.18203E-4
427.734375; 1.20625E-4
433.593750; 1.14699E-4
439.453125; 1.16721E-4
445.312500; 1.23771E-4
451.171875; 1.27931E-4
457.031250; 1.82895E-4
462.890625; 2.01219E-4
468.750000; 1.31099E-4
474.609375; 1.14123E-4
480.468750; 1.17571E-4
486.328125; 1.31907E-4
492.187500; 1.35824E-4
498.046875; 3.10300E-4
503.906250; 2.68127E-4
509.765625; 1.25591E-4
515.625000; 1.26131E-4
521.484375; 1.29942E-4
527.343750; 1.12464E-4
533.203125; 1.08011E-4
539.062500; 1.00687E-4
544.921875; 1.07419E-4
550.781250; 1.15680E-4
556.640625; 1.07628E-4
562.500000; 1.18691E-4
568.359375; 1.07841E-4
574.218750; 9.76609E-5
580.078125; 1.08159E-4
585.937500; 1.09757E-4
591.796875; 1.00794E-4
597.656250; 1.00504E-4
603.515625; 1.10396E-4
609.375000; 1.09339E-4
615.234375; 1.15774E-4
621.093750; 1.03827E-4
626.953125; 9.65739E-5
632.812500; 1.00858E-4
638.671875; 1.06399E-4
644.531250; 1.15586E-4
650.390625; 1.14071E-4
656.250000; 1.07444E-4
662.109375; 1.00796E-4
667.968750; 9.80151E-5
673.828125; 9.75321E-5
679.687500; 1.04502E-4
685.546875; 1.12710E-4
691.406250; 1.01904E-4
697.265625; 2.17299E-4
703.125000; 2.14814E-4
708.984375; 1.31348E-4
714.843750; 1.18491E-4
720.703125; 1.04125E-4
726.562500; 1.08444E-4
732.421875; 1.15739E-4
738.281250; 1.14442E-4
744.140625; 1.08341E-4
750.000000; 1.31506E-4
755.859375; 1.21458E-4
761.718750; 9.92144E-5
767.578125; 1.02563E-4
773.437500; 9.77143E-5
779.296875; 1.08700E-4
785.156250; 1.11206E-4
791.015625; 1.11817E-4
796.875000; 1.45892E-4
802.734375; 1.64541E-4
808.593750; 1.23828E-4
814.453125; 1.21208E-4
820.312500; 1.14379E-4
826.171875; 1.05916E-4
832.031250; 1.05258E-4
837.890625; 1.07885E-4
843.750000; 1.07669E-4
849.609375; 1.40637E-4
855.468750; 1.23725E-4
861.328125; 1.23032E-4
867.187500; 1.15492E-4
873.046875; 1.00818E-4
878.906250; 1.08652E-4
884.765625; 1.20648E-4
890.625000; 1.23855E-4
896.484375; 1.72849E-4
902.343750; 1.70337E-4
908.203125; 1.58695E-4
914.062500; 1.56161E-4
919.921875; 1.90616E-4
925.781250; 2.00388E-4
931.640625; 2.55429E-4
937.500000; 3.20961E-4
943.359375; 4.31965E-4
949.218750; 5.66789E-4
955.078125; 8.45893E-4
960.937500; 1.26947E-3
966.796875; 2.08299E-3
972.656250; 3.80133E-3
978.515625; 8.05499E-3
984.375000; 2.25261E-2
990.234375; 1.23999E-1
996.093750; 9.91904E-1
1001.953125; 1.23987E0
1007.812500; 3.54250E-1
1013.671875; 3.54153E-2
1019.531250; 1.09058E-2
1025.390625; 4.75735E-3
1031.250000; 2.52952E-3
1037.109375; 1.47848E-3
1042.968750; 9.53473E-4
1048.828125; 6.59207E-4
1054.687500; 4.69399E-4
1060.546875; 3.48596E-4
1066.406250; 2.75062E-4
1072.265625; 2.06833E-4
1078.125000; 1.88870E-4
1083.984375; 1.46871E-4
1089.843750; 1.53660E-4
1095.703125; 1.39192E-4
1101.562500; 1.47295E-4
1107.421875; 1.21788E-4
1113.281250; 1.16954E-4
1119.140625; 9.92304E-5
1125.000000; 1.11106E-4
1130.859375; 1.15469E-4
1136.718750; 1.01487E-4
1142.578125; 1.04205E-4
1148.437500; 9.96105E-5
1154.296875; 9.93691E-5
1160.156250; 1.00197E-4
1166.015625; 9.48194E-5
1171.875000; 1.06289E-4
1177.734375; 1.06933E-4
1183.593750; 1.03114E-4
1189.453125; 9.71403E-5
1195.312500; 1.08830E-4
1201.171875; 1.17202E-4
1207.031250; 1.14406E-4
1212.890625; 1.03980E-4
1218.750000; 9.44725E-5
1224.609375; 1.10206E-4
1230.468750; 1.16032E-4
1236.328125; 1.13310E-4
1242.187500; 1.04354E-4
1248.046875; 1.27741E-4
1253.906250; 1.28758E-4
1259.765625; 1.10246E-4
1265.625000; 9.44241E-5
1271.484375; 1.01892E-4
1277.343750; 1.04929E-4
1283.203125; 1.01509E-4
1289.062500; 9.32877E-5
1294.921875; 1.06297E-4
1300.781250; 1.10023E-4
1306.640625; 1.04338E-4
1312.500000; 9.37056E-5
1318.359375; 9.56866E-5
1324.218750; 1.01307E-4
1330.078125; 1.00504E-4
1335.937500; 9.87752E-5
1341.796875; 9.59013E-5
1347.656250; 9.82988E-5
1353.515625; 1.05115E-4
1359.375000; 1.15368E-4
1365.234375; 1.09621E-4
1371.093750; 1.05364E-4
1376.953125; 1.06813E-4
1382.812500; 1.01801E-4
1388.671875; 1.04515E-4
1394.531250; 1.17214E-4
1400.390625; 1.16103E-4
1406.250000; 9.94546E-5
1412.109375; 1.02637E-4
1417.968750; 1.06088E-4
1423.828125; 1.03841E-4
1429.687500; 1.04186E-4
1435.546875; 1.04807E-4
1441.406250; 1.03024E-4
1447.265625; 1.27142E-4
1453.125000; 1.13621E-4
1458.984375; 1.00689E-4
1464.843750; 1.16406E-4
1470.703125; 1.16175E-4
1476.562500; 1.12149E-4
1482.421875; 1.07342E-4
1488.281250; 1.14988E-4
1494.140625; 1.10006E-4
1500.000000; 1.05026E-4
1505.859375; 1.04614E-4
1511.718750; 1.12408E-4
1517.578125; 1.10962E-4
1523.437500; 1.03191E-4
1529.296875; 1.12122E-4
1535.156250; 1.09655E-4
1541.015625; 1.07402E-4
1546.875000; 1.24733E-4
1552.734375; 1.07541E-4
1558.593750; 9.84822E-5
1564.453125; 9.66002E-5
1570.312500; 8.72178E-5
1576.171875; 1.04020E-4
1582.031250; 9.92051E-5
1587.890625; 9.64521E-5
1593.750000; 1.09603E-4
1599.609375; 1.15313E-4
1605.468750; 1.13275E-4
1611.328125; 1.06838E-4
1617.187500; 1.03821E-4
1623.046875; 1.19837E-4
1628.906250; 1.03189E-4
1634.765625; 1.03442E-4
1640.625000; 9.99196E-5
1646.484375; 1.00284E-4
1652.343750; 9.54267E-5
1658.203125; 8.48718E-5
1664.062500; 9.38004E-5
1669.921875; 1.06137E-4
1675.781250; 1.08686E-4
1681.640625; 1.08918E-4
1687.500000; 1.02935E-4
1693.359375; 1.16324E-4
1699.218750; 1.18293E-4
1705.078125; 1.02732E-4
1710.937500; 1.02136E-4
1716.796875; 1.16998E-4
1722.656250; 1.07867E-4
1728.515625; 9.70528E-5
1734.375000; 1.00985E-4
1740.234375; 1.08398E-4
1746.093750; 1.05561E-4
1751.953125; 1.04550E-4
1757.812500; 9.76563E-5
1763.671875; 1.07021E-4
1769.531250; 1.10519E-4
1775.390625; 1.21689E-4
1781.250000; 9.44453E-5
1787.109375; 1.00665E-4
1792.968750; 1.10968E-4
1798.828125; 1.18896E-4
1804.687500; 1.18148E-4
1810.546875; 1.11439E-4
1816.406250; 9.83952E-5
1822.265625; 1.04200E-4
1828.125000; 1.05444E-4
1833.984375; 1.01249E-4
1839.843750; 9.38605E-5
1845.703125; 1.07149E-4
1851.562500; 1.04014E-4
1857.421875; 9.21548E-5
1863.281250; 1.10841E-4
1869.140625; 1.12699E-4
1875.000000; 1.19300E-4
1880.859375; 1.09006E-4
1886.718750; 9.06790E-5
1892.578125; 1.03055E-4
1898.437500; 1.11984E-4
1904.296875; 1.10968E-4
1910.156250; 1.15882E-4
1916.015625; 1.14553E-4
1921.875000; 1.03914E-4
1927.734375; 9.93036E-5
1933.593750; 1.07377E-4
1939.453125; 1.02860E-4
1945.312500; 9.70459E-5
1951.171875; 9.50995E-5
1957.031250; 1.09402E-4
1962.890625; 1.13606E-4
1968.750000; 1.17296E-4
1974.609375; 1.00377E-4
1980.468750; 9.68195E-5
1986.328125; 9.84456E-5
1992.187500; 9.69773E-5
1998.046875; 1.03611E-4
2003.906250; 1.18227E-4
2009.765625; 1.09377E-4
2015.625000; 1.05037E-4
2021.484375; 9.61902E-5
2027.343750; 1.00628E-4
2033.203125; 1.20206E-4
2039.062500; 1.21566E-4
2044.921875; 1.09622E-4
2050.781250; 1.11335E-4
2056.640625; 1.09154E-4
2062.500000; 9.42379E-5
2068.359375; 1.03868E-4
2074.218750; 1.07302E-4
2080.078125; 9.83175E-5
2085.937500; 1.05345E-4
2091.796875; 9.21674E-5
2097.656250; 1.00898E-4
2103.515625; 1.10404E-4
2109.375000; 1.08858E-4
2115.234375; 9.32832E-5
2121.093750; 9.73666E-5
2126.953125; 1.08034E-4
2132.812500; 1.18002E-4
2138.671875; 1.24184E-4
2144.531250; 1.16407E-4
2150.390625; 1.06064E-4
2156.250000; 1.03223E-4
2162.109375; 8.83028E-5
2167.968750; 9.20500E-5
2173.828125; 9.95933E-5
2179.687500; 9.81143E-5
2185.546875; 1.09631E-4
2191.406250; 1.17515E-4
2197.265625; 1.22672E-4
2203.125000; 1.18449E-4
2208.984375; 1.08770E-4
2214.843750; 1.18745E-4
2220.703125; 1.23420E-4
2226.562500; 1.14711E-4
2232.421875; 1.04969E-4
2238.281250; 1.10668E-4
2244.140625; 1.01164E-4
2250.000000; 1.10785E-4
2255.859375; 1.06699E-4
2261.718750; 1.02148E-4
2267.578125; 1.04672E-4
2273.437500; 1.04991E-4
2279.296875; 9.92392E-5
2285.156250; 1.07728E-4
2291.015625; 1.07715E-4
2296.875000; 9.51871E-5
2302.734375; 9.92501E-5
2308.593750; 9.27227E-5
2314.453125; 9.68584E-5
2320.312500; 1.10089E-4
2326.171875; 1.09428E-4
2332.031250; 1.03676E-4
2337.890625; 1.04087E-4
2343.750000; 1.00572E-4
2349.609375; 1.08265E-4
2355.468750; 1.26080E-4
2361.328125; 1.19866E-4
2367.187500; 1.02449E-4
2373.046875; 1.00558E-4
2378.906250; 1.19384E-4
2384.765625; 1.06088E-4
2390.625000; 1.01293E-4
2396.484375; 1.07975E-4
2402.343750; 1.10711E-4
2408.203125; 1.05173E-4
2414.062500; 1.12620E-4
2419.921875; 1.07559E-4
2425.781250; 1.09742E-4
2431.640625; 1.07295E-4
2437.500000; 1.09216E-4
2443.359375; 1.13657E-4
2449.218750; 9.66669E-5
2455.078125; 1.02991E-4
2460.937500; 1.06523E-4
2466.796875; 9.94124E-5
2472.656250; 1.08735E-4
2478.515625; 1.02069E-4
2484.375000; 1.00902E-4
2490.234375; 1.00696E-4
2496.093750; 9.87626E-5
2501.953125; 1.11424E-4
2507.812500; 1.09020E-4
2513.671875; 1.00011E-4
2519.531250; 1.11256E-4
2525.390625; 9.52084E-5
2531.250000; 9.25295E-5
2537.109375; 1.04311E-4
2542.968750; 9.84274E-5
2548.828125; 9.55848E-5
2554.687500; 9.49089E-5
2560.546875; 1.09298E-4
2566.406250; 1.04134E-4
2572.265625; 1.09479E-4
2578.125000; 1.13470E-4
2583.984375; 1.01239E-4
2589.843750; 1.03425E-4
2595.703125; 1.09529E-4
2601.562500; 1.05890E-4
2607.421875; 9.91913E-5
2613.281250; 1.16186E-4
2619.140625; 1.14658E-4
2625.000000; 1.07175E-4
2630.859375; 1.03883E-4
2636.718750; 1.06855E-4
2642.578125; 1.08562E-4
2648.437500; 1.05578E-4
2654.296875; 1.17186E-4
2660.156250; 1.18668E-4
2666.015625; 1.18501E-4
2671.875000; 1.05706E-4
2677.734375; 1.07822E-4
2683.593750; 9.45669E-5
2689.453125; 8.89083E-5
2695.312500; 1.01400E-4
2701.171875; 9.95615E-5
2707.031250; 1.09819E-4
2712.890625; 1.19490E-4
2718.750000; 1.04166E-4
2724.609375; 9.87273E-5
2730.468750; 1.02123E-4
2736.328125; 1.01949E-4
2742.187500; 9.67324E-5
2748.046875; 1.02687E-4
2753.906250; 1.08337E-4
2759.765625; 1.01682E-4
2765.625000; 1.13353E-4
2771.484375; 1.10985E-4
2777.343750; 9.69697E-5
2783.203125; 1.02239E-4
2789.062500; 1.11674E-4
2794.921875; 1.02582E-4
2800.781250; 9.19355E-5
2806.640625; 8.50958E-5
2812.500000; 9.69496E-5
2818.359375; 1.06285E-4
2824.218750; 1.03524E-4
2830.078125; 1.00316E-4
2835.937500; 9.75686E-5
2841.796875; 1.02310E-4
2847.656250; 9.76710E-5
2853.515625; 8.52587E-5
2859.375000; 9.97593E-5
2865.234375; 9.92210E-5
2871.093750; 1.11652E-4
2876.953125; 1.12412E-4
2882.812500; 1.04004E-4
2888.671875; 1.01993E-4
2894.531250; 1.03584E-4
2900.390625; 1.09248E-4
2906.250000; 9.76645E-5
2912.109375; 9.02897E-5
2917.968750; 1.07331E-4
2923.828125; 1.02535E-4
2929.687500; 1.02959E-4
2935.546875; 9.67102E-5
2941.406250; 1.04322E-4
2947.265625; 1.03078E-4
2953.125000; 1.15380E-4
2958.984375; 1.06568E-4
2964.843750; 1.07417E-4
2970.703125; 1.08281E-4
2976.562500; 1.01437E-4
2982.421875; 1.05630E-4
2988.281250; 1.14470E-4
2994.140625; 1.09884E-4
3000.000000; 1.07210E-4
3005.859375; 1.07880E-4
3011.718750; 1.09182E-4
3017.578125; 1.11404E-4
3023.437500; 1.05981E-4
3029.296875; 1.02366E-4
3035.156250; 9.54348E-5
3041.015625; 1.02565E-4
3046.875000; 1.10744E-4
3052.734375; 1.10760E-4
3058.593750; 9.90704E-5
3064.453125; 9.17267E-5
3070.312500; 1.05080E-4
3076.171875; 1.02093E-4
3082.031250; 1.04322E-4
3087.890625; 1.01987E-4
3093.750000; 9.96034E-5
3099.609375; 9.40337E-5
3105.468750; 1.00561E-4
3111.328125; 1.01459E-4
3117.187500; 9.06204E-5
3123.046875; 1.01190E-4
3128.906250; 1.06014E-4
3134.765625; 9.70916E-5
3140.625000; 1.04621E-4
3146.484375; 1.21386E-4
3152.343750; 1.22296E-4
3158.203125; 1.05827E-4
3164.062500; 9.36283E-5
3169.921875; 1.06775E-4
3175.781250; 1.08750E-4
3181.640625; 9.97714E-5
3187.500000; 1.08303E-4
3193.359375; 1.05354E-4
3199.218750; 9.66610E-5
3205.078125; 9.70009E-5
3210.937500; 8.68033E-5
3216.796875; 8.97470E-5
3222.656250; 9.41572E-5
3228.515625; 1.01667E-4
3234.375000; 1.14241E-4
3240.234375; 1.12153E-4
3246.093750; 1.05670E-4
3251.953125; 1.03907E-4
3257.812500; 1.08214E-4
3263.671875; 1.05867E-4
3269.531250; 1.08569E-4
3275.390625; 1.04299E-4
3281.250000; 1.03104E-4
3287.109375; 1.07183E-4
3292.968750; 1.03301E-4
3298.828125; 1.02539E-4
3304.687500; 1.00206E-4
3310.546875; 9.77686E-5
3316.406250; 9.44684E-5
3322.265625; 1.02906E-4
3328.125000; 9.73164E-5
3333.984375; 9.55220E-5
3339.843750; 1.04145E-4
3345.703125; 1.05409E-4
3351.562500; 1.05948E-4
3357.421875; 1.05743E-4
3363.281250; 9.89348E-5
3369.140625; 9.94153E-5
3375.000000; 1.05361E-4
3380.859375; 9.81525E-5
3386.718750; 9.95055E-5
3392.578125; 1.05299E-4
3398.437500; 1.17778E-4
3404.296875; 1.04036E-4
3410.156250; 1.01491E-4
3416.015625; 1.03764E-4
3421.875000; 1.05350E-4
3427.734375; 1.02163E-4
3433.593750; 1.06219E-4
3439.453125; 1.01624E-4
3445.312500; 1.05493E-4
3451.171875; 1.02518E-4
3457.031250; 9.63672E-5
3462.890625; 1.00853E-4
3468.750000; 1.01005E-4
3474.609375; 9.30014E-5
3480.468750; 9.29029E-5
3486.328125; 1.05454E-4
3492.187500; 1.19035E-4
3498.046875; 1.04310E-4
3503.906250; 1.07724E-4
3509.765625; 1.28866E-4
3515.625000; 1.34859E-4
3521.484375; 1.33573E-4
3527.343750; 1.21549E-4
3533.203125; 1.21197E-4
3539.062500; 1.14118E-4
3544.921875; 9.53691E-5
3550.781250; 1.03841E-4
3556.640625; 1.01783E-4
3562.500000; 1.04656E-4
3568.359375; 1.17235E-4
3574.218750; 1.14328E-4
3580.078125; 9.89467E-5
3585.937500; 1.06884E-4
3591.796875; 1.04323E-4
3597.656250; 9.76835E-5
3603.515625; 1.02038E-4
3609.375000; 1.11996E-4
3615.234375; 1.13281E-4
3621.093750; 9.74807E-5
3626.953125; 8.84985E-5
3632.812500; 1.03838E-4
3638.671875; 1.06769E-4
3644.531250; 1.15145E-4
3650.390625; 1.06730E-4
3656.250000; 1.01204E-4
3662.109375; 1.09096E-4
3667.968750; 1.00256E-4
3673.828125; 1.09072E-4
3679.687500; 1.20915E-4
3685.546875; 1.00680E-4
3691.406250; 9.57408E-5
3697.265625; 1.03064E-4
3703.125000; 1.10947E-4
3708.984375; 1.07549E-4
3714.843750; 1.04426E-4
3720.703125; 1.07834E-4
3726.562500; 1.12929E-4
3732.421875; 1.08509E-4
3738.281250; 9.68701E-5
3744.140625; 9.79273E-5
3750.000000; 1.01664E-4
3755.859375; 1.06963E-4
3761.718750; 1.11285E-4
3767.578125; 1.02364E-4
3773.437500; 9.60983E-5
3779.296875; 9.53006E-5
3785.156250; 9.63066E-5
3791.015625; 1.06867E-4
3796.875000; 1.20580E-4
3802.734375; 1.18504E-4
3808.593750; 1.03114E-4
3814.453125; 1.19472E-4
3820.312500; 1.13223E-4
3826.171875; 1.02713E-4
3832.031250; 1.09781E-4
3837.890625; 1.16024E-4
3843.750000; 1.09448E-4
3849.609375; 1.11429E-4
3855.468750; 1.07333E-4
3861.328125; 1.08696E-4
3867.187500; 1.12052E-4
3873.046875; 1.00825E-4
3878.906250; 9.58092E-5
3884.765625; 1.06625E-4
3890.625000; 1.07752E-4
3896.484375; 9.84648E-5
3902.343750; 1.02320E-4
3908.203125; 1.01902E-4
3914.062500; 9.12383E-5
3919.921875; 9.58164E-5
3925.781250; 9.51590E-5
3931.640625; 1.02584E-4
3937.500000; 1.06074E-4
3943.359375; 1.03587E-4
3949.218750; 9.44351E-5
3955.078125; 1.01716E-4
3960.937500; 9.96389E-5
3966.796875; 9.35791E-5
3972.656250; 1.00140E-4
3978.515625; 1.01970E-4
3984.375000; 1.03024E-4
3990.234375; 1.07871E-4
3996.093750; 1.10113E-4
4001.953125; 1.14461E-4
4007.812500; 9.99463E-5
4013.671875; 9.83321E-5
4019.531250; 9.36172E-5
4025.390625; 8.90577E-5
4031.250000; 1.01477E-4
4037.109375; 9.57844E-5
4042.968750; 9.86398E-5
4048.828125; 9.25026E-5
4054.687500; 9.59102E-5
4060.546875; 1.13748E-4
4066.406250; 1.18127E-4
4072.265625; 1.13197E-4
4078.125000; 1.16269E-4
4083.984375; 1.02970E-4
4089.843750; 9.81622E-5
4095.703125; 1.01677E-4
4101.562500; 1.06104E-4
4107.421875; 1.03191E-4
4113.281250; 9.88183E-5
4119.140625; 9.84853E-5
4125.000000; 9.96217E-5
4130.859375; 9.30132E-5
4136.718750; 1.00523E-4
4142.578125; 9.73127E-5
4148.437500; 1.02119E-4
4154.296875; 1.09821E-4
4160.156250; 1.00943E-4
4166.015625; 9.57575E-5
4171.875000; 9.48014E-5
4177.734375; 1.01619E-4
4183.593750; 1.00757E-4
4189.453125; 9.63287E-5
4195.312500; 9.83628E-5
4201.171875; 1.00628E-4
4207.031250; 1.01114E-4
4212.890625; 1.05734E-4
4218.750000; 9.43627E-5
4224.609375; 1.08132E-4
4230.468750; 1.17692E-4
4236.328125; 1.09996E-4
4242.187500; 1.00275E-4
4248.046875; 9.77778E-5
4253.906250; 1.06076E-4
4259.765625; 1.12781E-4
4265.625000; 1.11042E-4
4271.484375; 1.02755E-4
4277.343750; 1.05086E-4
4283.203125; 1.05162E-4
4289.062500; 1.03900E-4
4294.921875; 1.01221E-4
4300.781250; 9.27476E-5
4306.640625; 1.00393E-4
4312.500000; 1.05472E-4
4318.359375; 8.84399E-5
4324.218750; 8.72951E-5
4330.078125; 9.60337E-5
4335.937500; 1.01177E-4
4341.796875; 9.81770E-5
4347.656250; 1.03062E-4
4353.515625; 1.16779E-4
4359.375000; 1.13012E-4
4365.234375; 1.03554E-4
4371.093750; 1.03025E-4
4376.953125; 9.80672E-5
4382.812500; 9.54971E-5
4388.671875; 9.22074E-5
4394.531250; 1.01809E-4
4400.390625; 1.13355E-4
4406.250000; 1.06249E-4
4412.109375; 1.00823E-4
4417.968750; 1.00073E-4
4423.828125; 9.81849E-5
4429.687500; 1.08726E-4
4435.546875; 1.08893E-4
4441.406250; 1.01735E-4
4447.265625; 1.08960E-4
4453.125000; 1.14903E-4
4458.984375; 1.06004E-4
4464.843750; 1.12267E-4
4470.703125; 1.07538E-4
4476.562500; 1.09399E-4
4482.421875; 1.04114E-4
4488.281250; 1.05733E-4
4494.140625; 1.08656E-4
4500.000000; 1.10781E-4
4505.859375; 1.02576E-4
4511.718750; 1.06454E-4
4517.578125; 1.09481E-4
4523.437500; 1.15197E-4
4529.296875; 9.94435E-5
4535.156250; 1.09975E-4
4541.015625; 1.10675E-4
4546.875000; 1.12678E-4
4552.734375; 1.12943E-4
4558.593750; 1.13140E-4
4564.453125; 1.03781E-4
4570.312500; 1.11704E-4
4576.171875; 1.07790E-4
4582.031250; 9.03470E-5
4587.890625; 9.02040E-5
4593.750000; 9.65617E-5
4599.609375; 9.28776E-5
4605.468750; 9.85200E-5
4611.328125; 1.02940E-4
4617.187500; 1.05064E-4
4623.046875; 1.01374E-4
4628.906250; 9.30595E-5
4634.765625; 1.01219E-4
4640.625000; 1.01146E-4
4646.484375; 9.32451E-5
4652.343750; 9.99478E-5
4658.203125; 1.12377E-4
4664.062500; 1.13600E-4
4669.921875; 1.09368E-4
4675.781250; 1.02259E-4
4681.640625; 9.63456E-5
4687.500000; 9.99424E-5
4693.359375; 1.06044E-4
4699.218750; 1.04829E-4
4705.078125; 9.67793E-5
4710.937500; 9.10545E-5
4716.796875; 1.03706E-4
4722.656250; 1.04354E-4
4728.515625; 1.01760E-4
4734.375000; 9.28347E-5
4740.234375; 1.05071E-4
4746.093750; 1.03734E-4
4751.953125; 1.08542E-4
4757.812500; 1.03764E-4
4763.671875; 1.12465E-4
4769.531250; 1.02011E-4
4775.390625; 9.89482E-5
4781.250000; 1.13350E-4
4787.109375; 1.09918E-4
4792.968750; 1.03172E-4
4798.828125; 1.03146E-4
4804.687500; 1.13603E-4
4810.546875; 1.19757E-4
4816.406250; 1.10311E-4
4822.265625; 1.01923E-4
4828.125000; 1.03903E-4
4833.984375; 9.59810E-5
4839.843750; 9.37175E-5
4845.703125; 9.28788E-5
4851.562500; 9.52763E-5
4857.421875; 1.07223E-4
4863.281250; 1.13158E-4
4869.140625; 1.18913E-4
4875.000000; 1.12610E-4
4880.859375; 1.10972E-4
4886.718750; 1.08165E-4
4892.578125; 1.15516E-4
4898.437500; 1.08731E-4
4904.296875; 9.11081E-5
4910.156250; 9.95225E-5
4916.015625; 1.11791E-4
4921.875000; 1.03410E-4
4927.734375; 1.18126E-4
4933.593750; 1.08630E-4
4939.453125; 9.64372E-5
4945.312500; 1.02127E-4
4951.171875; 1.04102E-4
4957.031250; 9.46317E-5
4962.890625; 1.08662E-4
4968.750000; 1.01859E-4
4974.609375; 1.00638E-4
4980.468750; 9.41210E-5
4986.328125; 1.06196E-4
4992.187500; 1.02940E-4
4998.046875; 9.57801E-5
5003.906250; 1.09304E-4
5009.765625; 1.01464E-4
5015.625000; 9.58266E-5
5021.484375; 9.84001E-5
5027.343750; 1.01739E-4
5033.203125; 1.03526E-4
5039.062500; 1.07559E-4
5044.921875; 1.03068E-4
5050.781250; 1.03992E-4
5056.640625; 9.63711E-5
5062.500000; 9.38037E-5
5068.359375; 9.54309E-5
5074.218750; 1.09581E-4
5080.078125; 1.07896E-4
5085.937500; 1.04891E-4
5091.796875; 1.05896E-4
5097.656250; 1.07166E-4
5103.515625; 1.02666E-4
5109.375000; 1.00827E-4
5115.234375; 1.03085E-4
5121.093750; 1.09607E-4
5126.953125; 1.08137E-4
5132.812500; 1.03750E-4
5138.671875; 1.03036E-4
5144.531250; 9.06455E-5
5150.390625; 1.00004E-4
5156.250000; 1.01759E-4
5162.109375; 1.04453E-4
5167.968750; 9.97663E-5
5173.828125; 9.51371E-5
5179.687500; 9.90008E-5
5185.546875; 1.03056E-4
5191.406250; 1.03328E-4
5197.265625; 1.03811E-4
5203.125000; 9.51952E-5
5208.984375; 9.60291E-5
5214.843750; 9.66974E-5
5220.703125; 9.82332E-5
5226.562500; 9.10132E-5
5232.421875; 1.02091E-4
5238.281250; 1.07221E-4
5244.140625; 1.04069E-4
5250.000000; 1.07071E-4
5255.859375; 1.18047E-4
5261.718750; 1.10826E-4
5267.578125; 1.03935E-4
5273.437500; 1.13349E-4
5279.296875; 1.10842E-4
5285.156250; 1.01579E-4
5291.015625; 9.91603E-5
5296.875000; 1.09791E-4
5302.734375; 1.09861E-4
5308.593750; 9.98133E-5
5314.453125; 1.03075E-4
5320.312500; 1.14382E-4
5326.171875; 1.04147E-4
5332.031250; 9.66432E-5
5337.890625; 1.08532E-4
5343.750000; 1.02067E-4
5349.609375; 1.03574E-4
5355.468750; 1.09000E-4
5361.328125; 1.02042E-4
5367.187500; 9.55860E-5
5373.046875; 1.01656E-4
5378.906250; 1.19363E-4
5384.765625; 1.12479E-4
5390.625000; 8.91253E-5
5396.484375; 9.59360E-5
5402.343750; 1.00939E-4
5408.203125; 1.04929E-4
5414.062500; 9.01960E-5
5419.921875; 9.28590E-5
5425.781250; 9.81127E-5
5431.640625; 9.31594E-5
5437.500000; 8.87480E-5
5443.359375; 9.55043E-5
5449.218750; 1.11833E-4
5455.078125; 9.68658E-5
5460.937500; 9.52099E-5
5466.796875; 1.00223E-4
5472.656250; 1.01187E-4
5478.515625; 1.02530E-4
5484.375000; 1.01948E-4
5490.234375; 1.10940E-4
5496.093750; 1.17215E-4
5501.953125; 1.13325E-4
5507.812500; 1.18094E-4
5513.671875; 1.07196E-4
5519.531250; 9.96508E-5
5525.390625; 9.80701E-5
5531.250000; 1.04690E-4
5537.109375; 1.10948E-4
5542.968750; 1.08235E-4
5548.828125; 1.00074E-4
5554.687500; 9.84528E-5
5560.546875; 9.99492E-5
5566.406250; 1.07171E-4
5572.265625; 1.03736E-4
5578.125000; 9.58695E-5
5583.984375; 9.32951E-5
5589.843750; 1.09310E-4
5595.703125; 1.09748E-4
5601.562500; 1.00680E-4
5607.421875; 1.01559E-4
5613.281250; 9.53712E-5
5619.140625; 1.09843E-4
5625.000000; 1.17140E-4
5630.859375; 1.14876E-4
5636.718750; 1.08975E-4
5642.578125; 1.10933E-4
5648.437500; 1.08380E-4
5654.296875; 1.10698E-4
5660.156250; 1.13490E-4
5666.015625; 1.09907E-4
5671.875000; 1.08187E-4
5677.734375; 9.40666E-5
5683.593750; 9.72116E-5
5689.453125; 1.04621E-4
5695.312500; 9.94185E-5
5701.171875; 1.01609E-4
5707.031250; 1.03472E-4
5712.890625; 1.03640E-4
5718.750000; 1.07159E-4
5724.609375; 1.10398E-4
5730.468750; 9.88740E-5
5736.328125; 1.05041E-4
5742.187500; 1.06934E-4
5748.046875; 1.18198E-4
5753.906250; 1.23967E-4
5759.765625; 9.80768E-5
5765.625000; 9.63688E-5
5771.484375; 1.03357E-4
5777.343750; 1.05972E-4
5783.203125; 1.04003E-4
5789.062500; 1.07533E-4
5794.921875; 1.15336E-4
5800.781250; 1.15876E-4
5806.640625; 1.03456E-4
5812.500000; 1.09497E-4
5818.359375; 1.05751E-4
5824.218750; 1.13287E-4
5830.078125; 1.03526E-4
5835.937500; 9.32791E-5
5841.796875; 9.88874E-5
5847.656250; 1.12392E-4
5853.515625; 1.06195E-4
5859.375000; 1.05933E-4
5865.234375; 1.12679E-4
5871.093750; 1.02484E-4
5876.953125; 9.98705E-5
5882.812500; 9.62133E-5
5888.671875; 9.69866E-5
5894.531250; 9.26541E-5
5900.390625; 9.24283E-5
5906.250000; 1.11700E-4
5912.109375; 1.21609E-4
5917.968750; 1.18789E-4
5923.828125; 1.08532E-4
5929.687500; 9.60195E-5
5935.546875; 1.01501E-4
5941.406250; 1.01400E-4
5947.265625; 9.87724E-5
5953.125000; 1.00436E-4
5958.984375; 1.00441E-4
5964.843750; 9.37562E-5
5970.703125; 1.10451E-4
5976.562500; 1.15029E-4
5982.421875; 1.05631E-4
5988.281250; 1.02018E-4
5994.140625; 1.04117E-4
6000.000000; 1.10062E-4
6005.859375; 1.06973E-4
6011.718750; 1.08591E-4
6017.578125; 1.06499E-4
6023.437500; 1.08827E-4
6029.296875; 1.15370E-4
6035.156250; 1.08578E-4
6041.015625; 1.12060E-4
6046.875000; 1.07210E-4
6052.734375; 1.09323E-4
6058.593750; 1.01320E-4
6064.453125; 7.38002E-5
6070.312500; 9.89614E-5
6076.171875; 9.68770E-5
6082.031250; 9.40294E-5
6087.890625; 9.61144E-5
6093.750000; 9.68389E-5
6099.609375; 1.13922E-4
6105.468750; 1.07628E-4
6111.328125; 1.08339E-4
6117.187500; 1.22357E-4
6123.046875; 1.06384E-4
6128.906250; 1.08310E-4
6134.765625; 1.00893E-4
6140.625000; 1.06090E-4
6146.484375; 1.09154E-4
6152.343750; 1.08338E-4
6158.203125; 1.09183E-4
6164.062500; 1.03771E-4
6169.921875; 1.05204E-4
6175.781250; 1.06219E-4
6181.640625; 1.05999E-4
6187.500000; 9.82536E-5
6193.359375; 9.88667E-5
6199.218750; 1.06160E-4
6205.078125; 9.88460E-5
6210.937500; 9.54856E-5
6216.796875; 8.94116E-5
6222.656250; 1.00449E-4
6228.515625; 1.08947E-4
6234.375000; 9.55919E-5
6240.234375; 9.82621E-5
6246.093750; 1.18611E-4
6251.953125; 1.20567E-4
6257.812500; 1.02177E-4
6263.671875; 1.01425E-4
6269.531250; 1.05033E-4
6275.390625; 1.07081E-4
6281.250000; 1.10320E-4
6287.109375; 1.03510E-4
6292.968750; 1.03012E-4
6298.828125; 9.17995E-5
6304.687500; 1.08003E-4
6310.546875; 1.09534E-4
6316.406250; 9.99766E-5
6322.265625; 9.44020E-5
6328.125000; 9.52995E-5
6333.984375; 1.03033E-4
6339.843750; 9.58216E-5
6345.703125; 1.09847E-4
6351.562500; 1.07102E-4
6357.421875; 9.64626E-5
6363.281250; 9.74770E-5
6369.140625; 1.00608E-4
6375.000000; 9.75732E-5
6380.859375; 9.51584E-5
6386.718750; 9.60581E-5
6392.578125; 9.51793E-5
6398.437500; 9.92275E-5
6404.296875; 1.07818E-4
6410.156250; 9.70417E-5
6416.015625; 1.00020E-4
6421.875000; 1.02554E-4
6427.734375; 1.06185E-4
6433.593750; 9.24747E-5
6439.453125; 1.04589E-4
6445.312500; 1.05014E-4
6451.171875; 1.04117E-4
6457.031250; 1.04603E-4
6462.890625; 9.26653E-5
6468.750000; 9.52351E-5
6474.609375; 9.51504E-5
6480.468750; 1.05172E-4
6486.328125; 1.07624E-4
6492.187500; 1.01093E-4
6498.046875; 1.11497E-4
6503.906250; 1.08646E-4
6509.765625; 1.03666E-4
6515.625000; 1.01752E-4
6521.484375; 9.86424E-5
6527.343750; 1.13431E-4
6533.203125; 1.08225E-4
6539.062500; 9.36708E-5
6544.921875; 9.60845E-5
6550.781250; 9.27470E-5
6556.640625; 1.05320E-4
6562.500000; 1.04339E-4
6568.359375; 1.08171E-4
6574.218750; 1.12037E-4
6580.078125; 1.15240E-4
6585.937500; 1.12436E-4
6591.796875; 9.74945E-5
6597.656250; 1.01372E-4
6603.515625; 1.12380E-4
6609.375000; 1.17612E-4
6615.234375; 1.19352E-4
6621.093750; 1.01853E-4
6626.953125; 9.98571E-5
6632.812500; 1.04862E-4
6638.671875; 1.03724E-4
6644.531250; 1.16221E-4
6650.390625; 1.21308E-4
6656.250000; 1.06437E-4
6662.109375; 9.76293E-5
6667.968750; 1.03614E-4
6673.828125; 9.37406E-5
6679.687500; 9.93284E-5
6685.546875; 1.04246E-4
6691.406250; 1.05824E-4
6697.265625; 1.07601E-4
6703.125000; 1.09269E-4
6708.984375; 1.07477E-4
6714.843750; 1.04146E-4
6720.703125; 1.00933E-4
6726.562500; 9.98119E-5
6732.421875; 1.03886E-4
6738.281250; 9.83654E-5
6744.140625; 1.13401E-4
6750.000000; 1.11905E-4
6755.859375; 1.10204E-4
6761.718750; 1.16574E-4
6767.578125; 9.97409E-5
6773.437500; 9.45157E-5
6779.296875; 1.12120E-4
6785.156250; 1.07604E-4
6791.015625; 9.76911E-5
6796.875000; 1.08396E-4
6802.734375; 1.06273E-4
6808.593750; 9.47694E-5
6814.453125; 9.78860E-5
6820.312500; 1.06604E-4
6826.171875; 1.22440E-4
6832.031250; 1.19060E-4
6837.890625; 1.03114E-4
6843.750000; 9.98206E-5
6849.609375; 1.07881E-4
6855.468750; 1.06548E-4
6861.328125; 9.72657E-5
6867.187500; 9.81469E-5
6873.046875; 9.42829E-5
6878.906250; 9.96590E-5
6884.765625; 1.11478E-4
6890.625000; 1.06022E-4
6896.484375; 1.07799E-4
6902.343750; 1.08331E-4
6908.203125; 1.06979E-4
6914.062500; 1.18222E-4
6919.921875; 1.07980E-4
6925.781250; 1.03831E-4
6931.640625; 1.02200E-4
6937.500000; 9.94710E-5
6943.359375; 9.77155E-5
6949.218750; 1.02362E-4
6955.078125; 9.55604E-5
6960.937500; 1.01327E-4
6966.796875; 1.04241E-4
6972.656250; 1.09795E-4
6978.515625; 1.00509E-4
6984.375000; 9.60117E-5
6990.234375; 1.11830E-4
6996.093750; 1.04534E-4
7001.953125; 1.04460E-4
7007.812500; 1.03882E-4
7013.671875; 9.05004E-5
7019.531250; 1.02271E-4
7025.390625; 1.09613E-4
7031.250000; 1.10722E-4
7037.109375; 1.08410E-4
7042.968750; 1.05007E-4
7048.828125; 1.05443E-4
7054.687500; 1.01768E-4
7060.546875; 1.00879E-4
7066.406250; 9.13369E-5
7072.265625; 9.93159E-5
7078.125000; 1.04850E-4
7083.984375; 9.87574E-5
7089.843750; 1.06833E-4
7095.703125; 1.08618E-4
7101.562500; 9.87980E-5
7107.421875; 1.01408E-4
7113.281250; 1.00744E-4
7119.140625; 1.06011E-4
7125.000000; 1.02570E-4
7130.859375; 9.68874E-5
7136.718750; 1.04353E-4
7142.578125; 1.11215E-4
7148.437500; 1.12848E-4
7154.296875; 1.03506E-4
7160.156250; 1.03740E-4
7166.015625; 1.06481E-4
7171.875000; 1.08239E-4
7177.734375; 1.02892E-4
7183.593750; 9.33351E-5
7189.453125; 1.02785E-4
7195.312500; 1.15877E-4
7201.171875; 1.04562E-4
7207.031250; 1.02740E-4
7212.890625; 1.04535E-4
7218.750000; 9.73289E-5
7224.609375; 9.67781E-5
7230.468750; 1.04123E-4
7236.328125; 1.03877E-4
7242.187500; 9.75986E-5
7248.046875; 1.11770E-4
7253.906250; 1.09945E-4
7259.765625; 1.09753E-4
7265.625000; 1.13857E-4
7271.484375; 1.08971E-4
7277.343750; 1.23044E-4
7283.203125; 1.19483E-4
7289.062500; 1.06520E-4
7294.921875; 9.98931E-5
7300.781250; 9.93327E-5
7306.640625; 1.06558E-4
7312.500000; 1.19154E-4
7318.359375; 1.11379E-4
7324.218750; 1.01127E-4
7330.078125; 9.30188E-5
7335.937500; 9.54660E-5
7341.796875; 1.05769E-4
7347.656250; 1.07060E-4
7353.515625; 1.04025E-4
7359.375000; 9.90612E-5
7365.234375; 9.25315E-5
7371.093750; 1.00892E-4
7376.953125; 1.07737E-4
7382.812500; 9.53672E-5
7388.671875; 9.63244E-5
7394.531250; 9.95564E-5
7400.390625; 1.10259E-4
7406.250000; 1.06028E-4
7412.109375; 1.12103E-4
7417.968750; 1.08474E-4
7423.828125; 9.34814E-5
7429.687500; 9.82408E-5
7435.546875; 1.08656E-4
7441.406250; 1.04142E-4
7447.265625; 1.08469E-4
7453.125000; 1.04011E-4
7458.984375; 1.03717E-4
7464.843750; 1.06846E-4
7470.703125; 9.88980E-5
7476.562500; 9.61587E-5
7482.421875; 1.02681E-4
7488.281250; 1.10061E-4
7494.140625; 9.34616E-5
7500.000000; 8.99030E-5
7505.859375; 8.80731E-5
7511.718750; 1.09847E-4
7517.578125; 1.12870E-4
7523.437500; 1.07949E-4
7529.296875; 1.20610E-4
7535.156250; 1.13125E-4
7541.015625; 1.00300E-4
7546.875000; 1.02917E-4
7552.734375; 1.07747E-4
7558.593750; 1.06175E-4
7564.453125; 1.09755E-4
7570.312500; 1.03615E-4
7576.171875; 9.99805E-5
7582.031250; 1.01953E-4
7587.890625; 1.05245E-4
7593.750000; 1.19390E-4
7599.609375; 1.04488E-4
7605.468750; 8.47963E-5
7611.328125; 9.20416E-5
7617.187500; 1.03730E-4
7623.046875; 1.05424E-4
7628.906250; 9.83894E-5
7634.765625; 1.00775E-4
7640.625000; 1.04072E-4
7646.484375; 9.81678E-5
7652.343750; 1.01167E-4
7658.203125; 9.78126E-5
7664.062500; 1.10312E-4
7669.921875; 1.02402E-4
7675.781250; 1.11206E-4
7681.640625; 1.15124E-4
7687.500000; 1.14564E-4
7693.359375; 1.00451E-4
7699.218750; 1.00424E-4
7705.078125; 9.20007E-5
7710.937500; 1.04355E-4
7716.796875; 1.04018E-4
7722.656250; 1.11107E-4
7728.515625; 1.14398E-4
7734.375000; 1.05423E-4
7740.234375; 1.08338E-4
7746.093750; 1.00848E-4
7751.953125; 9.43950E-5
7757.812500; 9.30507E-5
7763.671875; 9.86070E-5
7769.531250; 9.64999E-5
7775.390625; 1.08846E-4
7781.250000; 1.09102E-4
7787.109375; 9.71451E-5
7792.968750; 1.05014E-4
7798.828125; 1.17958E-4
7804.687500; 1.20448E-4
7810.546875; 1.15211E-4
7816.406250; 1.10643E-4
7822.265625; 1.12586E-4
7828.125000; 1.04552E-4
7833.984375; 1.05493E-4
7839.843750; 1.04458E-4
7845.703125; 9.83801E-5
7851.562500; 1.06118E-4
7857.421875; 1.11947E-4
7863.281250; 9.37658E-5
7869.140625; 9.40842E-5
7875.000000; 1.07352E-4
7880.859375; 1.07870E-4
7886.718750; 1.06237E-4
7892.578125; 1.04544E-4
7898.437500; 1.13494E-4
7904.296875; 9.98847E-5
7910.156250; 9.87317E-5
7916.015625; 9.61190E-5
7921.875000; 1.01303E-4
7927.734375; 1.02183E-4
7933.593750; 1.01601E-4
7939.453125; 1.08714E-4
7945.312500; 1.04849E-4
7951.171875; 1.03768E-4
7957.031250; 1.00508E-4
7962.890625; 9.58141E-5
7968.750000; 1.01558E-4
7974.609375; 1.08065E-4
7980.468750; 1.15842E-4
7986.328125; 1.05811E-4
7992.187500; 9.89489E-5
7998.046875; 9.03402E-5
8003.906250; 9.50211E-5
8009.765625; 9.22988E-5
8015.625000; 1.04012E-4
8021.484375; 1.11283E-4
8027.343750; 1.09646E-4
8033.203125; 1.06097E-4
8039.062500; 1.02239E-4
8044.921875; 9.90844E-5
8050.781250; 9.62177E-5
8056.640625; 1.08843E-4
8062.500000; 1.09102E-4
8068.359375; 1.03785E-4
8074.218750; 1.11235E-4
8080.078125; 1.07496E-4
8085.937500; 9.91958E-5
8091.796875; 1.11226E-4
8097.656250; 1.13406E-4
8103.515625; 1.07949E-4
8109.375000; 9.81925E-5
8115.234375; 9.94513E-5
8121.093750; 8.95735E-5
8126.953125; 9.40940E-5
8132.812500; 1.03768E-4
8138.671875; 1.01443E-4
8144.531250; 1.09133E-4
8150.390625; 1.04520E-4
8156.250000; 9.47836E-5
8162.109375; 1.00734E-4
8167.968750; 1.12733E-4
8173.828125; 1.13265E-4
8179.687500; 1.16233E-4
8185.546875; 1.15360E-4
8191.406250; 1.07730E-4
8197.265625; 1.01061E-4
8203.125000; 9.93370E-5
8208.984375; 1.05323E-4
8214.843750; 1.13341E-4
8220.703125; 1.10954E-4
8226.562500; 1.03471E-4
8232.421875; 1.13440E-4
8238.281250; 1.06416E-4
8244.140625; 9.89334E-5
8250.000000; 1.07012E-4
8255.859375; 1.07762E-4
8261.718750; 1.01066E-4
8267.578125; 1.10651E-4
8273.437500; 1.07123E-4
8279.296875; 1.12080E-4
8285.156250; 1.17366E-4
8291.015625; 1.22259E-4
8296.875000; 1.06320E-4
8302.734375; 1.03140E-4
8308.593750; 1.02180E-4
8314.453125; 9.79207E-5
8320.312500; 1.08523E-4
8326.171875; 1.11276E-4
8332.031250; 1.12272E-4
8337.890625; 1.08256E-4
8343.750000; 1.09594E-4
8349.609375; 1.13211E-4
8355.468750; 1.12485E-4
8361.328125; 1.03976E-4
8367.187500; 1.18198E-4
8373.046875; 1.17973E-4
8378.906250; 1.00230E-4
8384.765625; 8.87124E-5
8390.625000; 9.53542E-5
8396.484375; 9.56980E-5
8402.343750; 8.95077E-5
8408.203125; 9.05747E-5
8414.062500; 9.49531E-5
8419.921875; 1.02241E-4
8425.781250; 9.29539E-5
8431.640625; 1.03122E-4
8437.500000; 1.14530E-4
8443.359375; 1.15567E-4
8449.218750; 1.08493E-4
8455.078125; 8.88411E-5
8460.937500; 9.09056E-5
8466.796875; 1.11994E-4
8472.656250; 1.11203E-4
8478.515625; 9.81897E-5
8484.375000; 9.61288E-5
8490.234375; 9.55618E-5
8496.093750; 9.71555E-5
8501.953125; 9.74084E-5
8507.812500; 1.08404E-4
8513.671875; 1.00970E-4
8519.531250; 1.08192E-4
8525.390625; 1.00203E-4
8531.250000; 9.23067E-5
8537.109375; 9.75792E-5
8542.968750; 1.04770E-4
8548.828125; 1.01926E-4
8554.687500; 1.05311E-4
8560.546875; 1.05421E-4
8566.406250; 9.69227E-5
8572.265625; 1.00970E-4
8578.125000; 1.15246E-4
8583.984375; 1.18864E-4
8589.843750; 1.02257E-4
8595.703125; 1.07250E-4
8601.562500; 9.58416E-5
8607.421875; 9.39558E-5
8613.281250; 9.64785E-5
8619.140625; 9.89533E-5
8625.000000; 1.01382E-4
8630.859375; 9.94753E-5
8636.718750; 8.30779E-5
8642.578125; 9.73947E-5
8648.437500; 1.09702E-4
8654.296875; 1.04498E-4
8660.156250; 9.22381E-5
8666.015625; 9.47168E-5
8671.875000; 1.11397E-4
8677.734375; 1.12157E-4
8683.593750; 9.67040E-5
8689.453125; 8.99354E-5
8695.312500; 1.04058E-4
8701.171875; 9.70137E-5
8707.031250; 9.77916E-5
8712.890625; 1.00643E-4
8718.750000; 1.07583E-4
8724.609375; 1.06309E-4
8730.468750; 1.12735E-4
8736.328125; 1.12504E-4
8742.187500; 1.19192E-4
8748.046875; 1.04800E-4
8753.906250; 9.92719E-5
8759.765625; 1.04485E-4
8765.625000; 9.57564E-5
8771.484375; 8.83988E-5
8777.343750; 1.01487E-4
8783.203125; 9.40490E-5
8789.062500; 1.01125E-4
8794.921875; 1.11951E-4
8800.781250; 1.07493E-4
8806.640625; 9.95205E-5
8812.500000; 1.03454E-4
8818.359375; 9.16699E-5
8824.218750; 9.17670E-5
8830.078125; 1.01345E-4
8835.937500; 1.03984E-4
8841.796875; 8.67445E-5
8847.656250; 9.60554E-5
8853.515625; 1.10985E-4
8859.375000; 1.08235E-4
8865.234375; 1.07541E-4
8871.093750; 9.34149E-5
8876.953125; 1.10443E-4
8882.812500; 1.17723E-4
8888.671875; 1.16960E-4
8894.531250; 1.16911E-4
8900.390625; 1.08322E-4
8906.250000; 1.06196E-4
8912.109375; 9.43038E-5
8917.968750; 9.21563E-5
8923.828125; 9.97614E-5
8929.687500; 1.02224E-4
8935.546875; 1.01853E-4
8941.406250; 1.06749E-4
8947.265625; 1.02000E-4
8953.125000; 1.00747E-4
8958.984375; 1.07442E-4
8964.843750; 1.09923E-4
8970.703125; 1.04443E-4
8976.562500; 1.01911E-4
8982.421875; 1.03421E-4
8988.281250; 9.77684E-5
8994.140625; 1.03704E-4
9000.000000; 1.12086E-4
9005.859375; 9.81374E-5
9011.718750; 9.64890E-5
9017.578125; 1.13048E-4
9023.437500; 1.15077E-4
9029.296875; 1.02519E-4
9035.156250; 9.65023E-5
9041.015625; 9.96135E-5
9046.875000; 9.26755E-5
9052.734375; 9.74080E-5
9058.593750; 1.09787E-4
9064.453125; 1.10879E-4
9070.312500; 1.00899E-4
9076.171875; 9.74950E-5
9082.031250; 1.01097E-4
9087.890625; 1.11836E-4
9093.750000; 1.07267E-4
9099.609375; 1.07731E-4
9105.468750; 1.00027E-4
9111.328125; 1.10506E-4
9117.187500; 9.67377E-5
9123.046875; 9.05796E-5
9128.906250; 1.07989E-4
9134.765625; 9.99286E-5
9140.625000; 1.01985E-4
9146.484375; 1.11111E-4
9152.343750; 1.06902E-4
9158.203125; 9.01070E-5
9164.062500; 9.83792E-5
9169.921875; 1.02266E-4
9175.781250; 1.03294E-4
9181.640625; 1.09852E-4
9187.500000; 1.12216E-4
9193.359375; 1.00430E-4
9199.218750; 1.02843E-4
9205.078125; 9.79626E-5
9210.937500; 9.55128E-5
9216.796875; 9.44826E-5
9222.656250; 9.39307E-5
9228.515625; 1.03796E-4
9234.375000; 9.36852E-5
9240.234375; 9.14235E-5
9246.093750; 1.07913E-4
9251.953125; 1.07532E-4
9257.812500; 1.05546E-4
9263.671875; 1.16771E-4
9269.531250; 1.09898E-4
9275.390625; 1.01895E-4
9281.250000; 1.07174E-4
9287.109375; 9.84502E-5
9292.968750; 9.16893E-5
9298.828125; 1.00755E-4
9304.687500; 1.07922E-4
9310.546875; 1.01330E-4
9316.406250; 9.06146E-5
9322.265625; 9.66349E-5
9328.125000; 9.76796E-5
9333.984375; 1.04828E-4
9339.843750; 1.13745E-4
9345.703125; 1.12206E-4
9351.562500; 1.06592E-4
9357.421875; 1.01927E-4
9363.281250; 9.63072E-5
9369.140625; 9.84950E-5
9375.000000; 1.08636E-4
9380.859375; 1.08054E-4
9386.718750; 1.01919E-4
9392.578125; 1.00752E-4
9398.437500; 1.09257E-4
9404.296875; 1.03069E-4
9410.156250; 1.04566E-4
9416.015625; 1.20588E-4
9421.875000; 1.23145E-4
9427.734375; 1.07894E-4
9433.593750; 1.09397E-4
9439.453125; 1.22340E-4
9445.312500; 1.07746E-4
9451.171875; 9.30094E-5
9457.031250; 9.21373E-5
9462.890625; 1.04146E-4
9468.750000; 9.96540E-5
9474.609375; 1.00762E-4
9480.468750; 1.04873E-4
9486.328125; 1.07714E-4
9492.187500; 1.10920E-4
9498.046875; 1.10452E-4
9503.906250; 1.01450E-4
9509.765625; 8.76309E-5
9515.625000; 9.42115E-5
9521.484375; 1.02694E-4
9527.343750; 9.72349E-5
9533.203125; 9.23868E-5
9539.062500; 1.05916E-4
9544.921875; 1.11296E-4
9550.781250; 1.07875E-4
9556.640625; 1.21124E-4
9562.500000; 1.12039E-4
9568.359375; 1.05020E-4
9574.218750; 9.35897E-5
9580.078125; 1.01879E-4
9585.937500; 1.06283E-4
9591.796875; 1.07265E-4
9597.656250; 1.07231E-4
9603.515625; 1.01711E-4
9609.375000; 1.04106E-4
9615.234375; 1.09958E-4
9621.093750; 1.00597E-4
9626.953125; 8.73564E-5
9632.812500; 1.00250E-4
9638.671875; 1.08811E-4
9644.531250; 1.17848E-4
9650.390625; 1.14140E-4
9656.250000; 1.15516E-4
9662.109375; 1.06533E-4
9667.968750; 1.05172E-4
9673.828125; 1.04000E-4
9679.687500; 1.07034E-4
9685.546875; 1.10198E-4
9691.406250; 9.99802E-5
9697.265625; 8.74552E-5
9703.125000; 9.58274E-5
9708.984375; 1.11746E-4
9714.843750; 1.08854E-4
9720.703125; 1.02403E-4
9726.562500; 1.04030E-4
9732.421875; 1.04331E-4
9738.281250; 9.77619E-5
9744.140625; 1.00189E-4
9750.000000; 9.29936E-5
9755.859375; 9.48056E-5
9761.718750; 9.48867E-5
9767.578125; 9.28975E-5
9773.437500; 9.73956E-5
9779.296875; 9.83697E-5
9785.156250; 1.01307E-4
9791.015625; 8.58651E-5
9796.875000; 8.07860E-5
9802.734375; 9.34557E-5
9808.593750; 9.57978E-5
9814.453125; 9.89012E-5
9820.312500; 9.80794E-5
9826.171875; 1.13507E-4
9832.031250; 1.04008E-4
9837.890625; 9.67277E-5
9843.750000; 1.13299E-4
9849.609375; 1.20736E-4
9855.468750; 1.00628E-4
9861.328125; 1.01354E-4
9867.187500; 9.73357E-5
9873.046875; 9.35978E-5
9878.906250; 1.11408E-4
9884.765625; 1.09044E-4
9890.625000; 1.08041E-4
9896.484375; 9.92324E-5
9902.343750; 9.94989E-5
9908.203125; 9.94452E-5
9914.062500; 9.69627E-5
9919.921875; 9.70739E-5
9925.781250; 1.05046E-4
9931.640625; 1.08622E-4
9937.500000; 1.10437E-4
9943.359375; 9.51000E-5
9949.218750; 1.08146E-4
9955.078125; 1.06520E-4
9960.937500; 1.05796E-4
9966.796875; 1.07605E-4
9972.656250; 9.54490E-5
9978.515625; 9.91198E-5
9984.375000; 1.02717E-4
9990.234375; 1.04483E-4
9996.093750; 9.42258E-5
10001.953125; 9.93966E-5
10007.812500; 9.30641E-5
10013.671875; 9.42846E-5
10019.531250; 1.08869E-4
10025.390625; 1.24740E-4
10031.250000; 1.05843E-4
10037.109375; 9.99977E-5
10042.968750; 1.05084E-4
10048.828125; 1.16867E-4
10054.687500; 1.16644E-4
10060.546875; 1.01348E-4
10066.406250; 8.99108E-5
10072.265625; 1.01019E-4
10078.125000; 1.07379E-4
10083.984375; 1.03351E-4
10089.843750; 1.02273E-4
10095.703125; 1.07557E-4
10101.562500; 1.16204E-4
10107.421875; 1.06340E-4
10113.281250; 1.05479E-4
10119.140625; 1.11767E-4
10125.000000; 1.05031E-4
10130.859375; 1.11846E-4
10136.718750; 1.03197E-4
10142.578125; 1.05214E-4
10148.437500; 9.40177E-5
10154.296875; 8.48642E-5
10160.156250; 9.74311E-5
10166.015625; 1.01350E-4
10171.875000; 1.12161E-4
10177.734375; 1.03242E-4
10183.593750; 8.32913E-5
10189.453125; 9.21277E-5
10195.312500; 1.02641E-4
10201.171875; 9.87180E-5
10207.031250; 9.52611E-5
10212.890625; 9.67283E-5
10218.750000; 1.04432E-4
10224.609375; 1.09665E-4
10230.468750; 9.50712E-5
10236.328125; 9.99875E-5
10242.187500; 1.05922E-4
10248.046875; 9.91700E-5
10253.906250; 1.03367E-4
10259.765625; 1.08298E-4
10265.625000; 1.04362E-4
10271.484375; 1.08352E-4
10277.343750; 1.02623E-4
10283.203125; 1.06324E-4
10289.062500; 1.00643E-4
10294.921875; 8.27353E-5
10300.781250; 9.54804E-5
10306.640625; 1.00473E-4
10312.500000; 9.97632E-5
10318.359375; 9.84294E-5
10324.218750; 1.04877E-4
10330.078125; 1.09806E-4
10335.937500; 1.13657E-4
10341.796875; 1.15235E-4
10347.656250; 1.08538E-4
10353.515625; 1.06959E-4
10359.375000; 1.14292E-4
10365.234375; 1.13401E-4
10371.093750; 1.01362E-4
10376.953125; 1.00901E-4
10382.812500; 9.30503E-5
10388.671875; 8.84757E-5
10394.531250; 9.11566E-5
10400.390625; 1.05364E-4
10406.250000; 1.04595E-4
10412.109375; 1.04225E-4
10417.968750; 1.12320E-4
10423.828125; 1.01939E-4
10429.687500; 8.82163E-5
10435.546875; 9.19186E-5
10441.406250; 1.01760E-4
10447.265625; 1.03136E-4
10453.125000; 1.03975E-4
10458.984375; 9.93731E-5
10464.843750; 8.97187E-5
10470.703125; 9.14697E-5
10476.562500; 1.04973E-4
10482.421875; 1.02438E-4
10488.281250; 9.00144E-5
10494.140625; 9.59260E-5
10500.000000; 9.56904E-5
10505.859375; 9.39321E-5
10511.718750; 1.06268E-4
10517.578125; 1.14741E-4
10523.437500; 1.17271E-4
10529.296875; 1.11476E-4
10535.156250; 9.81402E-5
10541.015625; 1.06691E-4
10546.875000; 9.80818E-5
10552.734375; 9.50560E-5
10558.593750; 1.02727E-4
10564.453125; 1.01961E-4
10570.312500; 1.04078E-4
10576.171875; 1.09770E-4
10582.031250; 1.00847E-4
10587.890625; 1.09727E-4
10593.750000; 9.44743E-5
10599.609375; 9.86978E-5
10605.468750; 1.03600E-4
10611.328125; 9.74760E-5
10617.187500; 1.00205E-4
10623.046875; 1.01145E-4
10628.906250; 1.03786E-4
10634.765625; 9.92646E-5
10640.625000; 9.37526E-5
10646.484375; 9.25376E-5
10652.343750; 9.12018E-5
10658.203125; 1.01706E-4
10664.062500; 1.08231E-4
10669.921875; 1.04192E-4
10675.781250; 1.13014E-4
10681.640625; 1.10695E-4
10687.500000; 1.04971E-4
10693.359375; 9.99707E-5
10699.218750; 1.04856E-4
10705.078125; 1.04598E-4
10710.937500; 9.53200E-5
10716.796875; 9.25290E-5
10722.656250; 9.88253E-5
10728.515625; 1.03870E-4
10734.375000; 9.74593E-5
10740.234375; 1.05558E-4
10746.093750; 1.16501E-4
10751.953125; 1.19307E-4
10757.812500; 1.10029E-4
10763.671875; 1.04179E-4
10769.531250; 1.13271E-4
10775.390625; 1.14666E-4
10781.250000; 1.07288E-4
10787.109375; 1.05533E-4
10792.968750; 9.71043E-5
10798.828125; 1.02405E-4
10804.687500; 1.07928E-4
10810.546875; 1.11814E-4
10816.406250; 1.04352E-4
10822.265625; 9.69200E-5
10828.125000; 9.32329E-5
10833.984375; 9.34354E-5
10839.843750; 9.96362E-5
10845.703125; 1.13537E-4
10851.562500; 1.10754E-4
10857.421875; 1.10065E-4
10863.281250; 1.01419E-4
10869.140625; 9.00679E-5
10875.000000; 1.01772E-4
10880.859375; 9.95456E-5
10886.718750; 9.66286E-5
10892.578125; 1.00711E-4
10898.437500; 1.08076E-4
10904.296875; 1.01830E-4
10910.156250; 9.96685E-5
10916.015625; 1.01836E-4
10921.875000; 9.48244E-5
10927.734375; 1.08085E-4
10933.593750; 1.13787E-4
10939.453125; 1.05067E-4
10945.312500; 1.04200E-4
10951.171875; 9.80278E-5
10957.031250; 8.44181E-5
10962.890625; 1.05588E-4
10968.750000; 1.11721E-4
10974.609375; 9.75847E-5
10980.468750; 8.24466E-5
10986.328125; 8.55191E-5
10992.187500; 9.61668E-5
10998.046875; 9.75235E-5
11003.906250; 9.12726E-5
11009.765625; 9.36344E-5
11015.625000; 9.61313E-5
11021.484375; 9.64135E-5
11027.343750; 9.67811E-5
11033.203125; 9.27724E-5
11039.062500; 1.00924E-4
11044.921875; 1.05960E-4
11050.781250; 1.09114E-4
11056.640625; 1.14951E-4
11062.500000; 1.17492E-4
11068.359375; 1.11058E-4
11074.218750; 1.13708E-4
11080.078125; 1.15389E-4
11085.937500; 1.11012E-4
11091.796875; 1.08492E-4
11097.656250; 1.04636E-4
11103.515625; 9.32652E-5
11109.375000; 9.05722E-5
11115.234375; 9.48686E-5
11121.093750; 1.11674E-4
11126.953125; 1.04066E-4
11132.812500; 1.05163E-4
11138.671875; 1.03626E-4
11144.531250; 1.04522E-4
11150.390625; 1.06781E-4
11156.250000; 1.06202E-4
11162.109375; 9.70684E-5
11167.968750; 1.10143E-4
11173.828125; 1.14623E-4
11179.687500; 1.13379E-4
11185.546875; 1.04968E-4
11191.406250; 1.06216E-4
11197.265625; 1.06454E-4
11203.125000; 1.03384E-4
11208.984375; 9.48461E-5
11214.843750; 9.46692E-5
11220.703125; 9.74858E-5
11226.562500; 8.98132E-5
11232.421875; 1.00830E-4
11238.281250; 1.03713E-4
11244.140625; 8.74408E-5
11250.000000; 9.87168E-5
11255.859375; 1.12655E-4
11261.718750; 1.10812E-4
11267.578125; 1.14735E-4
11273.437500; 1.17739E-4
11279.296875; 1.11078E-4
11285.156250; 1.01037E-4
11291.015625; 1.13316E-4
11296.875000; 1.06093E-4
11302.734375; 1.09133E-4
11308.593750; 1.00724E-4
11314.453125; 9.78716E-5
11320.312500; 9.82199E-5
11326.171875; 1.08888E-4
11332.031250; 1.10660E-4
11337.890625; 9.28475E-5
11343.750000; 9.48889E-5
11349.609375; 9.09253E-5
11355.468750; 9.75907E-5
11361.328125; 1.01630E-4
11367.187500; 1.05275E-4
11373.046875; 1.09712E-4
11378.906250; 1.05568E-4
11384.765625; 1.09951E-4
11390.625000; 1.05190E-4
11396.484375; 9.70263E-5
11402.343750; 1.03171E-4
11408.203125; 1.10136E-4
11414.062500; 1.08283E-4
11419.921875; 1.03682E-4
11425.781250; 1.01954E-4
11431.640625; 1.10181E-4
11437.500000; 1.13078E-4
11443.359375; 9.90009E-5
11449.218750; 9.89258E-5
11455.078125; 9.49609E-5
11460.937500; 9.65683E-5
11466.796875; 1.11295E-4
11472.656250; 1.11048E-4
11478.515625; 9.46896E-5
11484.375000; 1.01490E-4
11490.234375; 1.02938E-4
11496.093750; 1.04085E-4
11501.953125; 1.06499E-4
11507.812500; 1.11138E-4
11513.671875; 9.92947E-5
11519.531250; 9.87438E-5
11525.390625; 9.26447E-5
11531.250000; 9.30981E-5
11537.109375; 1.04493E-4
11542.968750; 1.11500E-4
11548.828125; 1.08668E-4
11554.687500; 1.02086E-4
11560.546875; 1.16692E-4
11566.406250; 1.04653E-4
11572.265625; 8.57788E-5
11578.125000; 8.44048E-5
11583.984375; 9.17591E-5
11589.843750; 1.07962E-4
11595.703125; 1.04547E-4
11601.562500; 1.08103E-4
11607.421875; 1.00136E-4
11613.281250; 9.51868E-5
11619.140625; 9.74122E-5
11625.000000; 9.10702E-5
11630.859375; 1.04948E-4
11636.718750; 1.15932E-4
11642.578125; 1.08806E-4
11648.437500; 1.04936E-4
11654.296875; 1.00681E-4
11660.156250; 1.01189E-4
11666.015625; 1.10866E-4
11671.875000; 1.04565E-4
11677.734375; 1.06243E-4
11683.593750; 1.07656E-4
11689.453125; 1.06826E-4
11695.312500; 9.70936E-5
11701.171875; 1.10628E-4
11707.031250; 1.13244E-4
11712.890625; 1.12221E-4
11718.750000; 1.03722E-4
11724.609375; 9.57117E-5
11730.468750; 1.07202E-4
11736.328125; 1.13427E-4
11742.187500; 9.85884E-5
11748.046875; 1.04208E-4
11753.906250; 1.10370E-4
11759.765625; 1.16923E-4
11765.625000; 1.15019E-4
11771.484375; 9.52091E-5
11777.343750; 9.14678E-5
11783.203125; 1.07082E-4
11789.062500; 1.09595E-4
11794.921875; 9.78983E-5
11800.781250; 9.37907E-5
11806.640625; 9.39300E-5
11812.500000; 9.40770E-5
11818.359375; 8.50624E-5
11824.218750; 9.61876E-5
11830.078125; 1.02325E-4
11835.937500; 9.11591E-5
11841.796875; 8.39663E-5
11847.656250; 1.00000E-4
11853.515625; 1.06246E-4
11859.375000; 1.07832E-4
11865.234375; 1.02526E-4
11871.093750; 1.03449E-4
11876.953125; 9.95911E-5
11882.812500; 1.17246E-4
11888.671875; 1.17650E-4
11894.531250; 1.08687E-4
11900.390625; 1.02354E-4
11906.250000; 9.77014E-5
11912.109375; 9.67134E-5
11917.968750; 1.17259E-4
11923.828125; 1.01383E-4
11929.687500; 1.00741E-4
11935.546875; 1.03550E-4
11941.406250; 1.00430E-4
11947.265625; 1.10506E-4
11953.125000; 1.06288E-4
11958.984375; 9.42152E-5
11964.843750; 9.82182E-5
11970.703125; 1.07003E-4
11976.562500; 1.03655E-4
11982.421875; 9.16643E-5
11988.281250; 9.68914E-5
11994.140625; 1.07943E-4
12000.000000; 1.05172E-4
12005.859375; 1.06800E-4
12011.718750; 1.04271E-4
12017.578125; 1.08211E-4
12023.437500; 1.03692E-4
12029.296875; 1.03223E-4
12035.156250; 1.04937E-4
12041.015625; 9.05539E-5
12046.875000; 9.01166E-5
12052.734375; 1.03849E-4
12058.593750; 9.88620E-5
12064.453125; 1.05383E-4
12070.312500; 1.02231E-4
12076.171875; 9.83482E-5
12082.031250; 9.74516E-5
12087.890625; 9.92208E-5
12093.750000; 9.80651E-5
12099.609375; 9.11136E-5
12105.468750; 8.82500E-5
12111.328125; 1.09197E-4
12117.187500; 1.09814E-4
12123.046875; 1.06095E-4
12128.906250; 1.11695E-4
12134.765625; 1.09162E-4
12140.625000; 1.06140E-4
12146.484375; 1.17366E-4
12152.343750; 1.00900E-4
12158.203125; 8.71602E-5
12164.062500; 9.02507E-5
12169.921875; 9.60242E-5
12175.781250; 1.08106E-4
12181.640625; 1.14301E-4
12187.500000; 1.08544E-4
12193.359375; 1.13323E-4
12199.218750; 1.10889E-4
12205.078125; 9.75743E-5
12210.937500; 1.05923E-4
12216.796875; 9.92959E-5
12222.656250; 1.00482E-4
12228.515625; 1.03810E-4
12234.375000; 9.66765E-5
12240.234375; 1.02949E-4
12246.093750; 1.10805E-4
12251.953125; 9.51246E-5
12257.812500; 9.06869E-5
12263.671875; 1.03284E-4
12269.531250; 1.11539E-4
12275.390625; 1.06946E-4
12281.250000; 1.02364E-4
12287.109375; 1.09652E-4
12292.968750; 1.07247E-4
12298.828125; 1.07202E-4
12304.687500; 1.05597E-4
12310.546875; 1.00542E-4
12316.406250; 1.03212E-4
12322.265625; 1.19354E-4
12328.125000; 1.09338E-4
12333.984375; 8.96265E-5
12339.843750; 9.55418E-5
12345.703125; 1.16463E-4
12351.562500; 1.07950E-4
12357.421875; 9.74015E-5
12363.281250; 9.74510E-5
12369.140625; 1.01581E-4
12375.000000; 9.57422E-5
12380.859375; 9.01985E-5
12386.718750; 9.20375E-5
12392.578125; 9.98027E-5
12398.437500; 9.82483E-5
12404.296875; 1.05675E-4
12410.156250; 1.01060E-4
12416.015625; 9.60018E-5
12421.875000; 9.54418E-5
12427.734375; 9.70638E-5
12433.593750; 1.12619E-4
12439.453125; 1.16517E-4
12445.312500; 1.09943E-4
12451.171875; 9.64358E-5
12457.031250; 9.60691E-5
12462.890625; 1.08627E-4
12468.750000; 1.02344E-4
12474.609375; 1.05006E-4
12480.468750; 9.80024E-5
12486.328125; 9.94602E-5
12492.187500; 9.39203E-5
12498.046875; 9.43299E-5
12503.906250; 9.28283E-5
12509.765625; 8.96562E-5
12515.625000; 1.04947E-4
12521.484375; 1.06535E-4
12527.343750; 8.78787E-5
12533.203125; 1.00942E-4
12539.062500; 1.04120E-4
12544.921875; 1.07513E-4
12550.781250; 1.01517E-4
12556.640625; 1.03985E-4
12562.500000; 1.00045E-4
12568.359375; 1.03827E-4
12574.218750; 9.47450E-5
12580.078125; 9.76344E-5
12585.937500; 1.10645E-4
12591.796875; 1.04233E-4
12597.656250; 1.04089E-4
12603.515625; 1.08367E-4
12609.375000; 1.08047E-4
12615.234375; 9.53420E-5
12621.093750; 9.30647E-5
12626.953125; 9.84190E-5
12632.812500; 8.66102E-5
12638.671875; 8.17287E-5
12644.531250; 9.14320E-5
12650.390625; 1.03951E-4
12656.250000; 1.03956E-4
12662.109375; 9.17510E-5
12667.968750; 1.00318E-4
12673.828125; 1.03739E-4
12679.687500; 1.02924E-4
12685.546875; 1.10541E-4
12691.406250; 1.03522E-4
12697.265625; 9.19066E-5
12703.125000; 9.49677E-5
12708.984375; 1.07264E-4
12714.843750; 1.08232E-4
12720.703125; 1.03894E-4
12726.562500; 1.01334E-4
12732.421875; 9.99147E-5
12738.281250; 1.03547E-4
12744.140625; 9.88879E-5
12750.000000; 9.86318E-5
12755.859375; 9.61658E-5
12761.718750; 9.51032E-5
12767.578125; 1.00623E-4
12773.437500; 9.60314E-5
12779.296875; 9.34592E-5
12785.156250; 9.16592E-5
12791.015625; 1.01851E-4
12796.875000; 9.99543E-5
12802.734375; 9.74742E-5
12808.593750; 9.29582E-5
12814.453125; 8.63848E-5
12820.312500; 9.18013E-5
12826.171875; 9.65667E-5
12832.031250; 9.97633E-5
12837.890625; 1.04141E-4
12843.750000; 9.57760E-5
12849.609375; 9.31263E-5
12855.468750; 1.05360E-4
12861.328125; 9.99425E-5
12867.187500; 9.82999E-5
12873.046875; 1.02656E-4
12878.906250; 1.06350E-4
12884.765625; 1.11949E-4
12890.625000; 1.10318E-4
12896.484375; 1.16834E-4
12902.343750; 1.11521E-4
12908.203125; 1.09554E-4
12914.062500; 1.07262E-4
12919.921875; 1.04565E-4
12925.781250; 1.05173E-4
12931.640625; 1.04351E-4
12937.500000; 1.00959E-4
12943.359375; 9.88364E-5
12949.218750; 9.25596E-5
12955.078125; 9.95963E-5
12960.937500; 1.01544E-4
12966.796875; 9.68777E-5
12972.656250; 1.01033E-4
12978.515625; 1.06968E-4
12984.375000; 1.00941E-4
12990.234375; 9.12952E-5
12996.093750; 1.01819E-4
13001.953125; 1.11877E-4
13007.812500; 1.14194E-4
13013.671875; 1.05707E-4
13019.531250; 9.31892E-5
13025.390625; 9.15795E-5
13031.250000; 1.00399E-4
13037.109375; 1.07870E-4
13042.968750; 1.04077E-4
13048.828125; 1.02478E-4
13054.687500; 1.01933E-4
13060.546875; 1.04035E-4
13066.406250; 1.14905E-4
13072.265625; 1.04126E-4
13078.125000; 9.29964E-5
13083.984375; 9.88549E-5
13089.843750; 9.98445E-5
13095.703125; 8.99251E-5
13101.562500; 9.38968E-5
13107.421875; 1.03357E-4
13113.281250; 1.00813E-4
13119.140625; 9.28198E-5
13125.000000; 9.76532E-5
13130.859375; 1.10267E-4
13136.718750; 1.01212E-4
13142.578125; 9.82120E-5
13148.437500; 1.04775E-4
13154.296875; 9.86989E-5
13160.156250; 8.87858E-5
13166.015625; 1.00666E-4
13171.875000; 1.03022E-4
13177.734375; 1.06362E-4
13183.593750; 1.05979E-4
13189.453125; 1.01652E-4
13195.312500; 1.02923E-4
13201.171875; 9.82924E-5
13207.031250; 1.01663E-4
13212.890625; 9.43917E-5
13218.750000; 1.05595E-4
13224.609375; 9.87936E-5
13230.468750; 9.57427E-5
13236.328125; 8.98157E-5
13242.187500; 1.00738E-4
13248.046875; 1.09332E-4
13253.906250; 1.06201E-4
13259.765625; 1.00622E-4
13265.625000; 1.02473E-4
13271.484375; 1.02279E-4
13277.343750; 1.13520E-4
13283.203125; 1.23692E-4
13289.062500; 1.13547E-4
13294.921875; 9.59160E-5
13300.781250; 1.05444E-4
13306.640625; 9.98257E-5
13312.500000; 9.36851E-5
13318.359375; 9.93421E-5
13324.218750; 9.64569E-5
13330.078125; 8.81911E-5
13335.937500; 9.91187E-5
13341.796875; 1.06970E-4
13347.656250; 1.10745E-4
13353.515625; 1.11583E-4
13359.375000; 1.05371E-4
13365.234375; 9.55231E-5
13371.093750; 1.01406E-4
13376.953125; 1.11010E-4
13382.812500; 9.95438E-5
13388.671875; 9.44252E-5
13394.531250; 9.74679E-5
13400.390625; 9.33094E-5
13406.250000; 9.75185E-5
13412.109375; 1.01174E-4
13417.968750; 1.03147E-4
13423.828125; 1.00005E-4
13429.687500; 1.07530E-4
13435.546875; 9.22183E-5
13441.406250; 9.25969E-5
13447.265625; 1.09985E-4
13453.125000; 1.08249E-4
13458.984375; 1.02060E-4
13464.843750; 1.08552E-4
13470.703125; 1.06899E-4
13476.562500; 1.00522E-4
13482.421875; 9.72866E-5
13488.281250; 9.78259E-5
13494.140625; 1.04706E-4
13500.000000; 9.39166E-5
13505.859375; 8.71528E-5
13511.718750; 9.27607E-5
13517.578125; 1.04668E-4
13523.437500; 9.46111E-5
13529.296875; 8.98152E-5
13535.156250; 9.99642E-5
13541.015625; 1.10586E-4
13546.875000; 1.11915E-4
13552.734375; 1.02458E-4
13558.593750; 1.04563E-4
13564.453125; 1.03562E-4
13570.312500; 9.33345E-5
13576.171875; 9.82005E-5
13582.031250; 9.67287E-5
13587.890625; 9.43618E-5
13593.750000; 1.00858E-4
13599.609375; 1.12456E-4
13605.468750; 1.06919E-4
13611.328125; 9.84359E-5
13617.187500; 9.66519E-5
13623.046875; 1.02853E-4
13628.906250; 9.90211E-5
13634.765625; 9.82477E-5
13640.625000; 9.72169E-5
13646.484375; 1.01602E-4
13652.343750; 1.00556E-4
13658.203125; 9.49211E-5
13664.062500; 9.23248E-5
13669.921875; 9.90956E-5
13675.781250; 9.27461E-5
13681.640625; 9.53370E-5
13687.500000; 1.03745E-4
13693.359375; 1.04600E-4
13699.218750; 1.11078E-4
13705.078125; 1.06416E-4
13710.937500; 9.48634E-5
13716.796875; 9.95764E-5
13722.656250; 1.05232E-4
13728.515625; 1.01946E-4
13734.375000; 1.06945E-4
13740.234375; 1.06936E-4
13746.093750; 1.07569E-4
13751.953125; 1.03943E-4
13757.812500; 9.47697E-5
13763.671875; 8.95723E-5
13769.531250; 9.05958E-5
13775.390625; 9.10986E-5
13781.250000; 1.07997E-4
13787.109375; 1.09218E-4
13792.968750; 1.01626E-4
13798.828125; 1.03979E-4
13804.687500; 1.06536E-4
13810.546875; 1.17975E-4
13816.406250; 1.11168E-4
13822.265625; 1.07546E-4
13828.125000; 9.56560E-5
13833.984375; 8.31990E-5
13839.843750; 8.43154E-5
13845.703125; 9.37934E-5
13851.562500; 9.92215E-5
13857.421875; 1.01013E-4
13863.281250; 9.55785E-5
13869.140625; 9.78152E-5
13875.000000; 9.81573E-5
13880.859375; 1.00600E-4
13886.718750; 1.07139E-4
13892.578125; 1.00852E-4
13898.437500; 1.02293E-4
13904.296875; 1.14751E-4
13910.156250; 1.11996E-4
13916.015625; 9.92061E-5
13921.875000; 9.54722E-5
13927.734375; 9.61729E-5
13933.593750; 1.00107E-4
13939.453125; 1.10563E-4
13945.312500; 1.00598E-4
13951.171875; 1.04542E-4
13957.031250; 1.05247E-4
13962.890625; 8.99858E-5
13968.750000; 9.94062E-5
13974.609375; 9.71797E-5
13980.468750; 9.54628E-5
13986.328125; 1.04467E-4
13992.187500; 1.01906E-4
13998.046875; 9.93891E-5
14003.906250; 1.02778E-4
14009.765625; 1.08670E-4
14015.625000; 9.35580E-5
14021.484375; 9.02120E-5
14027.343750; 9.59635E-5
14033.203125; 1.03646E-4
14039.062500; 1.02919E-4
14044.921875; 1.06980E-4
14050.781250; 9.81147E-5
14056.640625; 9.29025E-5
14062.500000; 1.07124E-4
14068.359375; 9.72105E-5
14074.218750; 8.90427E-5
14080.078125; 9.69078E-5
14085.937500; 9.84373E-5
14091.796875; 9.66767E-5
14097.656250; 1.04010E-4
14103.515625; 1.02758E-4
14109.375000; 9.23767E-5
14115.234375; 8.76864E-5
14121.093750; 9.41422E-5
14126.953125; 9.37515E-5
14132.812500; 9.15306E-5
14138.671875; 9.83904E-5
14144.531250; 8.68887E-5
14150.390625; 9.43907E-5
14156.250000; 1.00096E-4
14162.109375; 9.55009E-5
14167.968750; 9.57247E-5
14173.828125; 9.73207E-5
14179.687500; 9.88009E-5
14185.546875; 1.05506E-4
14191.406250; 9.87428E-5
14197.265625; 9.79422E-5
14203.125000; 1.04504E-4
14208.984375; 1.04013E-4
14214.843750; 1.13603E-4
14220.703125; 1.09399E-4
14226.562500; 1.05098E-4
14232.421875; 9.95592E-5
14238.281250; 1.04681E-4
14244.140625; 9.83961E-5
14250.000000; 8.72478E-5
14255.859375; 9.99804E-5
14261.718750; 1.06884E-4
14267.578125; 1.04274E-4
14273.437500; 9.38518E-5
14279.296875; 1.06015E-4
14285.156250; 1.12149E-4
14291.015625; 1.06371E-4
14296.875000; 9.72648E-5
14302.734375; 8.54447E-5
14308.593750; 9.00757E-5
14314.453125; 9.72617E-5
14320.312500; 1.02018E-4
14326.171875; 1.10953E-4
14332.031250; 1.04252E-4
14337.890625; 1.04469E-4
14343.750000; 1.13686E-4
14349.609375; 1.09830E-4
14355.468750; 1.03169E-4
14361.328125; 1.02537E-4
14367.187500; 9.99867E-5
14373.046875; 1.08319E-4
14378.906250; 1.05925E-4
14384.765625; 1.09310E-4
14390.625000; 9.94076E-5
14396.484375; 8.95948E-5
14402.343750; 1.04361E-4
14408.203125; 9.41451E-5
14414.062500; 1.08802E-4
14419.921875; 9.71439E-5
14425.781250; 8.77992E-5
14431.640625; 9.99563E-5
14437.500000; 8.98817E-5
14443.359375; 1.04628E-4
14449.218750; 1.04730E-4
14455.078125; 1.01823E-4
14460.937500; 9.67603E-5
14466.796875; 1.06638E-4
14472.656250; 1.17819E-4
14478.515625; 1.00146E-4
14484.375000; 8.01941E-5
14490.234375; 9.27994E-5
14496.093750; 1.00053E-4
14501.953125; 9.63771E-5
14507.812500; 1.08430E-4
14513.671875; 1.10330E-4
14519.531250; 1.05735E-4
14525.390625; 9.77535E-5
14531.250000; 9.77937E-5
14537.109375; 1.00925E-4
14542.968750; 1.08675E-4
14548.828125; 1.06605E-4
14554.687500; 1.04100E-4
14560.546875; 1.08154E-4
14566.406250; 9.29197E-5
14572.265625; 9.80403E-5
14578.125000; 1.04482E-4
14583.984375; 1.04726E-4
14589.843750; 1.05839E-4
14595.703125; 1.00291E-4
14601.562500; 1.07461E-4
14607.421875; 9.56155E-5
14613.281250; 1.05415E-4
14619.140625; 1.08955E-4
14625.000000; 1.05553E-4
14630.859375; 9.58374E-5
14636.718750; 9.74607E-5
14642.578125; 1.03986E-4
14648.437500; 1.02381E-4
14654.296875; 1.02664E-4
14660.156250; 1.08468E-4
14666.015625; 1.05912E-4
14671.875000; 1.09533E-4
14677.734375; 1.01193E-4
14683.593750; 9.69194E-5
14689.453125; 9.83011E-5
14695.312500; 1.04579E-4
14701.171875; 1.07829E-4
14707.031250; 1.10060E-4
14712.890625; 1.12139E-4
14718.750000; 1.11179E-4
14724.609375; 9.87414E-5
14730.468750; 1.02875E-4
14736.328125; 1.04158E-4
14742.187500; 1.02096E-4
14748.046875; 1.00191E-4
14753.906250; 1.02816E-4
14759.765625; 9.45870E-5
14765.625000; 9.87539E-5
14771.484375; 9.29827E-5
14777.343750; 1.02531E-4
14783.203125; 1.07362E-4
14789.062500; 1.12238E-4
14794.921875; 1.03386E-4
14800.781250; 9.90959E-5
14806.640625; 9.23433E-5
14812.500000; 9.74156E-5
14818.359375; 1.03622E-4
14824.218750; 1.02262E-4
14830.078125; 9.56029E-5
14835.937500; 9.25296E-5
14841.796875; 9.87244E-5
14847.656250; 8.93311E-5
14853.515625; 1.00291E-4
14859.375000; 9.30855E-5
14865.234375; 9.27760E-5
14871.093750; 1.04077E-4
14876.953125; 1.03067E-4
14882.812500; 1.00123E-4
14888.671875; 9.66832E-5
14894.531250; 9.02160E-5
14900.390625; 9.81848E-5
14906.250000; 1.03399E-4
14912.109375; 1.04147E-4
14917.968750; 1.10482E-4
14923.828125; 9.38411E-5
14929.687500; 8.91163E-5
14935.546875; 9.84596E-5
14941.406250; 1.01567E-4
14947.265625; 1.18162E-4
14953.125000; 1.02080E-4
14958.984375; 1.02634E-4
14964.843750; 8.88815E-5
14970.703125; 8.71634E-5
14976.562500; 9.63320E-5
14982.421875; 1.04450E-4
14988.281250; 1.04660E-4
14994.140625; 1.08123E-4
15000.000000; 9.97605E-5
15005.859375; 1.04239E-4
15011.718750; 1.00676E-4
15017.578125; 1.02606E-4
15023.437500; 1.02811E-4
15029.296875; 9.97426E-5
15035.156250; 9.68911E-5
15041.015625; 9.95968E-5
15046.875000; 9.17361E-5
15052.734375; 8.52325E-5
15058.593750; 9.65013E-5
15064.453125; 9.53380E-5
15070.312500; 9.74769E-5
15076.171875; 9.32721E-5
15082.031250; 1.05296E-4
15087.890625; 1.10296E-4
15093.750000; 1.05941E-4
15099.609375; 1.02392E-4
15105.468750; 1.02076E-4
15111.328125; 1.09463E-4
15117.187500; 1.00309E-4
15123.046875; 1.13382E-4
15128.906250; 1.02512E-4
15134.765625; 9.15329E-5
15140.625000; 1.07456E-4
15146.484375; 1.15572E-4
15152.343750; 1.00648E-4
15158.203125; 1.03968E-4
15164.062500; 8.84673E-5
15169.921875; 9.50707E-5
15175.781250; 1.01148E-4
15181.640625; 1.04690E-4
15187.500000; 1.08053E-4
15193.359375; 9.20549E-5
15199.218750; 1.00079E-4
15205.078125; 1.03297E-4
15210.937500; 1.04780E-4
15216.796875; 1.13822E-4
15222.656250; 1.09064E-4
15228.515625; 8.85033E-5
15234.375000; 9.37867E-5
15240.234375; 9.10865E-5
15246.093750; 1.01839E-4
15251.953125; 8.51878E-5
15257.812500; 8.83048E-5
15263.671875; 8.76183E-5
15269.531250; 1.02430E-4
15275.390625; 1.04031E-4
15281.250000; 1.00388E-4
15287.109375; 1.10526E-4
15292.968750; 1.08770E-4
15298.828125; 1.06033E-4
15304.687500; 1.05323E-4
15310.546875; 1.13012E-4
15316.406250; 1.01390E-4
15322.265625; 9.30309E-5
15328.125000; 9.49476E-5
15333.984375; 9.82291E-5
15339.843750; 1.06846E-4
15345.703125; 1.08393E-4
15351.562500; 9.81485E-5
15357.421875; 9.69234E-5
15363.281250; 1.02018E-4
15369.140625; 9.99745E-5
15375.000000; 9.85546E-5
15380.859375; 1.11381E-4
15386.718750; 1.08869E-4
15392.578125; 1.03052E-4
15398.437500; 8.95028E-5
15404.296875; 1.03487E-4
15410.156250; 9.46695E-5
15416.015625; 9.10148E-5
15421.875000; 9.62626E-5
15427.734375; 1.05373E-4
15433.593750; 1.01124E-4
15439.453125; 9.06096E-5
15445.312500; 1.01038E-4
15451.171875; 9.29816E-5
15457.031250; 8.16698E-5
15462.890625; 9.14614E-5
15468.750000; 9.94941E-5
15474.609375; 9.64434E-5
15480.468750; 9.41085E-5
15486.328125; 9.43852E-5
15492.187500; 9.34606E-5
15498.046875; 9.64136E-5
15503.906250; 8.92715E-5
15509.765625; 9.10317E-5
15515.625000; 1.06950E-4
15521.484375; 1.12938E-4
15527.343750; 9.96911E-5
15533.203125; 9.75513E-5
15539.062500; 1.05716E-4
15544.921875; 1.05873E-4
15550.781250; 1.02456E-4
15556.640625; 9.74795E-5
15562.500000; 9.78169E-5
15568.359375; 9.95974E-5
15574.218750; 9.85755E-5
15580.078125; 8.85004E-5
15585.937500; 9.56086E-5
15591.796875; 1.02292E-4
15597.656250; 9.34082E-5
15603.515625; 9.42091E-5
15609.375000; 9.42616E-5
15615.234375; 1.04965E-4
15621.093750; 1.12160E-4
15626.953125; 1.05965E-4
15632.812500; 8.31570E-5
15638.671875; 8.98194E-5
15644.531250; 9.70763E-5
15650.390625; 9.81972E-5
15656.250000; 9.00937E-5
15662.109375; 9.58873E-5
15667.968750; 1.00187E-4
15673.828125; 9.45494E-5
15679.687500; 8.61108E-5
15685.546875; 9.57010E-5
15691.406250; 9.22415E-5
15697.265625; 9.25131E-5
15703.125000; 1.02297E-4
15708.984375; 1.06333E-4
15714.843750; 1.09895E-4
15720.703125; 1.06360E-4
15726.562500; 9.94343E-5
15732.421875; 1.07172E-4
15738.281250; 1.07725E-4
15744.140625; 9.30078E-5
15750.000000; 9.33305E-5
15755.859375; 1.01591E-4
15761.718750; 8.64184E-5
15767.578125; 8.55645E-5
15773.437500; 8.27557E-5
15779.296875; 8.25538E-5
15785.156250; 1.06976E-4
15791.015625; 1.15238E-4
15796.875000; 9.95774E-5
15802.734375; 1.07570E-4
15808.593750; 9.98904E-5
15814.453125; 1.00693E-4
15820.312500; 9.30965E-5
15826.171875; 9.55093E-5
15832.031250; 8.83299E-5
15837.890625; 9.51379E-5
15843.750000; 1.03932E-4
15849.609375; 9.67764E-5
15855.468750; 9.87768E-5
15861.328125; 1.00326E-4
15867.187500; 9.71715E-5
15873.046875; 1.08039E-4
15878.906250; 9.62414E-5
15884.765625; 8.31931E-5
15890.625000; 9.51941E-5
15896.484375; 1.01333E-4
15902.343750; 1.00972E-4
15908.203125; 9.28642E-5
15914.062500; 9.28238E-5
15919.921875; 1.03067E-4
15925.781250; 9.81185E-5
15931.640625; 1.04743E-4
15937.500000; 1.07332E-4
15943.359375; 1.06349E-4
15949.218750; 1.08084E-4
15955.078125; 9.82973E-5
15960.937500; 9.63202E-5
15966.796875; 9.48416E-5
15972.656250; 9.72281E-5
15978.515625; 1.01684E-4
15984.375000; 9.22500E-5
15990.234375; 9.42032E-5
15996.093750; 1.01416E-4
16001.953125; 9.51086E-5
16007.812500; 8.42493E-5
16013.671875; 9.43038E-5
16019.531250; 9.46095E-5
16025.390625; 1.11613E-4
16031.250000; 1.08782E-4
16037.109375; 1.04892E-4
16042.968750; 1.03622E-4
16048.828125; 1.09131E-4
16054.687500; 1.00928E-4
16060.546875; 1.10664E-4
16066.406250; 1.11661E-4
16072.265625; 1.04599E-4
16078.125000; 9.58788E-5
16083.984375; 1.13285E-4
16089.843750; 1.09252E-4
16095.703125; 1.12796E-4
16101.562500; 1.01934E-4
16107.421875; 9.39424E-5
16113.281250; 9.24852E-5
16119.140625; 1.00312E-4
16125.000000; 1.07024E-4
16130.859375; 8.23551E-5
16136.718750; 9.53344E-5
16142.578125; 9.65807E-5
16148.437500; 1.00617E-4
16154.296875; 8.58025E-5
16160.156250; 9.87723E-5
16166.015625; 1.05940E-4
16171.875000; 1.00394E-4
16177.734375; 1.07365E-4
16183.593750; 9.24306E-5
16189.453125; 9.35358E-5
16195.312500; 9.36250E-5
16201.171875; 9.17704E-5
16207.031250; 9.89519E-5
16212.890625; 9.45715E-5
16218.750000; 9.54083E-5
16224.609375; 1.04030E-4
16230.468750; 1.04982E-4
16236.328125; 1.00952E-4
16242.187500; 9.45804E-5
16248.046875; 9.19788E-5
16253.906250; 1.01863E-4
16259.765625; 1.14011E-4
16265.625000; 1.09680E-4
16271.484375; 9.98381E-5
16277.343750; 9.63148E-5
16283.203125; 9.78895E-5
16289.062500; 1.07307E-4
16294.921875; 9.73618E-5
16300.781250; 9.35345E-5
16306.640625; 9.62879E-5
16312.500000; 1.03641E-4
16318.359375; 1.03129E-4
16324.218750; 1.00601E-4
16330.078125; 9.93760E-5
16335.937500; 9.99510E-5
16341.796875; 9.90603E-5
16347.656250; 9.78485E-5
16353.515625; 9.02204E-5
16359.375000; 9.02740E-5
16365.234375; 9.36888E-5
16371.093750; 9.06807E-5
16376.953125; 1.03933E-4
16382.812500; 1.04796E-4
16388.671875; 9.71611E-5
16394.531250; 1.00275E-4
16400.390625; 1.00442E-4
16406.250000; 1.08231E-4
16412.109375; 1.05749E-4
16417.968750; 1.01704E-4
16423.828125; 1.06649E-4
16429.687500; 1.05963E-4
16435.546875; 9.63796E-5
16441.406250; 8.82171E-5
16447.265625; 9.69465E-5
16453.125000; 9.99087E-5
16458.984375; 9.41850E-5
16464.843750; 9.17183E-5
16470.703125; 9.43425E-5
16476.562500; 1.01904E-4
16482.421875; 9.59862E-5
16488.281250; 9.17382E-5
16494.140625; 8.88813E-5
16500.000000; 1.04511E-4
16505.859375; 1.07236E-4
16511.718750; 8.81675E-5
16517.578125; 8.74180E-5
16523.437500; 9.95864E-5
16529.296875; 9.97291E-5
16535.156250; 9.70675E-5
16541.015625; 1.00029E-4
16546.875000; 9.29637E-5
16552.734375; 9.38812E-5
16558.593750; 1.04997E-4
16564.453125; 1.11964E-4
16570.312500; 9.72717E-5
16576.171875; 9.54120E-5
16582.031250; 1.14639E-4
16587.890625; 1.08394E-4
16593.750000; 9.34697E-5
16599.609375; 7.91034E-5
16605.468750; 8.04414E-5
16611.328125; 1.03517E-4
16617.187500; 1.05357E-4
16623.046875; 9.78382E-5
16628.906250; 9.68622E-5
16634.765625; 1.00945E-4
16640.625000; 1.03928E-4
16646.484375; 1.11389E-4
16652.343750; 8.78596E-5
16658.203125; 8.99271E-5
16664.062500; 1.02308E-4
16669.921875; 1.03447E-4
16675.781250; 1.06471E-4
16681.640625; 9.60753E-5
16687.500000; 9.08740E-5
16693.359375; 9.11051E-5
16699.218750; 1.06523E-4
16705.078125; 1.00369E-4
16710.937500; 7.61742E-5
16716.796875; 8.76421E-5
16722.656250; 8.73606E-5
16728.515625; 9.99852E-5
16734.375000; 1.00659E-4
16740.234375; 1.04820E-4
16746.093750; 9.53090E-5
16751.953125; 8.55624E-5
16757.812500; 8.83025E-5
16763.671875; 9.45963E-5
16769.531250; 8.72703E-5
16775.390625; 9.48577E-5
16781.250000; 1.08317E-4
16787.109375; 1.07116E-4
16792.968750; 1.01876E-4
16798.828125; 1.07574E-4
16804.687500; 1.08008E-4
16810.546875; 1.02661E-4
16816.406250; 9.92240E-5
16822.265625; 1.10553E-4
16828.125000; 1.07474E-4
16833.984375; 1.02088E-4
16839.843750; 9.05944E-5
16845.703125; 1.00149E-4
16851.562500; 1.00029E-4
16857.421875; 9.09346E-5
16863.281250; 1.02278E-4
16869.140625; 1.06199E-4
16875.000000; 1.04423E-4
16880.859375; 1.03948E-4
16886.718750; 1.07709E-4
16892.578125; 1.02408E-4
16898.437500; 1.08478E-4
16904.296875; 1.03596E-4
16910.156250; 9.22059E-5
16916.015625; 9.11850E-5
16921.875000; 1.11162E-4
16927.734375; 1.15609E-4
16933.593750; 9.90316E-5
16939.453125; 9.49877E-5
16945.312500; 1.08273E-4
16951.171875; 1.03433E-4
16957.031250; 1.02045E-4
16962.890625; 1.11404E-4
16968.750000; 1.01718E-4
16974.609375; 9.39388E-5
16980.468750; 1.04543E-4
16986.328125; 9.47993E-5
16992.187500; 8.95653E-5
16998.046875; 9.69042E-5
17003.906250; 9.38263E-5
17009.765625; 8.91920E-5
17015.625000; 9.96999E-5
17021.484375; 9.39363E-5
17027.343750; 9.53950E-5
17033.203125; 9.51311E-5
17039.062500; 9.88676E-5
17044.921875; 9.64727E-5
17050.781250; 9.47248E-5
17056.640625; 9.61603E-5
17062.500000; 1.02534E-4
17068.359375; 1.08499E-4
17074.218750; 9.41874E-5
17080.078125; 1.02298E-4
17085.937500; 1.19999E-4
17091.796875; 1.00909E-4
17097.656250; 9.23374E-5
17103.515625; 9.93533E-5
17109.375000; 9.87235E-5
17115.234375; 9.08236E-5
17121.093750; 8.55836E-5
17126.953125; 9.27583E-5
17132.812500; 9.78671E-5
17138.671875; 9.68079E-5
17144.531250; 9.04192E-5
17150.390625; 9.44418E-5
17156.250000; 9.38086E-5
17162.109375; 9.52171E-5
17167.968750; 9.56866E-5
17173.828125; 9.89047E-5
17179.687500; 9.05143E-5
17185.546875; 9.10120E-5
17191.406250; 9.31738E-5
17197.265625; 1.06554E-4
17203.125000; 1.02045E-4
17208.984375; 9.66194E-5
17214.843750; 1.10314E-4
17220.703125; 1.08099E-4
17226.562500; 1.06300E-4
17232.421875; 1.07627E-4
17238.281250; 1.04662E-4
17244.140625; 9.87757E-5
17250.000000; 1.08578E-4
17255.859375; 9.41653E-5
17261.718750; 1.02472E-4
17267.578125; 1.04310E-4
17273.437500; 1.06625E-4
17279.296875; 9.88052E-5
17285.156250; 9.38737E-5
17291.015625; 9.92969E-5
17296.875000; 8.72455E-5
17302.734375; 9.33523E-5
17308.593750; 1.00338E-4
17314.453125; 1.04093E-4
17320.312500; 1.01262E-4
17326.171875; 9.59651E-5
17332.031250; 9.01731E-5
17337.890625; 1.01388E-4
17343.750000; 1.10183E-4
17349.609375; 9.72476E-5
17355.468750; 9.67085E-5
17361.328125; 1.17769E-4
17367.187500; 1.17272E-4
17373.046875; 1.15872E-4
17378.906250; 1.12677E-4
17384.765625; 9.60451E-5
17390.625000; 1.09240E-4
17396.484375; 1.03610E-4
17402.343750; 9.30752E-5
17408.203125; 9.80937E-5
17414.062500; 9.69650E-5
17419.921875; 9.63033E-5
17425.781250; 9.96555E-5
17431.640625; 9.66070E-5
17437.500000; 9.99733E-5
17443.359375; 1.09535E-4
17449.218750; 9.97743E-5
17455.078125; 9.59010E-5
17460.937500; 1.00659E-4
17466.796875; 9.89177E-5
17472.656250; 9.28325E-5
17478.515625; 9.48476E-5
17484.375000; 9.97680E-5
17490.234375; 9.79186E-5
17496.093750; 9.68105E-5
17501.953125; 9.48476E-5
17507.812500; 1.00882E-4
17513.671875; 9.52097E-5
17519.531250; 9.17546E-5
17525.390625; 1.08465E-4
17531.250000; 1.07919E-4
17537.109375; 1.10815E-4
17542.968750; 1.00134E-4
17548.828125; 9.90916E-5
17554.687500; 1.03826E-4
17560.546875; 1.00697E-4
17566.406250; 1.05293E-4
17572.265625; 1.07685E-4
17578.125000; 9.80148E-5
17583.984375; 1.02491E-4
17589.843750; 1.05677E-4
17595.703125; 9.97596E-5
17601.562500; 1.02676E-4
17607.421875; 1.00772E-4
17613.281250; 1.05038E-4
17619.140625; 1.22716E-4
17625.000000; 1.12668E-4
17630.859375; 9.26786E-5
17636.718750; 9.79919E-5
17642.578125; 1.12466E-4
17648.437500; 1.08205E-4
17654.296875; 9.06452E-5
17660.156250; 1.05831E-4
17666.015625; 1.08100E-4
17671.875000; 1.01088E-4
17677.734375; 9.19606E-5
17683.593750; 8.77009E-5
17689.453125; 9.68344E-5
17695.312500; 1.00469E-4
17701.171875; 1.01312E-4
17707.031250; 9.90547E-5
17712.890625; 1.06201E-4
17718.750000; 9.96895E-5
17724.609375; 9.41119E-5
17730.468750; 9.43196E-5
17736.328125; 9.99315E-5
17742.187500; 9.75875E-5
17748.046875; 9.06501E-5
17753.906250; 8.95927E-5
17759.765625; 9.29091E-5
17765.625000; 9.05051E-5
17771.484375; 9.91404E-5
17777.343750; 1.05645E-4
17783.203125; 1.07109E-4
17789.062500; 1.01397E-4
17794.921875; 9.33770E-5
17800.781250; 9.86692E-5
17806.640625; 9.64846E-5
17812.500000; 9.52753E-5
17818.359375; 9.64563E-5
17824.218750; 9.86725E-5
17830.078125; 1.19733E-4
17835.937500; 1.15179E-4
17841.796875; 8.32031E-5
17847.656250; 8.87238E-5
17853.515625; 1.06753E-4
17859.375000; 1.07639E-4
17865.234375; 1.03359E-4
17871.093750; 9.04730E-5
17876.953125; 9.46262E-5
17882.812500; 8.55580E-5
17888.671875; 9.21132E-5
17894.531250; 9.39156E-5
17900.390625; 9.61208E-5
17906.250000; 1.07564E-4
17912.109375; 1.00651E-4
17917.968750; 9.72758E-5
17923.828125; 1.07530E-4
17929.687500; 1.14043E-4
17935.546875; 1.02477E-4
17941.406250; 1.00005E-4
17947.265625; 1.01564E-4
17953.125000; 8.57706E-5
17958.984375; 1.02092E-4
17964.843750; 1.12882E-4
17970.703125; 9.71742E-5
17976.562500; 8.51074E-5
17982.421875; 9.36021E-5
17988.281250; 9.05173E-5
17994.140625; 1.05747E-4
18000.000000; 1.00945E-4
18005.859375; 9.14125E-5
18011.718750; 9.90961E-5
18017.578125; 9.53503E-5
18023.437500; 9.93574E-5
18029.296875; 1.04455E-4
18035.156250; 1.02105E-4
18041.015625; 1.05207E-4
18046.875000; 9.75984E-5
18052.734375; 1.01067E-4
18058.593750; 1.17997E-4
18064.453125; 1.01364E-4
18070.312500; 9.82329E-5
18076.171875; 9.96782E-5
18082.031250; 1.05111E-4
18087.890625; 1.08204E-4
18093.750000; 1.07608E-4
18099.609375; 1.05775E-4
18105.468750; 9.44919E-5
18111.328125; 1.01368E-4
18117.187500; 9.72783E-5
18123.046875; 9.17408E-5
18128.906250; 9.52862E-5
18134.765625; 9.76529E-5
18140.625000; 8.82165E-5
18146.484375; 8.71133E-5
18152.343750; 1.00903E-4
18158.203125; 1.03258E-4
18164.062500; 9.32045E-5
18169.921875; 9.38187E-5
18175.781250; 8.37695E-5
18181.640625; 9.34176E-5
18187.500000; 9.74399E-5
18193.359375; 1.03066E-4
18199.218750; 9.86549E-5
18205.078125; 8.96781E-5
18210.937500; 8.56655E-5
18216.796875; 8.70182E-5
18222.656250; 9.08584E-5
18228.515625; 1.01570E-4
18234.375000; 1.02017E-4
18240.234375; 8.78113E-5
18246.093750; 1.12640E-4
18251.953125; 1.17660E-4
18257.812500; 1.08357E-4
18263.671875; 1.15645E-4
18269.531250; 1.02058E-4
18275.390625; 9.97720E-5
18281.250000; 9.39001E-5
18287.109375; 1.05537E-4
18292.968750; 1.07635E-4
18298.828125; 9.25651E-5
18304.687500; 1.00069E-4
18310.546875; 1.07973E-4
18316.406250; 1.03009E-4
18322.265625; 9.64107E-5
18328.125000; 1.05300E-4
18333.984375; 1.07020E-4
18339.843750; 9.05841E-5
18345.703125; 9.42559E-5
18351.562500; 1.02619E-4
18357.421875; 9.18836E-5
18363.281250; 8.76660E-5
18369.140625; 1.03077E-4
18375.000000; 1.08981E-4
18380.859375; 1.05703E-4
18386.718750; 9.84392E-5
18392.578125; 9.71896E-5
18398.437500; 9.86044E-5
18404.296875; 1.01187E-4
18410.156250; 9.75646E-5
18416.015625; 9.42813E-5
18421.875000; 1.05862E-4
18427.734375; 9.10327E-5
18433.593750; 8.29912E-5
18439.453125; 1.06133E-4
18445.312500; 1.14186E-4
18451.171875; 1.03370E-4
18457.031250; 1.06227E-4
18462.890625; 9.73459E-5
18468.750000; 9.02800E-5
18474.609375; 9.57697E-5
18480.468750; 1.03765E-4
18486.328125; 1.03728E-4
18492.187500; 9.77337E-5
18498.046875; 9.26812E-5
18503.906250; 9.12355E-5
18509.765625; 8.43686E-5
18515.625000; 8.68795E-5
18521.484375; 9.36653E-5
18527.343750; 9.90240E-5
18533.203125; 1.01536E-4
18539.062500; 1.04848E-4
18544.921875; 1.06734E-4
18550.781250; 9.38886E-5
18556.640625; 9.70731E-5
18562.500000; 1.06377E-4
18568.359375; 9.99969E-5
18574.218750; 9.99138E-5
18580.078125; 1.06872E-4
18585.937500; 1.08528E-4
18591.796875; 1.05457E-4
18597.656250; 1.02856E-4
18603.515625; 1.02408E-4
18609.375000; 8.76115E-5
18615.234375; 1.02811E-4
18621.093750; 1.00952E-4
18626.953125; 7.91569E-5
18632.812500; 8.20228E-5
18638.671875; 8.94359E-5
18644.531250; 9.49734E-5
18650.390625; 8.11522E-5
18656.250000; 8.39657E-5
18662.109375; 8.72452E-5
18667.968750; 1.01237E-4
18673.828125; 9.90182E-5
18679.687500; 9.50678E-5
18685.546875; 8.14714E-5
18691.406250; 9.46271E-5
18697.265625; 9.96137E-5
18703.125000; 1.01574E-4
18708.984375; 1.02517E-4
18714.843750; 9.32599E-5
18720.703125; 1.01996E-4
18726.562500; 9.12527E-5
18732.421875; 1.01944E-4
18738.281250; 1.01065E-4
18744.140625; 8.78788E-5
18750.000000; 8.74108E-5
18755.859375; 9.87019E-5
18761.718750; 1.09989E-4
18767.578125; 1.04169E-4
18773.437500; 9.98934E-5
18779.296875; 1.00581E-4
18785.156250; 9.62113E-5
18791.015625; 1.05184E-4
18796.875000; 1.05609E-4
18802.734375; 1.11054E-4
18808.593750; 8.89145E-5
18814.453125; 7.89935E-5
18820.312500; 9.18900E-5
18826.171875; 9.11080E-5
18832.031250; 8.73669E-5
18837.890625; 9.44368E-5
18843.750000; 1.04720E-4
18849.609375; 1.03847E-4
18855.468750; 1.03205E-4
18861.328125; 9.49617E-5
18867.187500; 9.48783E-5
18873.046875; 8.46874E-5
18878.906250; 9.77708E-5
18884.765625; 8.80921E-5
18890.625000; 9.14322E-5
18896.484375; 9.85632E-5
18902.343750; 9.46541E-5
18908.203125; 9.37715E-5
18914.062500; 9.38887E-5
18919.921875; 9.58444E-5
18925.781250; 9.73607E-5
18931.640625; 9.83923E-5
18937.500000; 9.49861E-5
18943.359375; 9.53686E-5
18949.218750; 8.54583E-5
18955.078125; 8.28083E-5
18960.937500; 9.00613E-5
18966.796875; 9.35596E-5
18972.656250; 9.01045E-5
18978.515625; 9.78181E-5
18984.375000; 1.04215E-4
18990.234375; 1.06395E-4
18996.093750; 1.03851E-4
19001.953125; 9.65671E-5
19007.812500; 1.02158E-4
19013.671875; 1.09391E-4
19019.531250; 1.12677E-4
19025.390625; 1.11597E-4
19031.250000; 1.05917E-4
19037.109375; 9.68197E-5
19042.968750; 1.06981E-4
19048.828125; 1.09392E-4
19054.687500; 9.74199E-5
19060.546875; 9.67883E-5
19066.406250; 1.10019E-4
19072.265625; 1.08462E-4
19078.125000; 9.87619E-5
19083.984375; 9.80156E-5
19089.843750; 1.04376E-4
19095.703125; 1.00353E-4
19101.562500; 9.28342E-5
19107.421875; 8.83379E-5
19113.281250; 8.92616E-5
19119.140625; 9.71601E-5
19125.000000; 1.08344E-4
19130.859375; 1.01738E-4
19136.718750; 1.06283E-4
19142.578125; 1.07846E-4
19148.437500; 9.45453E-5
19154.296875; 9.34277E-5
19160.156250; 1.01557E-4
19166.015625; 9.37963E-5
19171.875000; 9.93247E-5
19177.734375; 1.00064E-4
19183.593750; 1.05030E-4
19189.453125; 9.15094E-5
19195.312500; 9.66822E-5
19201.171875; 1.04961E-4
19207.031250; 1.02215E-4
19212.890625; 9.27030E-5
19218.750000; 9.08433E-5
19224.609375; 9.34583E-5
19230.468750; 9.85061E-5
19236.328125; 9.55249E-5
19242.187500; 1.14603E-4
19248.046875; 1.07480E-4
19253.906250; 1.04243E-4
19259.765625; 1.05596E-4
19265.625000; 9.50186E-5
19271.484375; 8.21427E-5
19277.343750; 9.96464E-5
19283.203125; 9.72879E-5
19289.062500; 8.87816E-5
19294.921875; 8.99670E-5
19300.781250; 9.43063E-5
19306.640625; 8.98253E-5
19312.500000; 9.58825E-5
19318.359375; 1.02885E-4
19324.218750; 9.24206E-5
19330.078125; 1.00846E-4
19335.937500; 1.00478E-4
19341.796875; 9.73709E-5
19347.656250; 9.63926E-5
19353.515625; 9.54711E-5
19359.375000; 8.66524E-5
19365.234375; 8.16337E-5
19371.093750; 9.66678E-5
19376.953125; 1.04215E-4
19382.812500; 9.53575E-5
19388.671875; 9.07447E-5
19394.531250; 9.83890E-5
19400.390625; 8.93192E-5
19406.250000; 8.77748E-5
19412.109375; 1.01890E-4
19417.968750; 9.73826E-5
19423.828125; 9.76918E-5
19429.687500; 1.00592E-4
19435.546875; 1.04626E-4
19441.406250; 8.96082E-5
19447.265625; 8.43466E-5
19453.125000; 9.50035E-5
19458.984375; 9.18979E-5
19464.843750; 9.56453E-5
19470.703125; 9.47501E-5
19476.562500; 9.57587E-5
19482.421875; 1.00404E-4
19488.281250; 1.06222E-4
19494.140625; 1.09424E-4
19500.000000; 1.06434E-4
19505.859375; 1.01309E-4
19511.718750; 1.06692E-4
19517.578125; 1.07353E-4
19523.437500; 9.93165E-5
19529.296875; 9.54011E-5
19535.156250; 8.79305E-5
19541.015625; 9.99681E-5
19546.875000; 9.52187E-5
19552.734375; 9.06881E-5
19558.593750; 9.78052E-5
19564.453125; 9.55717E-5
19570.312500; 9.69867E-5
19576.171875; 9.28272E-5
19582.031250; 8.83377E-5
19587.890625; 1.02312E-4
19593.750000; 9.46605E-5
19599.609375; 1.10563E-4
19605.468750; 1.07609E-4
19611.328125; 9.62204E-5
19617.187500; 1.03141E-4
19623.046875; 1.03879E-4
19628.906250; 1.04032E-4
19634.765625; 9.08089E-5
19640.625000; 9.36552E-5
19646.484375; 9.73621E-5
19652.343750; 9.23847E-5
19658.203125; 9.80371E-5
19664.062500; 9.10134E-5
19669.921875; 8.32072E-5
19675.781250; 8.97869E-5
19681.640625; 1.02138E-4
19687.500000; 9.35424E-5
19693.359375; 8.73348E-5
19699.218750; 9.29660E-5
19705.078125; 9.77598E-5
19710.937500; 1.02897E-4
19716.796875; 8.87617E-5
19722.656250; 9.25149E-5
19728.515625; 9.39549E-5
19734.375000; 9.99600E-5
19740.234375; 9.31459E-5
19746.093750; 8.03774E-5
19751.953125; 8.78929E-5
19757.812500; 9.85814E-5
19763.671875; 1.02023E-4
19769.531250; 9.27518E-5
19775.390625; 9.71230E-5
19781.250000; 1.01255E-4
19787.109375; 1.02990E-4
19792.968750; 9.86232E-5
19798.828125; 9.96545E-5
19804.687500; 9.80383E-5
19810.546875; 1.01477E-4
19816.406250; 9.31341E-5
19822.265625; 1.01336E-4
19828.125000; 9.64741E-5
19833.984375; 9.94375E-5
19839.843750; 9.38454E-5
19845.703125; 9.59519E-5
19851.562500; 1.04226E-4
19857.421875; 1.01821E-4
19863.281250; 9.11991E-5
19869.140625; 1.01735E-4
19875.000000; 9.61224E-5
19880.859375; 1.04061E-4
19886.718750; 1.01595E-4
19892.578125; 9.92701E-5
19898.437500; 9.58166E-5
19904.296875; 1.02541E-4
19910.156250; 1.05976E-4
19916.015625; 9.31745E-5
19921.875000; 9.90055E-5
19927.734375; 1.02741E-4
19933.593750; 9.22054E-5
19939.453125; 9.27118E-5
19945.312500; 9.60195E-5
19951.171875; 9.59728E-5
19957.031250; 8.91610E-5
19962.890625; 8.85965E-5
19968.750000; 9.31750E-5
19974.609375; 9.08333E-5
19980.468750; 9.35293E-5
19986.328125; 1.02619E-4
19992.187500; 1.02391E-4
19998.046875; 1.02151E-4
20003.906250; 9.43880E-5
20009.765625; 8.74224E-5
20015.625000; 1.06152E-4
20021.484375; 1.06964E-4
20027.343750; 1.02509E-4
20033.203125; 9.96122E-5
20039.062500; 9.56400E-5
20044.921875; 9.53140E-5
20050.781250; 9.68261E-5
20056.640625; 9.44805E-5
20062.500000; 1.01198E-4
20068.359375; 9.79071E-5
20074.218750; 9.45464E-5
20080.078125; 1.05658E-4
20085.937500; 9.66443E-5
20091.796875; 9.78172E-5
20097.656250; 1.07652E-4
20103.515625; 9.90411E-5
20109.375000; 9.70839E-5
20115.234375; 8.64577E-5
20121.093750; 8.84300E-5
20126.953125; 9.02241E-5
20132.812500; 9.87025E-5
20138.671875; 8.85760E-5
20144.531250; 8.93932E-5
20150.390625; 9.48358E-5
20156.250000; 9.05403E-5
20162.109375; 8.88398E-5
20167.968750; 9.43585E-5
20173.828125; 9.84055E-5
20179.687500; 9.50024E-5
20185.546875; 9.05430E-5
20191.406250; 9.88895E-5
20197.265625; 9.74170E-5
20203.125000; 9.40646E-5
20208.984375; 8.56356E-5
20214.843750; 8.65955E-5
20220.703125; 9.78173E-5
20226.562500; 1.12883E-4
20232.421875; 1.10238E-4
20238.281250; 9.68246E-5
20244.140625; 9.83895E-5
20250.000000; 9.15167E-5
20255.859375; 8.09123E-5
20261.718750; 8.39794E-5
20267.578125; 9.15487E-5
20273.437500; 9.22838E-5
20279.296875; 9.79524E-5
20285.156250; 1.06817E-4
20291.015625; 1.05855E-4
20296.875000; 9.37321E-5
20302.734375; 8.96321E-5
20308.593750; 9.15536E-5
20314.453125; 9.43266E-5
20320.312500; 8.35087E-5
20326.171875; 7.59744E-5
20332.031250; 9.65418E-5
20337.890625; 9.72239E-5
20343.750000; 9.83667E-5
20349.609375; 9.30096E-5
20355.468750; 9.75478E-5
20361.328125; 9.86388E-5
20367.187500; 9.32681E-5
20373.046875; 8.88428E-5
20378.906250; 8.16239E-5
20384.765625; 8.31014E-5
20390.625000; 9.75476E-5
20396.484375; 9.45034E-5
20402.343750; 1.01869E-4
20408.203125; 8.72250E-5
20414.062500; 8.38708E-5
20419.921875; 8.26549E-5
20425.781250; 9.30543E-5
20431.640625; 1.01049E-4
20437.500000; 1.00770E-4
20443.359375; 1.02240E-4
20449.218750; 1.05665E-4
20455.078125; 9.33591E-5
20460.937500; 9.24154E-5
20466.796875; 8.81723E-5
20472.656250; 9.75664E-5
20478.515625; 1.16668E-4
20484.375000; 9.85634E-5
20490.234375; 9.82263E-5
20496.093750; 1.03305E-4
20501.953125; 1.09006E-4
20507.812500; 1.08295E-4
20513.671875; 9.96759E-5
20519.531250; 9.15474E-5
20525.390625; 9.17237E-5
20531.250000; 9.98518E-5
20537.109375; 9.87545E-5
20542.968750; 9.77279E-5
20548.828125; 9.11631E-5
20554.687500; 9.48801E-5
20560.546875; 1.07531E-4
20566.406250; 1.06319E-4
20572.265625; 9.53429E-5
20578.125000; 9.32114E-5
20583.984375; 9.80236E-5
20589.843750; 9.47135E-5
20595.703125; 9.18395E-5
20601.562500; 9.26022E-5
20607.421875; 9.71687E-5
20613.281250; 9.48000E-5
20619.140625; 8.73262E-5
20625.000000; 9.79214E-5
20630.859375; 9.39883E-5
20636.718750; 9.98692E-5
20642.578125; 8.99372E-5
20648.437500; 9.95359E-5
20654.296875; 9.81143E-5
20660.156250; 1.03545E-4
20666.015625; 1.01902E-4
20671.875000; 1.05294E-4
20677.734375; 9.74616E-5
20683.593750; 9.67369E-5
20689.453125; 8.99566E-5
20695.312500; 8.69976E-5
20701.171875; 1.05431E-4
20707.031250; 9.12474E-5
20712.890625; 7.94120E-5
20718.750000; 8.12219E-5
20724.609375; 9.66981E-5
20730.468750; 9.69832E-5
20736.328125; 9.51245E-5
20742.187500; 9.90435E-5
20748.046875; 9.75252E-5
20753.906250; 1.05357E-4
20759.765625; 1.02971E-4
20765.625000; 9.87599E-5
20771.484375; 9.16682E-5
20777.343750; 9.32893E-5
20783.203125; 8.42011E-5
20789.062500; 9.81423E-5
20794.921875; 9.20924E-5
20800.781250; 8.67742E-5
20806.640625; 1.05253E-4
20812.500000; 9.85880E-5
20818.359375; 9.71849E-5
20824.218750; 1.00201E-4
20830.078125; 8.78101E-5
20835.937500; 8.79524E-5
20841.796875; 9.47727E-5
20847.656250; 1.05323E-4
20853.515625; 1.02080E-4
20859.375000; 1.01279E-4
20865.234375; 8.68162E-5
20871.093750; 1.04958E-4
20876.953125; 9.78484E-5
20882.812500; 8.31969E-5
20888.671875; 9.28823E-5
20894.531250; 9.88834E-5
20900.390625; 9.61435E-5
20906.250000; 8.57499E-5
20912.109375; 8.75654E-5
20917.968750; 9.47742E-5
20923.828125; 9.70126E-5
20929.687500; 9.06255E-5
20935.546875; 9.06714E-5
20941.406250; 9.59492E-5
20947.265625; 9.02615E-5
20953.125000; 8.14947E-5
20958.984375; 8.21722E-5
20964.843750; 9.13863E-5
20970.703125; 9.59380E-5
20976.562500; 9.68360E-5
20982.421875; 9.47276E-5
20988.281250; 9.02569E-5
20994.140625; 8.43732E-5
21000.000000; 8.64595E-5
21005.859375; 9.19548E-5
21011.718750; 9.58546E-5
21017.578125; 9.87623E-5
21023.437500; 1.02400E-4
21029.296875; 1.00187E-4
21035.156250; 1.01334E-4
21041.015625; 1.04618E-4
21046.875000; 9.78944E-5
21052.734375; 8.85397E-5
21058.593750; 8.25734E-5
21064.453125; 9.13261E-5
21070.312500; 8.93483E-5
21076.171875; 9.06358E-5
21082.031250; 8.97996E-5
21087.890625; 1.02987E-4
21093.750000; 1.04986E-4
21099.609375; 1.05984E-4
21105.468750; 1.03773E-4
21111.328125; 9.70272E-5
21117.187500; 9.25438E-5
21123.046875; 1.02601E-4
21128.906250; 1.04730E-4
21134.765625; 1.04565E-4
21140.625000; 1.01522E-4
21146.484375; 1.02647E-4
21152.343750; 9.66680E-5
21158.203125; 8.72033E-5
21164.062500; 9.01753E-5
21169.921875; 9.97621E-5
21175.781250; 1.02789E-4
21181.640625; 9.71770E-5
21187.500000; 8.62501E-5
21193.359375; 9.21584E-5
21199.218750; 1.02594E-4
21205.078125; 1.00314E-4
21210.937500; 9.06252E-5
21216.796875; 8.50774E-5
21222.656250; 9.64208E-5
21228.515625; 9.13730E-5
21234.375000; 9.15174E-5
21240.234375; 1.06854E-4
21246.093750; 9.99486E-5
21251.953125; 9.73758E-5
21257.812500; 9.35281E-5
21263.671875; 9.87848E-5
21269.531250; 1.05209E-4
21275.390625; 1.13582E-4
21281.250000; 1.07496E-4
21287.109375; 9.72668E-5
21292.968750; 9.81270E-5
21298.828125; 1.06428E-4
21304.687500; 1.01500E-4
21310.546875; 9.70754E-5
21316.406250; 9.91185E-5
21322.265625; 9.06425E-5
21328.125000; 8.73767E-5
21333.984375; 8.60941E-5
21339.843750; 9.34739E-5
21345.703125; 9.58090E-5
21351.562500; 9.83923E-5
21357.421875; 1.10808E-4
21363.281250; 1.02831E-4
21369.140625; 9.55767E-5
21375.000000; 9.20081E-5
21380.859375; 9.49436E-5
21386.718750; 1.00400E-4
21392.578125; 9.55269E-5
21398.437500; 1.00129E-4
21404.296875; 9.03847E-5
21410.156250; 9.11423E-5
21416.015625; 8.19516E-5
21421.875000; 7.76046E-5
21427.734375; 8.69935E-5
21433.593750; 8.64126E-5
21439.453125; 7.97389E-5
21445.312500; 8.77605E-5
21451.171875; 1.00149E-4
21457.031250; 9.63702E-5
21462.890625; 9.55675E-5
21468.750000; 9.14141E-5
21474.609375; 8.05048E-5
21480.468750; 8.57989E-5
21486.328125; 8.39752E-5
21492.187500; 8.70789E-5
21498.046875; 9.12588E-5
21503.906250; 1.02731E-4
21509.765625; 9.37289E-5
21515.625000; 9.85297E-5
21521.484375; 9.23650E-5
21527.343750; 9.71905E-5
21533.203125; 1.04954E-4
21539.062500; 9.59092E-5
21544.921875; 8.92327E-5
21550.781250; 8.04045E-5
21556.640625; 9.78920E-5
21562.500000; 1.10609E-4
21568.359375; 9.90867E-5
21574.218750; 1.02761E-4
21580.078125; 1.00276E-4
21585.937500; 9.46906E-5
21591.796875; 8.99432E-5
21597.656250; 9.18315E-5
21603.515625; 8.56441E-5
21609.375000; 9.30253E-5
21615.234375; 9.41610E-5
21621.093750; 8.85365E-5
21626.953125; 1.02141E-4
21632.812500; 1.02185E-4
21638.671875; 1.03842E-4
21644.531250; 1.02286E-4
21650.390625; 9.31969E-5
21656.250000; 9.35074E-5
21662.109375; 9.95725E-5
21667.968750; 9.56176E-5
21673.828125; 9.68965E-5
21679.687500; 1.00298E-4
21685.546875; 9.49697E-5
21691.406250; 8.23690E-5
21697.265625; 9.55172E-5
21703.125000; 9.84945E-5
21708.984375; 9.49940E-5
21714.843750; 1.01594E-4
21720.703125; 1.00061E-4
21726.562500; 1.01541E-4
21732.421875; 9.06659E-5
21738.281250; 9.33300E-5
21744.140625; 9.30488E-5
21750.000000; 9.22913E-5
21755.859375; 9.74094E-5
21761.718750; 9.70957E-5
21767.578125; 1.02244E-4
21773.437500; 9.99710E-5
21779.296875; 9.31740E-5
21785.156250; 8.70033E-5
21791.015625; 1.07633E-4
21796.875000; 9.91567E-5
21802.734375; 9.59816E-5
21808.593750; 9.75061E-5
21814.453125; 1.16343E-4
21820.312500; 9.74190E-5
21826.171875; 8.99936E-5
21832.031250; 9.73183E-5
21837.890625; 1.02613E-4
21843.750000; 9.94973E-5
21849.609375; 9.00476E-5
21855.468750; 9.31333E-5
21861.328125; 8.75357E-5
21867.187500; 9.96105E-5
21873.046875; 9.30634E-5
21878.906250; 9.43641E-5
21884.765625; 8.86288E-5
21890.625000; 8.97648E-5
21896.484375; 9.44637E-5
21902.343750; 9.37348E-5
21908.203125; 9.24198E-5
21914.062500; 9.23729E-5
21919.921875; 9.31705E-5
21925.781250; 9.32378E-5
21931.640625; 9.55216E-5
21937.500000; 1.07026E-4
21943.359375; 1.01990E-4
21949.218750; 9.34281E-5
21955.078125; 9.45486E-5
21960.937500; 8.81583E-5
21966.796875; 1.02525E-4
21972.656250; 1.06449E-4
21978.515625; 9.70656E-5
21984.375000; 9.58173E-5
21990.234375; 9.29335E-5
21996.093750; 9.55738E-5
22001.953125; 9.99359E-5
22007.812500; 9.80641E-5
22013.671875; 1.01667E-4
22019.531250; 9.65904E-5
22025.390625; 8.98867E-5
22031.250000; 9.29882E-5
22037.109375; 1.01097E-4
22042.968750; 1.02254E-4
22048.828125; 8.74943E-5
22054.687500; 9.22504E-5
22060.546875; 9.08361E-5
22066.406250; 9.38172E-5
22072.265625; 9.46514E-5
22078.125000; 9.24852E-5
22083.984375; 9.90110E-5
22089.843750; 9.46145E-5
22095.703125; 9.10046E-5
22101.562500; 9.99120E-5
22107.421875; 9.56915E-5
22113.281250; 9.70461E-5
22119.140625; 9.57115E-5
22125.000000; 9.37352E-5
22130.859375; 9.57979E-5
22136.718750; 9.39379E-5
22142.578125; 9.18441E-5
22148.437500; 9.58160E-5
22154.296875; 7.98857E-5
22160.156250; 7.87383E-5
22166.015625; 9.37506E-5
22171.875000; 8.55972E-5
22177.734375; 9.67709E-5
22183.593750; 1.01155E-4
22189.453125; 9.85021E-5
22195.312500; 9.83429E-5
22201.171875; 9.16563E-5
22207.031250; 8.90330E-5
22212.890625; 9.84035E-5
22218.750000; 9.82098E-5
22224.609375; 1.01404E-4
22230.468750; 1.02756E-4
22236.328125; 1.04697E-4
22242.187500; 9.32374E-5
22248.046875; 8.96545E-5
22253.906250; 8.84253E-5
22259.765625; 8.89401E-5
22265.625000; 9.07614E-5
22271.484375; 8.86000E-5
22277.343750; 9.51453E-5
22283.203125; 9.95811E-5
22289.062500; 9.19842E-5
22294.921875; 9.28619E-5
22300.781250; 9.54032E-5
22306.640625; 8.94354E-5
22312.500000; 8.30636E-5
22318.359375; 9.03597E-5
22324.218750; 9.28865E-5
22330.078125; 9.98219E-5
22335.937500; 1.00295E-4
22341.796875; 1.02183E-4
22347.656250; 1.06097E-4
22353.515625; 9.43091E-5
22359.375000; 8.45294E-5
22365.234375; 8.92340E-5
22371.093750; 8.51521E-5
22376.953125; 9.05344E-5
22382.812500; 9.46212E-5
22388.671875; 8.93011E-5
22394.531250; 8.39397E-5
22400.390625; 8.64414E-5
22406.250000; 9.99311E-5
22412.109375; 9.83519E-5
22417.968750; 9.22466E-5
22423.828125; 8.99398E-5
22429.687500; 8.02242E-5
22435.546875; 8.19675E-5
22441.406250; 8.75525E-5
22447.265625; 9.00500E-5
22453.125000; 8.55055E-5
22458.984375; 9.08076E-5
22464.843750; 9.25630E-5
22470.703125; 9.05535E-5
22476.562500; 8.65125E-5
22482.421875; 8.28455E-5
22488.281250; 8.40085E-5
22494.140625; 8.57126E-5
22500.000000; 9.01686E-5
22505.859375; 9.06003E-5
22511.718750; 8.42775E-5
22517.578125; 8.79587E-5
22523.437500; 8.37499E-5
22529.296875; 8.48411E-5
22535.156250; 8.99199E-5
22541.015625; 9.25533E-5
22546.875000; 8.72657E-5
22552.734375; 8.90897E-5
22558.593750; 8.78342E-5
22564.453125; 8.31126E-5
22570.312500; 8.16584E-5
22576.171875; 8.24984E-5
22582.031250; 8.65986E-5
22587.890625; 8.04850E-5
22593.750000; 7.72489E-5
22599.609375; 7.65858E-5
22605.468750; 7.70714E-5
22611.328125; 8.48844E-5
22617.187500; 8.44957E-5
22623.046875; 7.98035E-5
22628.906250; 8.68517E-5
22634.765625; 8.81898E-5
22640.625000; 8.23104E-5
22646.484375; 7.90603E-5
22652.343750; 7.96844E-5
22658.203125; 8.46079E-5
22664.062500; 9.54643E-5
22669.921875; 8.85007E-5
22675.781250; 8.30859E-5
22681.640625; 8.08650E-5
22687.500000; 7.97323E-5
22693.359375; 7.33278E-5
22699.218750; 8.33674E-5
22705.078125; 8.96997E-5
22710.937500; 9.62155E-5
22716.796875; 9.70333E-5
22722.656250; 8.91653E-5
22728.515625; 7.71729E-5
22734.375000; 7.28950E-5
22740.234375; 8.11570E-5
22746.093750; 9.00315E-5
22751.953125; 9.43122E-5
22757.812500; 9.20108E-5
22763.671875; 7.62887E-5
22769.531250; 7.40773E-5
22775.390625; 7.72747E-5
22781.250000; 7.75607E-5
22787.109375; 7.64485E-5
22792.968750; 7.76756E-5
22798.828125; 8.07324E-5
22804.687500; 7.74477E-5
22810.546875; 7.60454E-5
22816.406250; 6.10593E-5
22822.265625; 6.66880E-5
22828.125000; 7.75744E-5
22833.984375; 7.41254E-5
22839.843750; 8.72308E-5
22845.703125; 8.18553E-5
22851.562500; 8.48266E-5
22857.421875; 6.79961E-5
22863.281250; 7.18324E-5
22869.140625; 7.73880E-5
22875.000000; 7.60757E-5
22880.859375; 7.70617E-5
22886.718750; 7.14087E-5
22892.578125; 7.46900E-5
22898.437500; 8.31532E-5
22904.296875; 7.32458E-5
22910.156250; 7.14936E-5
22916.015625; 8.12541E-5
22921.875000; 7.21278E-5
22927.734375; 7.74701E-5
22933.593750; 7.04807E-5
22939.453125; 6.78492E-5
22945.312500; 6.89761E-5
22951.171875; 6.71963E-5
22957.031250; 7.70752E-5
22962.890625; 8.30283E-5
22968.750000; 7.44166E-5
22974.609375; 6.91108E-5
22980.468750; 6.07833E-5
22986.328125; 7.16358E-5
22992.187500; 7.08195E-5
22998.046875; 6.50993E-5
23003.906250; 7.32153E-5
23009.765625; 7.57033E-5
23015.625000; 7.49959E-5
23021.484375; 7.31734E-5
23027.343750; 7.38079E-5
23033.203125; 7.00203E-5
23039.062500; 6.37717E-5
23044.921875; 6.73114E-5
23050.781250; 6.47706E-5
23056.640625; 7.06267E-5
23062.500000; 6.94093E-5
23068.359375; 7.13142E-5
23074.218750; 7.22000E-5
23080.078125; 6.64966E-5
23085.937500; 6.25480E-5
23091.796875; 6.76644E-5
23097.656250; 6.85716E-5
23103.515625; 6.52401E-5
23109.375000; 6.95900E-5
23115.234375; 6.93218E-5
23121.093750; 5.88591E-5
23126.953125; 5.83060E-5
23132.812500; 6.32617E-5
23138.671875; 5.92707E-5
23144.531250; 5.75344E-5
23150.390625; 6.22325E-5
23156.250000; 6.62034E-5
23162.109375; 6.52615E-5
23167.968750; 6.76490E-5
23173.828125; 6.97100E-5
23179.687500; 6.75404E-5
23185.546875; 6.06847E-5
23191.406250; 6.97504E-5
23197.265625; 7.22486E-5
23203.125000; 6.08607E-5
23208.984375; 6.00226E-5
23214.843750; 6.16260E-5
23220.703125; 5.68460E-5
23226.562500; 5.47513E-5
23232.421875; 6.37961E-5
23238.281250; 6.54749E-5
23244.140625; 5.91897E-5
23250.000000; 6.27282E-5
23255.859375; 6.37290E-5
23261.718750; 6.75798E-5
23267.578125; 6.06992E-5
23273.437500; 6.05753E-5
23279.296875; 6.22191E-5
23285.156250; 5.61699E-5
23291.015625; 5.77183E-5
23296.875000; 5.69630E-5
23302.734375; 5.88219E-5
23308.593750; 5.93612E-5
23314.453125; 5.96361E-5
23320.312500; 5.23796E-5
23326.171875; 4.91248E-5
23332.031250; 5.32045E-5
23337.890625; 5.54929E-5
23343.750000; 5.53990E-5
23349.609375; 5.36763E-5
23355.468750; 5.49136E-5
23361.328125; 5.49839E-5
23367.187500; 5.49361E-5
23373.046875; 5.55816E-5
23378.906250; 5.74323E-5
23384.765625; 5.42096E-5
23390.625000; 5.17606E-5
23396.484375; 5.55156E-5
23402.343750; 5.59853E-5
23408.203125; 5.13469E-5
23414.062500; 5.52458E-5
23419.921875; 5.44193E-5
23425.781250; 4.94435E-5
23431.640625; 4.68500E-5
23437.500000; 4.52583E-5
23443.359375; 4.92499E-5
23449.218750; 4.97128E-5
23455.078125; 4.48818E-5
23460.937500; 4.45563E-5
23466.796875; 4.27223E-5
23472.656250; 4.39084E-5
23478.515625; 4.46318E-5
23484.375000; 4.91040E-5
23490.234375; 4.85225E-5
23496.093750; 4.50218E-5
23501.953125; 4.44388E-5
23507.812500; 4.00712E-5
23513.671875; 4.27639E-5
23519.531250; 4.49000E-5
23525.390625; 4.34116E-5
23531.250000; 4.43935E-5
23537.109375; 4.58138E-5
23542.968750; 4.30488E-5
23548.828125; 4.36355E-5
23554.687500; 4.69549E-5
23560.546875; 4.13717E-5
23566.406250; 4.01716E-5
23572.265625; 4.41151E-5
23578.125000; 4.63676E-5
23583.984375; 4.58331E-5
23589.843750; 4.33350E-5
23595.703125; 4.14899E-5
23601.562500; 3.99244E-5
23607.421875; 4.02749E-5
23613.281250; 4.19905E-5
23619.140625; 4.04510E-5
23625.000000; 3.71809E-5
23630.859375; 3.57468E-5
23636.718750; 3.74465E-5
23642.578125; 3.82056E-5
23648.437500; 3.44449E-5
23654.296875; 4.13842E-5
23660.156250; 4.20713E-5
23666.015625; 4.06174E-5
23671.875000; 3.98556E-5
23677.734375; 4.32890E-5
23683.593750; 4.33025E-5
23689.453125; 4.06364E-5
23695.312500; 4.10084E-5
23701.171875; 4.05363E-5
23707.031250; 3.26611E-5
23712.890625; 3.00085E-5
23718.750000; 3.58120E-5
23724.609375; 4.06687E-5
23730.468750; 3.83892E-5
23736.328125; 3.44434E-5
23742.187500; 3.61874E-5
23748.046875; 3.82704E-5
23753.906250; 4.01515E-5
23759.765625; 3.92875E-5
23765.625000; 3.23524E-5
23771.484375; 3.25161E-5
23777.343750; 3.30312E-5
23783.203125; 3.32028E-5
23789.062500; 3.42872E-5
23794.921875; 3.35701E-5
23800.781250; 3.66203E-5
23806.640625; 3.64086E-5
23812.500000; 3.74334E-5
23818.359375; 3.88504E-5
23824.218750; 3.45076E-5
23830.078125; 2.96442E-5
23835.937500; 3.29448E-5
23841.796875; 3.36189E-5
23847.656250; 3.52119E-5
23853.515625; 3.31131E-5
23859.375000; 3.20272E-5
23865.234375; 3.52891E-5
23871.093750; 3.53393E-5
23876.953125; 3.70857E-5
23882.812500; 3.42340E-5
23888.671875; 3.01440E-5
23894.531250; 3.26660E-5
23900.390625; 3.41014E-5
23906.250000; 3.44259E-5
23912.109375; 3.25536E-5
23917.968750; 3.11100E-5
23923.828125; 3.13332E-5
23929.687500; 2.78109E-5
23935.546875; 2.90810E-5
23941.406250; 3.31973E-5
23947.265625; 3.32876E-5
23953.125000; 3.14005E-5
23958.984375; 3.40336E-5
23964.843750; 3.14063E-5
23970.703125; 3.52167E-5
23976.562500; 3.29352E-5
23982.421875; 3.20047E-5
23988.281250; 3.45002E-5
23994.140625; 3.15470E-5
