* Measurement data measured by REW V5.31.3
* Source: PCM: default, no input selected, 2, volume: no control
* Format: 8192-point spectrum using Hann window and exponential averaging 0.97 
* Dated: Mar 9, 2025 1:26:06 PM
* REW Settings:
*  C-weighting compensation: Off
*  Target level: 75.0 dB
* Note: OSDEHA MU-OUTPUT; 8192-point spectrum using Hann window and exponential averaging 0.97  Input RMS 56.23 V 56.23 VC, 56.23 VA 56.23 V 22 - 22k UNW 953.5 uV >22k Distortion at 1,000.0 Hz, -5.00 dBFS: Gain: 29.67 dB THD: 0.025 % based on 21 harmonics  [0..22800 Hz] HHD: 0.00070 %  [10 .. 22] N: 0.025 %  [0..22800 Hz] N+D: 16.46 mV A THD+N: 0.035 %  [0..22800 Hz] SNR: 72.0 dB ENOB: 12.5 bits 2nd harmonic 0.023 % 162 deg 3rd harmonic 0.0075 % -83 deg 4th harmonic 0.0043 % 120 deg 5th harmonic 0.0020 % -52 deg 6th harmonic 0.00079 % 134 deg 7th harmonic 0.00046 % -31 deg 8th harmonic 0.00023 % 147 deg 9th harmonic 0.00023 % -8 deg 
* Measurement: OSDEHA MU-OUT 56.2V
* Smoothing: None
* Frequency Step: 5.859375 Hz
* Start Frequency: 5.859375 Hz
*
* Freq(Hz); V(V)
5.859375; 1.58171E-4
11.718750; 2.25273E-4
17.578125; 2.25606E-4
23.437500; 1.66582E-4
29.296875; 1.57672E-4
35.156250; 1.67125E-4
41.015625; 1.73466E-4
46.875000; 3.37323E-4
52.734375; 3.46217E-4
58.593750; 1.62050E-4
64.453125; 1.29008E-4
70.312500; 1.31984E-4
76.171875; 1.34435E-4
82.031250; 1.44381E-4
87.890625; 2.19564E-4
93.750000; 5.75112E-3
99.609375; 1.29174E-2
105.468750; 7.21672E-3
111.328125; 2.41674E-4
117.187500; 1.43206E-4
123.046875; 1.41474E-4
128.906250; 1.57759E-4
134.765625; 1.59999E-4
140.625000; 1.60733E-4
146.484375; 1.63742E-4
152.343750; 1.48901E-4
158.203125; 1.33730E-4
164.062500; 1.40535E-4
169.921875; 1.57399E-4
175.781250; 1.58803E-4
181.640625; 1.54686E-4
187.500000; 1.50049E-4
193.359375; 5.41765E-4
199.218750; 1.36562E-3
205.078125; 8.68026E-4
210.937500; 1.36422E-4
216.796875; 1.30662E-4
222.656250; 1.43960E-4
228.515625; 1.28182E-4
234.375000; 1.30834E-4
240.234375; 1.43061E-4
246.093750; 1.29023E-4
251.953125; 1.32264E-4
257.812500; 1.28126E-4
263.671875; 1.40928E-4
269.531250; 1.28867E-4
275.390625; 1.20902E-4
281.250000; 1.27789E-4
287.109375; 1.21529E-4
292.968750; 1.73030E-4
298.828125; 3.24151E-4
304.687500; 2.36231E-4
310.546875; 1.19942E-4
316.406250; 1.19776E-4
322.265625; 1.20823E-4
328.125000; 1.11828E-4
333.984375; 1.19970E-4
339.843750; 1.28398E-4
345.703125; 1.42581E-4
351.562500; 1.32044E-4
357.421875; 1.00150E-4
363.281250; 1.17864E-4
369.140625; 1.37292E-4
375.000000; 1.46292E-4
380.859375; 1.39105E-4
386.718750; 1.26577E-4
392.578125; 1.45271E-4
398.437500; 2.78785E-4
404.296875; 2.09585E-4
410.156250; 1.21577E-4
416.015625; 1.28249E-4
421.875000; 1.18646E-4
427.734375; 1.14351E-4
433.593750; 1.21256E-4
439.453125; 1.37869E-4
445.312500; 1.14963E-4
451.171875; 1.29274E-4
457.031250; 1.21610E-4
462.890625; 1.39078E-4
468.750000; 1.37063E-4
474.609375; 1.32496E-4
480.468750; 1.42177E-4
486.328125; 1.18013E-4
492.187500; 1.36817E-4
498.046875; 1.31517E-4
503.906250; 1.26950E-4
509.765625; 1.30060E-4
515.625000; 1.38361E-4
521.484375; 1.16746E-4
527.343750; 1.16838E-4
533.203125; 1.15853E-4
539.062500; 1.34948E-4
544.921875; 1.28507E-4
550.781250; 1.28414E-4
556.640625; 1.32517E-4
562.500000; 1.22158E-4
568.359375; 1.27059E-4
574.218750; 1.33528E-4
580.078125; 1.29682E-4
585.937500; 1.18223E-4
591.796875; 1.21591E-4
597.656250; 1.49997E-4
603.515625; 1.44972E-4
609.375000; 1.34859E-4
615.234375; 1.32278E-4
621.093750; 1.26493E-4
626.953125; 1.38105E-4
632.812500; 1.36194E-4
638.671875; 1.41721E-4
644.531250; 1.56003E-4
650.390625; 1.47163E-4
656.250000; 1.39100E-4
662.109375; 1.46917E-4
667.968750; 1.39106E-4
673.828125; 1.56819E-4
679.687500; 1.46673E-4
685.546875; 1.61675E-4
691.406250; 1.52725E-4
697.265625; 1.54068E-4
703.125000; 1.79168E-4
708.984375; 1.73350E-4
714.843750; 1.73915E-4
720.703125; 1.86455E-4
726.562500; 1.82669E-4
732.421875; 2.10956E-4
738.281250; 2.18393E-4
744.140625; 2.12009E-4
750.000000; 2.13583E-4
755.859375; 2.65912E-4
761.718750; 2.30115E-4
767.578125; 2.80162E-4
773.437500; 2.92010E-4
779.296875; 3.12759E-4
785.156250; 3.14952E-4
791.015625; 3.70654E-4
796.875000; 3.84760E-4
802.734375; 4.48574E-4
808.593750; 4.31771E-4
814.453125; 5.33828E-4
820.312500; 5.19685E-4
826.171875; 6.34236E-4
832.031250; 6.40846E-4
837.890625; 7.57843E-4
843.750000; 8.32499E-4
849.609375; 8.98736E-4
855.468750; 1.07830E-3
861.328125; 1.14887E-3
867.187500; 1.34573E-3
873.046875; 1.53068E-3
878.906250; 1.75787E-3
884.765625; 2.04733E-3
890.625000; 2.41166E-3
896.484375; 2.80817E-3
902.343750; 3.35883E-3
908.203125; 4.05506E-3
914.062500; 4.93267E-3
919.921875; 6.12524E-3
925.781250; 7.65846E-3
931.640625; 9.83808E-3
937.500000; 1.28870E-2
943.359375; 1.73473E-2
949.218750; 2.41429E-2
955.078125; 3.49848E-2
960.937500; 5.35257E-2
966.796875; 8.79382E-2
972.656250; 1.59862E-1
978.515625; 3.39727E-1
984.375000; 9.51245E-1
990.234375; 5.23185E0
996.093750; 4.18547E1
1001.953125; 5.23183E1
1007.812500; 1.49481E1
1013.671875; 1.49480E0
1019.531250; 4.59929E-1
1025.390625; 2.01238E-1
1031.250000; 1.05900E-1
1037.109375; 6.25911E-2
1042.968750; 4.00483E-2
1048.828125; 2.71673E-2
1054.687500; 1.93097E-2
1060.546875; 1.41661E-2
1066.406250; 1.07433E-2
1072.265625; 8.31472E-3
1078.125000; 6.57745E-3
1083.984375; 5.28791E-3
1089.843750; 4.32190E-3
1095.703125; 3.58694E-3
1101.562500; 2.96576E-3
1107.421875; 2.54262E-3
1113.281250; 2.14852E-3
1119.140625; 1.84845E-3
1125.000000; 1.60607E-3
1130.859375; 1.41295E-3
1136.718750; 1.20234E-3
1142.578125; 1.10216E-3
1148.437500; 9.57995E-4
1154.296875; 8.69975E-4
1160.156250; 7.55977E-4
1166.015625; 6.96041E-4
1171.875000; 6.20025E-4
1177.734375; 5.61000E-4
1183.593750; 5.29549E-4
1189.453125; 4.55569E-4
1195.312500; 4.44499E-4
1201.171875; 4.00804E-4
1207.031250; 3.82948E-4
1212.890625; 3.24984E-4
1218.750000; 3.29992E-4
1224.609375; 2.99674E-4
1230.468750; 2.79047E-4
1236.328125; 2.64565E-4
1242.187500; 2.43554E-4
1248.046875; 2.40479E-4
1253.906250; 2.18520E-4
1259.765625; 2.12151E-4
1265.625000; 2.15677E-4
1271.484375; 1.85524E-4
1277.343750; 1.75342E-4
1283.203125; 1.89950E-4
1289.062500; 1.80225E-4
1294.921875; 1.52998E-4
1300.781250; 1.75762E-4
1306.640625; 1.52255E-4
1312.500000; 1.52371E-4
1318.359375; 1.39360E-4
1324.218750; 1.42407E-4
1330.078125; 1.49971E-4
1335.937500; 1.36254E-4
1341.796875; 1.30885E-4
1347.656250; 1.39859E-4
1353.515625; 1.43537E-4
1359.375000; 1.32205E-4
1365.234375; 1.39927E-4
1371.093750; 1.18262E-4
1376.953125; 1.17358E-4
1382.812500; 1.29167E-4
1388.671875; 1.18300E-4
1394.531250; 1.20069E-4
1400.390625; 1.16406E-4
1406.250000; 1.21668E-4
1412.109375; 1.26393E-4
1417.968750; 1.22409E-4
1423.828125; 1.34255E-4
1429.687500; 1.32508E-4
1435.546875; 1.26030E-4
1441.406250; 1.27786E-4
1447.265625; 1.27819E-4
1453.125000; 1.20748E-4
1458.984375; 1.14696E-4
1464.843750; 1.31262E-4
1470.703125; 1.21856E-4
1476.562500; 1.13605E-4
1482.421875; 1.25442E-4
1488.281250; 1.25666E-4
1494.140625; 1.05032E-4
1500.000000; 1.10500E-4
1505.859375; 1.19493E-4
1511.718750; 1.21515E-4
1517.578125; 1.08207E-4
1523.437500; 1.18641E-4
1529.296875; 1.01356E-4
1535.156250; 1.06343E-4
1541.015625; 1.18777E-4
1546.875000; 1.22469E-4
1552.734375; 1.20771E-4
1558.593750; 1.08830E-4
1564.453125; 1.13194E-4
1570.312500; 1.18474E-4
1576.171875; 1.12987E-4
1582.031250; 1.19694E-4
1587.890625; 1.24005E-4
1593.750000; 1.10358E-4
1599.609375; 1.18425E-4
1605.468750; 1.09806E-4
1611.328125; 1.16096E-4
1617.187500; 1.07783E-4
1623.046875; 1.11418E-4
1628.906250; 1.17251E-4
1634.765625; 1.23773E-4
1640.625000; 1.24578E-4
1646.484375; 1.19536E-4
1652.343750; 1.17642E-4
1658.203125; 1.19926E-4
1664.062500; 1.20550E-4
1669.921875; 1.21187E-4
1675.781250; 1.01514E-4
1681.640625; 1.00168E-4
1687.500000; 9.63904E-5
1693.359375; 1.04456E-4
1699.218750; 1.05514E-4
1705.078125; 1.18676E-4
1710.937500; 1.33123E-4
1716.796875; 1.21260E-4
1722.656250; 1.19037E-4
1728.515625; 1.11438E-4
1734.375000; 1.08896E-4
1740.234375; 1.17600E-4
1746.093750; 1.13581E-4
1751.953125; 1.06953E-4
1757.812500; 1.08933E-4
1763.671875; 1.04149E-4
1769.531250; 9.94929E-5
1775.390625; 1.04805E-4
1781.250000; 1.08398E-4
1787.109375; 1.04665E-4
1792.968750; 1.04968E-4
1798.828125; 1.09933E-4
1804.687500; 1.07375E-4
1810.546875; 1.04379E-4
1816.406250; 1.04399E-4
1822.265625; 1.02506E-4
1828.125000; 9.70306E-5
1833.984375; 1.17858E-4
1839.843750; 1.10050E-4
1845.703125; 1.08684E-4
1851.562500; 1.05994E-4
1857.421875; 1.05914E-4
1863.281250; 1.02337E-4
1869.140625; 1.10354E-4
1875.000000; 1.13716E-4
1880.859375; 1.00668E-4
1886.718750; 1.07220E-4
1892.578125; 1.07489E-4
1898.437500; 1.07635E-4
1904.296875; 1.00553E-4
1910.156250; 9.85323E-5
1916.015625; 1.03163E-4
1921.875000; 1.08063E-4
1927.734375; 1.15594E-4
1933.593750; 1.14084E-4
1939.453125; 1.10209E-4
1945.312500; 1.21764E-4
1951.171875; 1.14577E-4
1957.031250; 1.06528E-4
1962.890625; 1.24853E-4
1968.750000; 1.16269E-4
1974.609375; 1.06518E-4
1980.468750; 1.55025E-4
1986.328125; 3.59979E-4
1992.187500; 3.42483E-3
1998.046875; 1.19902E-2
2003.906250; 9.58505E-3
2009.765625; 1.19112E-3
2015.625000; 2.41315E-4
2021.484375; 1.40793E-4
2027.343750; 1.27743E-4
2033.203125; 1.30112E-4
2039.062500; 1.17171E-4
2044.921875; 1.14701E-4
2050.781250; 1.21227E-4
2056.640625; 1.14177E-4
2062.500000; 1.09941E-4
2068.359375; 1.11766E-4
2074.218750; 1.12120E-4
2080.078125; 1.07477E-4
2085.937500; 1.09235E-4
2091.796875; 1.05070E-4
2097.656250; 1.04157E-4
2103.515625; 1.06142E-4
2109.375000; 1.12889E-4
2115.234375; 1.07034E-4
2121.093750; 1.05937E-4
2126.953125; 9.21160E-5
2132.812500; 1.06760E-4
2138.671875; 1.07891E-4
2144.531250; 9.39683E-5
2150.390625; 9.48138E-5
2156.250000; 1.09989E-4
2162.109375; 1.22631E-4
2167.968750; 1.03790E-4
2173.828125; 9.77706E-5
2179.687500; 1.03565E-4
2185.546875; 1.14427E-4
2191.406250; 1.12489E-4
2197.265625; 9.93490E-5
2203.125000; 9.78021E-5
2208.984375; 9.99198E-5
2214.843750; 1.03009E-4
2220.703125; 1.10098E-4
2226.562500; 1.22317E-4
2232.421875; 1.20061E-4
2238.281250; 1.16083E-4
2244.140625; 1.04758E-4
2250.000000; 1.01194E-4
2255.859375; 1.12137E-4
2261.718750; 1.14485E-4
2267.578125; 1.14165E-4
2273.437500; 1.23296E-4
2279.296875; 1.11245E-4
2285.156250; 1.03578E-4
2291.015625; 1.01612E-4
2296.875000; 1.01549E-4
2302.734375; 9.52301E-5
2308.593750; 9.81146E-5
2314.453125; 1.02436E-4
2320.312500; 1.10117E-4
2326.171875; 9.95076E-5
2332.031250; 1.03434E-4
2337.890625; 1.16315E-4
2343.750000; 1.16710E-4
2349.609375; 1.03118E-4
2355.468750; 1.21590E-4
2361.328125; 1.17272E-4
2367.187500; 1.03172E-4
2373.046875; 1.05361E-4
2378.906250; 9.46355E-5
2384.765625; 1.07961E-4
2390.625000; 1.05577E-4
2396.484375; 1.03628E-4
2402.343750; 1.07054E-4
2408.203125; 1.04574E-4
2414.062500; 9.68364E-5
2419.921875; 1.03652E-4
2425.781250; 1.16514E-4
2431.640625; 1.09546E-4
2437.500000; 1.08234E-4
2443.359375; 1.04237E-4
2449.218750; 1.01331E-4
2455.078125; 1.12192E-4
2460.937500; 1.14024E-4
2466.796875; 9.94182E-5
2472.656250; 1.04476E-4
2478.515625; 1.08346E-4
2484.375000; 1.05250E-4
2490.234375; 1.15681E-4
2496.093750; 1.14140E-4
2501.953125; 1.01380E-4
2507.812500; 9.49495E-5
2513.671875; 1.12454E-4
2519.531250; 1.27161E-4
2525.390625; 1.23859E-4
2531.250000; 1.08966E-4
2537.109375; 1.01765E-4
2542.968750; 1.01685E-4
2548.828125; 1.02192E-4
2554.687500; 1.00505E-4
2560.546875; 9.76070E-5
2566.406250; 1.14134E-4
2572.265625; 1.11478E-4
2578.125000; 1.10963E-4
2583.984375; 1.09462E-4
2589.843750; 1.09623E-4
2595.703125; 1.04887E-4
2601.562500; 1.17651E-4
2607.421875; 1.18225E-4
2613.281250; 1.04366E-4
2619.140625; 1.22414E-4
2625.000000; 1.19992E-4
2630.859375; 1.16101E-4
2636.718750; 9.92197E-5
2642.578125; 1.05170E-4
2648.437500; 1.02609E-4
2654.296875; 1.12689E-4
2660.156250; 1.03284E-4
2666.015625; 9.85280E-5
2671.875000; 1.06233E-4
2677.734375; 1.05078E-4
2683.593750; 1.14068E-4
2689.453125; 1.24453E-4
2695.312500; 1.20991E-4
2701.171875; 1.15510E-4
2707.031250; 1.06023E-4
2712.890625; 1.14009E-4
2718.750000; 1.17012E-4
2724.609375; 1.10682E-4
2730.468750; 1.16230E-4
2736.328125; 1.05735E-4
2742.187500; 1.02974E-4
2748.046875; 1.12761E-4
2753.906250; 1.22040E-4
2759.765625; 1.21805E-4
2765.625000; 1.16693E-4
2771.484375; 1.16128E-4
2777.343750; 1.11767E-4
2783.203125; 1.18844E-4
2789.062500; 1.15364E-4
2794.921875; 1.04029E-4
2800.781250; 1.18006E-4
2806.640625; 1.25140E-4
2812.500000; 1.17732E-4
2818.359375; 1.13670E-4
2824.218750; 1.05117E-4
2830.078125; 1.07411E-4
2835.937500; 1.05420E-4
2841.796875; 9.93108E-5
2847.656250; 1.07877E-4
2853.515625; 1.01171E-4
2859.375000; 1.09469E-4
2865.234375; 1.11517E-4
2871.093750; 1.03122E-4
2876.953125; 1.12423E-4
2882.812500; 1.12912E-4
2888.671875; 1.08253E-4
2894.531250; 1.14359E-4
2900.390625; 1.18049E-4
2906.250000; 1.23862E-4
2912.109375; 1.21058E-4
2917.968750; 1.17908E-4
2923.828125; 1.18340E-4
2929.687500; 1.09531E-4
2935.546875; 1.10105E-4
2941.406250; 1.02136E-4
2947.265625; 1.11119E-4
2953.125000; 1.12869E-4
2958.984375; 1.12457E-4
2964.843750; 1.10441E-4
2970.703125; 1.08178E-4
2976.562500; 1.11806E-4
2982.421875; 1.15632E-4
2988.281250; 1.27522E-4
2994.140625; 2.11018E-3
3000.000000; 4.21290E-3
3005.859375; 2.09963E-3
3011.718750; 1.10108E-4
3017.578125; 1.00728E-4
3023.437500; 1.05642E-4
3029.296875; 1.21782E-4
3035.156250; 1.15664E-4
3041.015625; 1.10388E-4
3046.875000; 9.64985E-5
3052.734375; 1.04895E-4
3058.593750; 1.10325E-4
3064.453125; 1.03926E-4
3070.312500; 1.07865E-4
3076.171875; 1.11609E-4
3082.031250; 1.09643E-4
3087.890625; 1.16546E-4
3093.750000; 1.10333E-4
3099.609375; 1.02999E-4
3105.468750; 1.13874E-4
3111.328125; 1.08664E-4
3117.187500; 9.93392E-5
3123.046875; 9.63781E-5
3128.906250; 8.86124E-5
3134.765625; 1.12111E-4
3140.625000; 1.15512E-4
3146.484375; 1.23440E-4
3152.343750; 1.06418E-4
3158.203125; 1.16099E-4
3164.062500; 1.05160E-4
3169.921875; 1.05579E-4
3175.781250; 1.19312E-4
3181.640625; 1.14066E-4
3187.500000; 9.60979E-5
3193.359375; 9.86094E-5
3199.218750; 1.08790E-4
3205.078125; 1.13370E-4
3210.937500; 1.10256E-4
3216.796875; 9.44316E-5
3222.656250; 1.03289E-4
3228.515625; 1.02424E-4
3234.375000; 1.03862E-4
3240.234375; 1.17553E-4
3246.093750; 1.08184E-4
3251.953125; 1.04371E-4
3257.812500; 9.82772E-5
3263.671875; 1.01891E-4
3269.531250; 1.06858E-4
3275.390625; 1.00783E-4
3281.250000; 1.08314E-4
3287.109375; 1.18663E-4
3292.968750; 1.07246E-4
3298.828125; 1.09706E-4
3304.687500; 1.10259E-4
3310.546875; 1.09696E-4
3316.406250; 1.06371E-4
3322.265625; 1.04303E-4
3328.125000; 9.63897E-5
3333.984375; 1.19158E-4
3339.843750; 1.17896E-4
3345.703125; 1.07951E-4
3351.562500; 1.06565E-4
3357.421875; 1.25239E-4
3363.281250; 1.15523E-4
3369.140625; 1.09437E-4
3375.000000; 1.06507E-4
3380.859375; 1.03086E-4
3386.718750; 1.07584E-4
3392.578125; 1.05895E-4
3398.437500; 9.97977E-5
3404.296875; 1.12334E-4
3410.156250; 1.15003E-4
3416.015625; 1.09893E-4
3421.875000; 1.02853E-4
3427.734375; 1.07606E-4
3433.593750; 1.15332E-4
3439.453125; 1.03591E-4
3445.312500; 1.06861E-4
3451.171875; 1.06831E-4
3457.031250; 1.00448E-4
3462.890625; 1.11562E-4
3468.750000; 1.07989E-4
3474.609375; 9.88236E-5
3480.468750; 9.52437E-5
3486.328125; 9.81996E-5
3492.187500; 1.04385E-4
3498.046875; 1.02485E-4
3503.906250; 1.05502E-4
3509.765625; 1.08632E-4
3515.625000; 9.67629E-5
3521.484375; 1.10965E-4
3527.343750; 1.23262E-4
3533.203125; 1.05286E-4
3539.062500; 1.06880E-4
3544.921875; 1.13636E-4
3550.781250; 1.18107E-4
3556.640625; 1.22715E-4
3562.500000; 1.17596E-4
3568.359375; 1.21684E-4
3574.218750; 1.13115E-4
3580.078125; 1.16332E-4
3585.937500; 1.08275E-4
3591.796875; 1.10301E-4
3597.656250; 1.09499E-4
3603.515625; 1.05638E-4
3609.375000; 1.05426E-4
3615.234375; 1.20921E-4
3621.093750; 1.18254E-4
3626.953125; 1.16255E-4
3632.812500; 1.10187E-4
3638.671875; 1.10036E-4
3644.531250; 1.16182E-4
3650.390625; 1.06628E-4
3656.250000; 1.09917E-4
3662.109375; 1.08498E-4
3667.968750; 1.00389E-4
3673.828125; 9.53011E-5
3679.687500; 9.40723E-5
3685.546875; 9.11833E-5
3691.406250; 1.03478E-4
3697.265625; 1.10315E-4
3703.125000; 1.06423E-4
3708.984375; 1.09377E-4
3714.843750; 1.14158E-4
3720.703125; 1.30084E-4
3726.562500; 1.24982E-4
3732.421875; 1.00141E-4
3738.281250; 9.57448E-5
3744.140625; 1.04819E-4
3750.000000; 1.05826E-4
3755.859375; 1.02497E-4
3761.718750; 1.07856E-4
3767.578125; 1.09497E-4
3773.437500; 1.00900E-4
3779.296875; 9.95724E-5
3785.156250; 1.15778E-4
3791.015625; 1.19965E-4
3796.875000; 1.07465E-4
3802.734375; 1.01650E-4
3808.593750; 1.03466E-4
3814.453125; 1.06699E-4
3820.312500; 1.02301E-4
3826.171875; 1.12182E-4
3832.031250; 1.09417E-4
3837.890625; 1.01730E-4
3843.750000; 1.05962E-4
3849.609375; 1.08447E-4
3855.468750; 1.08030E-4
3861.328125; 1.12678E-4
3867.187500; 1.04110E-4
3873.046875; 1.10022E-4
3878.906250; 1.06391E-4
3884.765625; 1.05814E-4
3890.625000; 1.04952E-4
3896.484375; 1.11315E-4
3902.343750; 1.15417E-4
3908.203125; 1.08701E-4
3914.062500; 1.07708E-4
3919.921875; 1.01545E-4
3925.781250; 1.00762E-4
3931.640625; 1.08161E-4
3937.500000; 1.11046E-4
3943.359375; 1.06944E-4
3949.218750; 9.93444E-5
3955.078125; 1.10768E-4
3960.937500; 1.09061E-4
3966.796875; 1.13959E-4
3972.656250; 1.04740E-4
3978.515625; 1.05007E-4
3984.375000; 1.13074E-4
3990.234375; 2.53687E-4
3996.093750; 1.78608E-3
4001.953125; 2.23140E-3
4007.812500; 6.50630E-4
4013.671875; 1.28959E-4
4019.531250; 1.15275E-4
4025.390625; 1.16774E-4
4031.250000; 1.02243E-4
4037.109375; 1.14292E-4
4042.968750; 1.10923E-4
4048.828125; 1.10747E-4
4054.687500; 1.06515E-4
4060.546875; 9.80836E-5
4066.406250; 1.03689E-4
4072.265625; 9.96960E-5
4078.125000; 9.20269E-5
4083.984375; 1.04206E-4
4089.843750; 9.30211E-5
4095.703125; 1.06938E-4
4101.562500; 9.78770E-5
4107.421875; 1.15124E-4
4113.281250; 1.21407E-4
4119.140625; 1.06812E-4
4125.000000; 1.01444E-4
4130.859375; 1.03487E-4
4136.718750; 1.06841E-4
4142.578125; 1.04996E-4
4148.437500; 1.01387E-4
4154.296875; 1.16311E-4
4160.156250; 1.07950E-4
4166.015625; 9.41814E-5
4171.875000; 1.09938E-4
4177.734375; 1.04568E-4
4183.593750; 9.19391E-5
4189.453125; 9.68696E-5
4195.312500; 1.05026E-4
4201.171875; 1.04535E-4
4207.031250; 1.17658E-4
4212.890625; 1.15975E-4
4218.750000; 1.00998E-4
4224.609375; 9.91473E-5
4230.468750; 1.05089E-4
4236.328125; 1.18954E-4
4242.187500; 1.22147E-4
4248.046875; 9.94267E-5
4253.906250; 1.03395E-4
4259.765625; 1.09547E-4
4265.625000; 1.19402E-4
4271.484375; 1.19258E-4
4277.343750; 1.10209E-4
4283.203125; 1.11497E-4
4289.062500; 1.05044E-4
4294.921875; 1.10143E-4
4300.781250; 1.08717E-4
4306.640625; 1.01777E-4
4312.500000; 1.01237E-4
4318.359375; 1.04070E-4
4324.218750; 1.02886E-4
4330.078125; 9.87783E-5
4335.937500; 1.01405E-4
4341.796875; 1.06859E-4
4347.656250; 1.14473E-4
4353.515625; 1.16334E-4
4359.375000; 1.01986E-4
4365.234375; 9.89771E-5
4371.093750; 1.09196E-4
4376.953125; 1.17661E-4
4382.812500; 1.14629E-4
4388.671875; 1.03569E-4
4394.531250; 1.02137E-4
4400.390625; 1.05499E-4
4406.250000; 1.08522E-4
4412.109375; 1.19677E-4
4417.968750; 1.05158E-4
4423.828125; 1.00501E-4
4429.687500; 1.16592E-4
4435.546875; 1.13377E-4
4441.406250; 1.07093E-4
4447.265625; 9.94178E-5
4453.125000; 1.12189E-4
4458.984375; 1.08316E-4
4464.843750; 1.09758E-4
4470.703125; 1.12974E-4
4476.562500; 9.92620E-5
4482.421875; 1.08209E-4
4488.281250; 1.07502E-4
4494.140625; 1.02494E-4
4500.000000; 1.07515E-4
4505.859375; 1.08653E-4
4511.718750; 1.01460E-4
4517.578125; 1.06857E-4
4523.437500; 1.04638E-4
4529.296875; 1.06065E-4
4535.156250; 9.68836E-5
4541.015625; 1.01939E-4
4546.875000; 1.15556E-4
4552.734375; 1.11924E-4
4558.593750; 1.06423E-4
4564.453125; 1.03719E-4
4570.312500; 1.06055E-4
4576.171875; 1.12503E-4
4582.031250; 1.13121E-4
4587.890625; 1.06053E-4
4593.750000; 1.07710E-4
4599.609375; 1.07853E-4
4605.468750; 1.09074E-4
4611.328125; 1.02186E-4
4617.187500; 1.14616E-4
4623.046875; 1.08701E-4
4628.906250; 1.03956E-4
4634.765625; 9.75312E-5
4640.625000; 1.10611E-4
4646.484375; 1.09365E-4
4652.343750; 1.06693E-4
4658.203125; 1.05725E-4
4664.062500; 1.02648E-4
4669.921875; 1.10649E-4
4675.781250; 1.25916E-4
4681.640625; 1.23787E-4
4687.500000; 1.15371E-4
4693.359375; 9.73638E-5
4699.218750; 1.02939E-4
4705.078125; 1.03482E-4
4710.937500; 1.11548E-4
4716.796875; 1.13162E-4
4722.656250; 1.06962E-4
4728.515625; 9.80836E-5
4734.375000; 9.70756E-5
4740.234375; 1.07675E-4
4746.093750; 1.12454E-4
4751.953125; 1.04536E-4
4757.812500; 1.09461E-4
4763.671875; 1.02942E-4
4769.531250; 1.14453E-4
4775.390625; 1.15931E-4
4781.250000; 1.12850E-4
4787.109375; 1.10426E-4
4792.968750; 1.12377E-4
4798.828125; 1.20312E-4
4804.687500; 1.19576E-4
4810.546875; 1.08431E-4
4816.406250; 1.06454E-4
4822.265625; 1.09308E-4
4828.125000; 1.07214E-4
4833.984375; 1.13216E-4
4839.843750; 1.24273E-4
4845.703125; 1.33977E-4
4851.562500; 1.22248E-4
4857.421875; 1.01819E-4
4863.281250; 1.02288E-4
4869.140625; 1.14987E-4
4875.000000; 1.22253E-4
4880.859375; 1.02831E-4
4886.718750; 1.01891E-4
4892.578125; 1.00754E-4
4898.437500; 1.06853E-4
4904.296875; 1.08386E-4
4910.156250; 1.06091E-4
4916.015625; 9.75173E-5
4921.875000; 1.03508E-4
4927.734375; 9.20129E-5
4933.593750; 1.03980E-4
4939.453125; 1.04243E-4
4945.312500; 1.12584E-4
4951.171875; 1.21102E-4
4957.031250; 1.06553E-4
4962.890625; 1.13593E-4
4968.750000; 1.16633E-4
4974.609375; 1.05580E-4
4980.468750; 1.07620E-4
4986.328125; 1.08663E-4
4992.187500; 3.26466E-4
4998.046875; 1.05402E-3
5003.906250; 8.39268E-4
5009.765625; 1.56078E-4
5015.625000; 1.09942E-4
5021.484375; 1.12165E-4
5027.343750; 1.03763E-4
5033.203125; 1.18673E-4
5039.062500; 1.09662E-4
5044.921875; 9.90548E-5
5050.781250; 1.07019E-4
5056.640625; 1.08262E-4
5062.500000; 1.14115E-4
5068.359375; 1.14705E-4
5074.218750; 1.10641E-4
5080.078125; 1.17347E-4
5085.937500; 1.15612E-4
5091.796875; 1.11316E-4
5097.656250; 1.07928E-4
5103.515625; 9.80900E-5
5109.375000; 9.89845E-5
5115.234375; 9.76633E-5
5121.093750; 1.05074E-4
5126.953125; 1.18463E-4
5132.812500; 1.21815E-4
5138.671875; 1.13609E-4
5144.531250; 1.02348E-4
5150.390625; 1.04336E-4
5156.250000; 1.08261E-4
5162.109375; 1.14280E-4
5167.968750; 1.15554E-4
5173.828125; 1.10809E-4
5179.687500; 1.13732E-4
5185.546875; 1.09733E-4
5191.406250; 1.09885E-4
5197.265625; 1.14808E-4
5203.125000; 1.08761E-4
5208.984375; 1.01534E-4
5214.843750; 1.00302E-4
5220.703125; 1.00364E-4
5226.562500; 1.11910E-4
5232.421875; 1.09262E-4
5238.281250; 1.18903E-4
5244.140625; 1.31030E-4
5250.000000; 1.27447E-4
5255.859375; 1.27312E-4
5261.718750; 1.15743E-4
5267.578125; 1.09875E-4
5273.437500; 1.25060E-4
5279.296875; 1.24067E-4
5285.156250; 1.14917E-4
5291.015625; 1.02682E-4
5296.875000; 9.44648E-5
5302.734375; 9.90924E-5
5308.593750; 9.21827E-5
5314.453125; 1.00598E-4
5320.312500; 1.01828E-4
5326.171875; 1.14538E-4
5332.031250; 1.12439E-4
5337.890625; 1.07852E-4
5343.750000; 1.02137E-4
5349.609375; 1.08881E-4
5355.468750; 1.09753E-4
5361.328125; 1.11082E-4
5367.187500; 1.13293E-4
5373.046875; 1.15282E-4
5378.906250; 1.04643E-4
5384.765625; 1.03651E-4
5390.625000; 1.11208E-4
5396.484375; 1.17318E-4
5402.343750; 1.01257E-4
5408.203125; 9.41434E-5
5414.062500; 1.03155E-4
5419.921875; 1.04545E-4
5425.781250; 1.02694E-4
5431.640625; 1.11827E-4
5437.500000; 1.06829E-4
5443.359375; 9.02450E-5
5449.218750; 9.93857E-5
5455.078125; 1.13997E-4
5460.937500; 1.13000E-4
5466.796875; 1.10387E-4
5472.656250; 1.11728E-4
5478.515625; 1.07426E-4
5484.375000; 1.14787E-4
5490.234375; 1.13696E-4
5496.093750; 1.04427E-4
5501.953125; 9.87533E-5
5507.812500; 1.07173E-4
5513.671875; 1.06800E-4
5519.531250; 1.24259E-4
5525.390625; 1.29899E-4
5531.250000; 1.07486E-4
5537.109375; 1.10501E-4
5542.968750; 1.01224E-4
5548.828125; 8.92911E-5
5554.687500; 9.83583E-5
5560.546875; 1.06188E-4
5566.406250; 1.05688E-4
5572.265625; 1.12507E-4
5578.125000; 1.03921E-4
5583.984375; 9.87436E-5
5589.843750; 1.18790E-4
5595.703125; 1.35545E-4
5601.562500; 1.20936E-4
5607.421875; 9.86093E-5
5613.281250; 9.12118E-5
5619.140625; 9.64759E-5
5625.000000; 9.92454E-5
5630.859375; 1.10730E-4
5636.718750; 1.22958E-4
5642.578125; 1.16955E-4
5648.437500; 9.98302E-5
5654.296875; 9.86904E-5
5660.156250; 1.01333E-4
5666.015625; 1.10330E-4
5671.875000; 1.12854E-4
5677.734375; 1.04795E-4
5683.593750; 1.06823E-4
5689.453125; 1.12408E-4
5695.312500; 1.10421E-4
5701.171875; 1.08884E-4
5707.031250; 9.77732E-5
5712.890625; 1.00971E-4
5718.750000; 1.07242E-4
5724.609375; 1.16228E-4
5730.468750; 1.14871E-4
5736.328125; 1.13277E-4
5742.187500; 1.05625E-4
5748.046875; 1.01056E-4
5753.906250; 1.05700E-4
5759.765625; 1.20362E-4
5765.625000; 1.17719E-4
5771.484375; 1.01580E-4
5777.343750; 9.87069E-5
5783.203125; 1.03897E-4
5789.062500; 1.06490E-4
5794.921875; 1.08303E-4
5800.781250; 1.09479E-4
5806.640625; 9.76296E-5
5812.500000; 9.26870E-5
5818.359375; 1.07048E-4
5824.218750; 1.19546E-4
5830.078125; 1.09831E-4
5835.937500; 1.03234E-4
5841.796875; 1.13158E-4
5847.656250; 1.04961E-4
5853.515625; 9.81484E-5
5859.375000; 1.04029E-4
5865.234375; 9.97979E-5
5871.093750; 9.70390E-5
5876.953125; 1.08955E-4
5882.812500; 1.08732E-4
5888.671875; 9.62483E-5
5894.531250; 8.39492E-5
5900.390625; 1.02900E-4
5906.250000; 1.16411E-4
5912.109375; 1.15496E-4
5917.968750; 1.04654E-4
5923.828125; 1.06085E-4
5929.687500; 9.89811E-5
5935.546875; 1.01191E-4
5941.406250; 1.11461E-4
5947.265625; 1.13584E-4
5953.125000; 1.12315E-4
5958.984375; 1.01246E-4
5964.843750; 1.20342E-4
5970.703125; 1.24914E-4
5976.562500; 1.13674E-4
5982.421875; 1.04019E-4
5988.281250; 1.05836E-4
5994.140625; 2.14306E-4
6000.000000; 3.93156E-4
6005.859375; 2.07560E-4
6011.718750; 1.16480E-4
6017.578125; 1.21530E-4
6023.437500; 1.08856E-4
6029.296875; 1.08245E-4
6035.156250; 1.06761E-4
6041.015625; 9.24872E-5
6046.875000; 1.04111E-4
6052.734375; 1.04832E-4
6058.593750; 9.50616E-5
6064.453125; 9.09706E-5
6070.312500; 1.16643E-4
6076.171875; 1.23787E-4
6082.031250; 1.04555E-4
6087.890625; 1.12802E-4
6093.750000; 1.13242E-4
6099.609375; 1.11282E-4
6105.468750; 1.05747E-4
6111.328125; 9.53671E-5
6117.187500; 9.52059E-5
6123.046875; 9.89368E-5
6128.906250; 1.02954E-4
6134.765625; 1.02116E-4
6140.625000; 1.03350E-4
6146.484375; 1.06734E-4
6152.343750; 1.09060E-4
6158.203125; 1.19409E-4
6164.062500; 1.09131E-4
6169.921875; 1.18441E-4
6175.781250; 1.17965E-4
6181.640625; 1.05779E-4
6187.500000; 1.02728E-4
6193.359375; 1.11304E-4
6199.218750; 1.11888E-4
6205.078125; 1.08400E-4
6210.937500; 1.08212E-4
6216.796875; 1.15612E-4
6222.656250; 1.12712E-4
6228.515625; 1.11332E-4
6234.375000; 1.19097E-4
6240.234375; 1.13987E-4
6246.093750; 1.09847E-4
6251.953125; 1.00924E-4
6257.812500; 1.07802E-4
6263.671875; 1.04160E-4
6269.531250; 1.07988E-4
6275.390625; 1.14237E-4
6281.250000; 1.14646E-4
6287.109375; 1.22219E-4
6292.968750; 9.91297E-5
6298.828125; 9.99083E-5
6304.687500; 8.89473E-5
6310.546875; 8.90237E-5
6316.406250; 9.81522E-5
6322.265625; 1.03244E-4
6328.125000; 1.03609E-4
6333.984375; 1.02203E-4
6339.843750; 1.07035E-4
6345.703125; 1.14034E-4
6351.562500; 1.24221E-4
6357.421875; 1.16981E-4
6363.281250; 1.14055E-4
6369.140625; 1.15082E-4
6375.000000; 1.09864E-4
6380.859375; 1.23169E-4
6386.718750; 1.13811E-4
6392.578125; 1.07131E-4
6398.437500; 1.08236E-4
6404.296875; 1.03084E-4
6410.156250; 1.01572E-4
6416.015625; 1.10764E-4
6421.875000; 1.23653E-4
6427.734375; 1.11947E-4
6433.593750; 1.09622E-4
6439.453125; 1.29364E-4
6445.312500; 1.15417E-4
6451.171875; 1.06625E-4
6457.031250; 1.05966E-4
6462.890625; 1.03903E-4
6468.750000; 1.08878E-4
6474.609375; 1.20997E-4
6480.468750; 1.04321E-4
6486.328125; 8.87688E-5
6492.187500; 1.06062E-4
6498.046875; 1.17091E-4
6503.906250; 1.13581E-4
6509.765625; 1.08951E-4
6515.625000; 1.02416E-4
6521.484375; 1.10198E-4
6527.343750; 1.09312E-4
6533.203125; 1.07408E-4
6539.062500; 1.00373E-4
6544.921875; 1.01164E-4
6550.781250; 1.05680E-4
6556.640625; 1.08891E-4
6562.500000; 1.06993E-4
6568.359375; 9.89619E-5
6574.218750; 1.11156E-4
6580.078125; 1.04537E-4
6585.937500; 1.07407E-4
6591.796875; 1.18651E-4
6597.656250; 1.14418E-4
6603.515625; 1.11772E-4
6609.375000; 1.21814E-4
6615.234375; 1.23537E-4
6621.093750; 1.08601E-4
6626.953125; 9.66269E-5
6632.812500; 1.14527E-4
6638.671875; 1.21883E-4
6644.531250; 1.09727E-4
6650.390625; 1.07845E-4
6656.250000; 1.05535E-4
6662.109375; 1.05415E-4
6667.968750; 1.05054E-4
6673.828125; 1.04668E-4
6679.687500; 1.13382E-4
6685.546875; 1.19155E-4
6691.406250; 1.17716E-4
6697.265625; 1.12661E-4
6703.125000; 1.15157E-4
6708.984375; 1.09179E-4
6714.843750; 9.81729E-5
6720.703125; 9.16329E-5
6726.562500; 1.03083E-4
6732.421875; 1.10724E-4
6738.281250; 1.14830E-4
6744.140625; 9.80802E-5
6750.000000; 1.14330E-4
6755.859375; 1.08340E-4
6761.718750; 9.59204E-5
6767.578125; 1.01053E-4
6773.437500; 1.03635E-4
6779.296875; 1.03663E-4
6785.156250; 1.18653E-4
6791.015625; 1.09226E-4
6796.875000; 1.13809E-4
6802.734375; 1.17239E-4
6808.593750; 1.25612E-4
6814.453125; 1.08757E-4
6820.312500; 9.34270E-5
6826.171875; 1.04810E-4
6832.031250; 1.04451E-4
6837.890625; 1.16208E-4
6843.750000; 1.12544E-4
6849.609375; 1.06883E-4
6855.468750; 1.14532E-4
6861.328125; 1.09103E-4
6867.187500; 9.89281E-5
6873.046875; 9.60053E-5
6878.906250; 9.59573E-5
6884.765625; 1.17523E-4
6890.625000; 1.18634E-4
6896.484375; 1.06607E-4
6902.343750; 1.01334E-4
6908.203125; 9.73152E-5
6914.062500; 1.10246E-4
6919.921875; 1.12461E-4
6925.781250; 1.07395E-4
6931.640625; 1.02234E-4
6937.500000; 1.06259E-4
6943.359375; 1.14379E-4
6949.218750; 1.11300E-4
6955.078125; 1.12163E-4
6960.937500; 1.10494E-4
6966.796875; 1.07994E-4
6972.656250; 1.10538E-4
6978.515625; 1.15470E-4
6984.375000; 1.12301E-4
6990.234375; 1.09785E-4
6996.093750; 2.39938E-4
7001.953125; 2.89964E-4
7007.812500; 1.33987E-4
7013.671875; 1.11040E-4
7019.531250; 1.00618E-4
7025.390625; 9.57162E-5
7031.250000; 1.04238E-4
7037.109375; 1.00305E-4
7042.968750; 1.04077E-4
7048.828125; 1.01529E-4
7054.687500; 1.03083E-4
7060.546875; 1.17652E-4
7066.406250; 1.17724E-4
7072.265625; 1.15364E-4
7078.125000; 1.08068E-4
7083.984375; 1.13330E-4
7089.843750; 1.06403E-4
7095.703125; 1.05792E-4
7101.562500; 1.05713E-4
7107.421875; 1.05362E-4
7113.281250; 1.08173E-4
7119.140625; 1.10135E-4
7125.000000; 1.08195E-4
7130.859375; 1.05690E-4
7136.718750; 1.11745E-4
7142.578125; 1.11574E-4
7148.437500; 1.07823E-4
7154.296875; 1.03451E-4
7160.156250; 1.07005E-4
7166.015625; 9.92637E-5
7171.875000; 9.81894E-5
7177.734375; 1.14458E-4
7183.593750; 1.04984E-4
7189.453125; 1.10657E-4
7195.312500; 1.13069E-4
7201.171875; 1.12370E-4
7207.031250; 1.01385E-4
7212.890625; 9.42144E-5
7218.750000; 9.33351E-5
7224.609375; 1.06767E-4
7230.468750; 1.05577E-4
7236.328125; 9.99540E-5
7242.187500; 1.14144E-4
7248.046875; 1.21670E-4
7253.906250; 1.18320E-4
7259.765625; 1.11866E-4
7265.625000; 1.14184E-4
7271.484375; 1.04900E-4
7277.343750; 9.11546E-5
7283.203125; 1.05008E-4
7289.062500; 1.15473E-4
7294.921875; 1.07679E-4
7300.781250; 1.04444E-4
7306.640625; 1.07802E-4
7312.500000; 9.82691E-5
7318.359375; 1.02558E-4
7324.218750; 1.10354E-4
7330.078125; 1.05557E-4
7335.937500; 1.08337E-4
7341.796875; 1.18541E-4
7347.656250; 1.08040E-4
7353.515625; 1.00764E-4
7359.375000; 1.05127E-4
7365.234375; 9.51657E-5
7371.093750; 1.02806E-4
7376.953125; 1.05920E-4
7382.812500; 9.51378E-5
7388.671875; 1.03251E-4
7394.531250; 1.03212E-4
7400.390625; 1.07803E-4
7406.250000; 9.91369E-5
7412.109375; 1.17015E-4
7417.968750; 1.19257E-4
7423.828125; 1.01946E-4
7429.687500; 1.03396E-4
7435.546875; 1.08273E-4
7441.406250; 1.14279E-4
7447.265625; 1.13203E-4
7453.125000; 1.13673E-4
7458.984375; 1.14103E-4
7464.843750; 1.11131E-4
7470.703125; 1.08250E-4
7476.562500; 1.03810E-4
7482.421875; 1.12170E-4
7488.281250; 1.15580E-4
7494.140625; 1.06779E-4
7500.000000; 1.09166E-4
7505.859375; 1.17489E-4
7511.718750; 1.06449E-4
7517.578125; 9.02664E-5
7523.437500; 9.79278E-5
7529.296875; 1.03385E-4
7535.156250; 1.09253E-4
7541.015625; 1.06202E-4
7546.875000; 1.03768E-4
7552.734375; 1.04636E-4
7558.593750; 9.95940E-5
7564.453125; 9.50538E-5
7570.312500; 1.15316E-4
7576.171875; 9.93619E-5
7582.031250; 8.49020E-5
7587.890625; 9.58889E-5
7593.750000; 1.14749E-4
7599.609375; 1.11873E-4
7605.468750; 1.03506E-4
7611.328125; 1.06036E-4
7617.187500; 1.04588E-4
7623.046875; 1.00930E-4
7628.906250; 1.18119E-4
7634.765625; 1.14816E-4
7640.625000; 1.10372E-4
7646.484375; 1.11063E-4
7652.343750; 1.09500E-4
7658.203125; 1.03747E-4
7664.062500; 1.15237E-4
7669.921875; 1.10083E-4
7675.781250; 9.81385E-5
7681.640625; 9.56137E-5
7687.500000; 1.22164E-4
7693.359375; 1.24924E-4
7699.218750; 1.25149E-4
7705.078125; 1.04028E-4
7710.937500; 9.87719E-5
7716.796875; 1.21185E-4
7722.656250; 1.26306E-4
7728.515625; 1.06794E-4
7734.375000; 9.22366E-5
7740.234375; 9.94477E-5
7746.093750; 1.10929E-4
7751.953125; 1.01827E-4
7757.812500; 1.00429E-4
7763.671875; 1.11669E-4
7769.531250; 1.13240E-4
7775.390625; 9.79167E-5
7781.250000; 1.08119E-4
7787.109375; 9.97092E-5
7792.968750; 9.86616E-5
7798.828125; 1.02468E-4
7804.687500; 1.04460E-4
7810.546875; 9.11287E-5
7816.406250; 9.99241E-5
7822.265625; 1.02815E-4
7828.125000; 1.05235E-4
7833.984375; 1.05041E-4
7839.843750; 1.14404E-4
7845.703125; 1.17729E-4
7851.562500; 1.09349E-4
7857.421875; 1.01867E-4
7863.281250; 9.32900E-5
7869.140625; 1.07811E-4
7875.000000; 1.15230E-4
7880.859375; 1.08305E-4
7886.718750; 1.05869E-4
7892.578125; 9.35498E-5
7898.437500; 9.81466E-5
7904.296875; 9.97118E-5
7910.156250; 9.75652E-5
7916.015625; 1.13941E-4
7921.875000; 1.12473E-4
7927.734375; 1.15324E-4
7933.593750; 1.11038E-4
7939.453125; 9.50384E-5
7945.312500; 9.51719E-5
7951.171875; 1.12127E-4
7957.031250; 1.19630E-4
7962.890625; 1.17115E-4
7968.750000; 1.06685E-4
7974.609375; 1.07861E-4
7980.468750; 1.08182E-4
7986.328125; 1.12272E-4
7992.187500; 1.07349E-4
7998.046875; 1.67446E-4
8003.906250; 1.51866E-4
8009.765625; 9.11142E-5
8015.625000; 1.02324E-4
8021.484375; 1.05950E-4
8027.343750; 1.07736E-4
8033.203125; 1.10088E-4
8039.062500; 1.11805E-4
8044.921875; 1.17582E-4
8050.781250; 1.15999E-4
8056.640625; 1.14145E-4
8062.500000; 1.11202E-4
8068.359375; 1.09737E-4
8074.218750; 1.06770E-4
8080.078125; 9.89927E-5
8085.937500; 1.05713E-4
8091.796875; 1.16400E-4
8097.656250; 1.08700E-4
8103.515625; 1.07698E-4
8109.375000; 1.00419E-4
8115.234375; 1.05570E-4
8121.093750; 1.05655E-4
8126.953125; 1.00735E-4
8132.812500; 9.90760E-5
8138.671875; 1.06271E-4
8144.531250; 9.73891E-5
8150.390625; 1.10430E-4
8156.250000; 1.17041E-4
8162.109375; 1.04126E-4
8167.968750; 1.01594E-4
8173.828125; 1.06169E-4
8179.687500; 1.04603E-4
8185.546875; 1.10641E-4
8191.406250; 1.04757E-4
8197.265625; 1.09141E-4
8203.125000; 1.17205E-4
8208.984375; 1.16174E-4
8214.843750; 9.81031E-5
8220.703125; 1.04032E-4
8226.562500; 1.09772E-4
8232.421875; 1.13053E-4
8238.281250; 1.11845E-4
8244.140625; 1.04920E-4
8250.000000; 1.11912E-4
8255.859375; 1.14634E-4
8261.718750; 1.07302E-4
8267.578125; 1.00736E-4
8273.437500; 1.00504E-4
8279.296875; 1.15345E-4
8285.156250; 1.11303E-4
8291.015625; 9.90658E-5
8296.875000; 9.94867E-5
8302.734375; 1.07850E-4
8308.593750; 1.04126E-4
8314.453125; 1.07663E-4
8320.312500; 1.07537E-4
8326.171875; 1.19466E-4
8332.031250; 1.10886E-4
8337.890625; 1.11376E-4
8343.750000; 1.01321E-4
8349.609375; 1.01899E-4
8355.468750; 1.10666E-4
8361.328125; 1.02827E-4
8367.187500; 9.84121E-5
8373.046875; 1.06933E-4
8378.906250; 9.50476E-5
8384.765625; 9.44503E-5
8390.625000; 1.09218E-4
8396.484375; 1.05333E-4
8402.343750; 1.12611E-4
8408.203125; 1.01063E-4
8414.062500; 1.09555E-4
8419.921875; 1.20607E-4
8425.781250; 1.12371E-4
8431.640625; 1.08249E-4
8437.500000; 1.01260E-4
8443.359375; 9.81376E-5
8449.218750; 8.85554E-5
8455.078125; 9.54200E-5
8460.937500; 1.23089E-4
8466.796875; 1.09704E-4
8472.656250; 1.06091E-4
8478.515625; 1.09604E-4
8484.375000; 1.06308E-4
8490.234375; 1.11587E-4
8496.093750; 1.11289E-4
8501.953125; 1.17369E-4
8507.812500; 1.09143E-4
8513.671875; 1.08137E-4
8519.531250; 1.28044E-4
8525.390625; 1.37795E-4
8531.250000; 1.08152E-4
8537.109375; 1.01563E-4
8542.968750; 1.04459E-4
8548.828125; 1.12424E-4
8554.687500; 1.07319E-4
8560.546875; 1.01547E-4
8566.406250; 9.64620E-5
8572.265625; 1.03689E-4
8578.125000; 1.03202E-4
8583.984375; 1.10590E-4
8589.843750; 1.05566E-4
8595.703125; 9.72736E-5
8601.562500; 1.09149E-4
8607.421875; 1.03192E-4
8613.281250; 1.10879E-4
8619.140625; 1.13594E-4
8625.000000; 1.03743E-4
8630.859375; 1.07748E-4
8636.718750; 1.13225E-4
8642.578125; 1.16497E-4
8648.437500; 1.08605E-4
8654.296875; 1.00567E-4
8660.156250; 1.02604E-4
8666.015625; 1.08400E-4
8671.875000; 9.46096E-5
8677.734375; 1.03069E-4
8683.593750; 9.48041E-5
8689.453125; 9.43108E-5
8695.312500; 1.12176E-4
8701.171875; 9.50953E-5
8707.031250; 1.05048E-4
8712.890625; 1.04490E-4
8718.750000; 9.70223E-5
8724.609375; 1.12108E-4
8730.468750; 1.08668E-4
8736.328125; 1.03132E-4
8742.187500; 1.01932E-4
8748.046875; 1.02996E-4
8753.906250; 1.03597E-4
8759.765625; 1.06017E-4
8765.625000; 1.00413E-4
8771.484375; 1.06287E-4
8777.343750; 1.10126E-4
8783.203125; 1.10263E-4
8789.062500; 1.02327E-4
8794.921875; 9.76404E-5
8800.781250; 1.14420E-4
8806.640625; 1.19902E-4
8812.500000; 1.06602E-4
8818.359375; 1.12699E-4
8824.218750; 1.11140E-4
8830.078125; 1.02746E-4
8835.937500; 1.07111E-4
8841.796875; 1.18221E-4
8847.656250; 1.03701E-4
8853.515625; 1.08600E-4
8859.375000; 1.09049E-4
8865.234375; 9.75701E-5
8871.093750; 9.95495E-5
8876.953125; 1.07683E-4
8882.812500; 1.05930E-4
8888.671875; 1.00368E-4
8894.531250; 1.16328E-4
8900.390625; 1.16100E-4
8906.250000; 1.04907E-4
8912.109375; 1.10475E-4
8917.968750; 1.09049E-4
8923.828125; 1.18946E-4
8929.687500; 1.21144E-4
8935.546875; 1.16301E-4
8941.406250; 1.11655E-4
8947.265625; 1.15547E-4
8953.125000; 1.07231E-4
8958.984375; 1.18213E-4
8964.843750; 1.16609E-4
8970.703125; 1.17856E-4
8976.562500; 1.17517E-4
8982.421875; 1.03696E-4
8988.281250; 1.02469E-4
8994.140625; 1.22694E-4
9000.000000; 1.66023E-4
9005.859375; 1.26862E-4
9011.718750; 1.12309E-4
9017.578125; 1.15236E-4
9023.437500; 1.07654E-4
9029.296875; 1.13574E-4
9035.156250; 1.27486E-4
9041.015625; 1.09935E-4
9046.875000; 1.10235E-4
9052.734375; 1.13517E-4
9058.593750; 1.12195E-4
9064.453125; 1.06733E-4
9070.312500; 1.11207E-4
9076.171875; 1.04275E-4
9082.031250; 9.85870E-5
9087.890625; 9.51947E-5
9093.750000; 9.76449E-5
9099.609375; 1.01998E-4
9105.468750; 8.89184E-5
9111.328125; 1.04081E-4
9117.187500; 1.08922E-4
9123.046875; 1.10184E-4
9128.906250; 1.08627E-4
9134.765625; 9.50514E-5
9140.625000; 1.03466E-4
9146.484375; 9.48731E-5
9152.343750; 1.01064E-4
9158.203125; 9.78413E-5
9164.062500; 1.07001E-4
9169.921875; 1.11395E-4
9175.781250; 1.03930E-4
9181.640625; 1.06740E-4
9187.500000; 1.09761E-4
9193.359375; 1.04889E-4
9199.218750; 1.01872E-4
9205.078125; 1.16714E-4
9210.937500; 1.14500E-4
9216.796875; 1.13183E-4
9222.656250; 1.16765E-4
9228.515625; 1.16494E-4
9234.375000; 1.12614E-4
9240.234375; 1.04277E-4
9246.093750; 9.30106E-5
9251.953125; 1.08211E-4
9257.812500; 1.16001E-4
9263.671875; 1.02586E-4
9269.531250; 9.45430E-5
9275.390625; 1.06845E-4
9281.250000; 1.14793E-4
9287.109375; 1.04245E-4
9292.968750; 1.26243E-4
9298.828125; 1.14243E-4
9304.687500; 9.89256E-5
9310.546875; 1.02751E-4
9316.406250; 1.03608E-4
9322.265625; 1.07041E-4
9328.125000; 1.11462E-4
9333.984375; 1.00496E-4
9339.843750; 1.05232E-4
9345.703125; 1.00484E-4
9351.562500; 1.00874E-4
9357.421875; 1.02247E-4
9363.281250; 1.04938E-4
9369.140625; 1.10606E-4
9375.000000; 9.99233E-5
9380.859375; 9.69672E-5
9386.718750; 9.77241E-5
9392.578125; 1.01312E-4
9398.437500; 1.08770E-4
9404.296875; 1.15789E-4
9410.156250; 1.12258E-4
9416.015625; 1.02702E-4
9421.875000; 1.08926E-4
9427.734375; 1.06413E-4
9433.593750; 1.21546E-4
9439.453125; 1.07991E-4
9445.312500; 9.58518E-5
9451.171875; 9.48448E-5
9457.031250; 9.45030E-5
9462.890625; 1.13193E-4
9468.750000; 1.08138E-4
9474.609375; 9.61490E-5
9480.468750; 9.77907E-5
9486.328125; 1.08358E-4
9492.187500; 1.01162E-4
9498.046875; 1.12583E-4
9503.906250; 1.15208E-4
9509.765625; 1.01641E-4
9515.625000; 1.18984E-4
9521.484375; 1.07565E-4
9527.343750; 1.11911E-4
9533.203125; 1.21458E-4
9539.062500; 1.02386E-4
9544.921875; 1.03668E-4
9550.781250; 1.08978E-4
9556.640625; 1.06267E-4
9562.500000; 1.00533E-4
9568.359375; 9.01303E-5
9574.218750; 9.92670E-5
9580.078125; 1.08625E-4
9585.937500; 1.06521E-4
9591.796875; 1.13822E-4
9597.656250; 1.00391E-4
9603.515625; 9.51106E-5
9609.375000; 1.02634E-4
9615.234375; 1.02952E-4
9621.093750; 1.07952E-4
9626.953125; 9.69527E-5
9632.812500; 9.03828E-5
9638.671875; 1.05061E-4
9644.531250; 9.68583E-5
9650.390625; 9.61863E-5
9656.250000; 1.08489E-4
9662.109375; 1.17848E-4
9667.968750; 1.11648E-4
9673.828125; 1.08129E-4
9679.687500; 1.16062E-4
9685.546875; 1.11828E-4
9691.406250; 1.08596E-4
9697.265625; 1.16999E-4
9703.125000; 1.11305E-4
9708.984375; 1.14088E-4
9714.843750; 1.12120E-4
9720.703125; 1.06106E-4
9726.562500; 1.00174E-4
9732.421875; 9.66070E-5
9738.281250; 9.63717E-5
9744.140625; 1.03084E-4
9750.000000; 1.10954E-4
9755.859375; 1.10926E-4
9761.718750; 1.16345E-4
9767.578125; 1.17952E-4
9773.437500; 1.13646E-4
9779.296875; 1.04988E-4
9785.156250; 1.00297E-4
9791.015625; 1.08203E-4
9796.875000; 1.14266E-4
9802.734375; 1.17388E-4
9808.593750; 1.16128E-4
9814.453125; 1.19309E-4
9820.312500; 1.20408E-4
9826.171875; 1.18070E-4
9832.031250; 1.33495E-4
9837.890625; 1.16071E-4
9843.750000; 9.38772E-5
9849.609375; 1.04347E-4
9855.468750; 1.03104E-4
9861.328125; 1.13476E-4
9867.187500; 1.03468E-4
9873.046875; 9.83716E-5
9878.906250; 1.01015E-4
9884.765625; 1.03482E-4
9890.625000; 9.64614E-5
9896.484375; 1.08207E-4
9902.343750; 1.04418E-4
9908.203125; 1.02262E-4
9914.062500; 9.71220E-5
9919.921875; 9.15339E-5
9925.781250; 1.03859E-4
9931.640625; 1.10269E-4
9937.500000; 1.06285E-4
9943.359375; 9.52109E-5
9949.218750; 1.05309E-4
9955.078125; 9.83826E-5
9960.937500; 1.02742E-4
9966.796875; 1.00384E-4
9972.656250; 9.78341E-5
9978.515625; 1.03182E-4
9984.375000; 1.04653E-4
9990.234375; 1.13677E-4
9996.093750; 1.18593E-4
10001.953125; 1.22241E-4
10007.812500; 1.02705E-4
10013.671875; 1.21844E-4
10019.531250; 1.08839E-4
10025.390625; 8.70427E-5
10031.250000; 1.00935E-4
10037.109375; 1.05385E-4
10042.968750; 1.09306E-4
10048.828125; 1.14133E-4
10054.687500; 1.17544E-4
10060.546875; 1.08449E-4
10066.406250; 1.08430E-4
10072.265625; 1.07899E-4
10078.125000; 1.14853E-4
10083.984375; 1.12678E-4
10089.843750; 1.21129E-4
10095.703125; 1.04936E-4
10101.562500; 1.01370E-4
10107.421875; 9.19042E-5
10113.281250; 1.09387E-4
10119.140625; 1.22519E-4
10125.000000; 1.25580E-4
10130.859375; 1.17116E-4
10136.718750; 1.07520E-4
10142.578125; 1.11708E-4
10148.437500; 1.05426E-4
10154.296875; 9.84852E-5
10160.156250; 1.04625E-4
10166.015625; 1.01626E-4
10171.875000; 1.04833E-4
10177.734375; 1.02097E-4
10183.593750; 1.02983E-4
10189.453125; 9.97440E-5
10195.312500; 1.01398E-4
10201.171875; 1.12452E-4
10207.031250; 1.11134E-4
10212.890625; 1.07267E-4
10218.750000; 9.96348E-5
10224.609375; 9.21699E-5
10230.468750; 1.05634E-4
10236.328125; 1.12030E-4
10242.187500; 1.04596E-4
10248.046875; 1.21159E-4
10253.906250; 1.19913E-4
10259.765625; 1.08523E-4
10265.625000; 9.86539E-5
10271.484375; 1.09296E-4
10277.343750; 1.11284E-4
10283.203125; 1.07260E-4
10289.062500; 1.01740E-4
10294.921875; 9.92612E-5
10300.781250; 1.12310E-4
10306.640625; 1.11793E-4
10312.500000; 1.11504E-4
10318.359375; 1.10660E-4
10324.218750; 1.18068E-4
10330.078125; 1.17662E-4
10335.937500; 1.20177E-4
10341.796875; 1.16981E-4
10347.656250; 1.03048E-4
10353.515625; 1.08940E-4
10359.375000; 1.06762E-4
10365.234375; 1.03427E-4
10371.093750; 1.13394E-4
10376.953125; 1.10415E-4
10382.812500; 1.10068E-4
10388.671875; 1.12630E-4
10394.531250; 1.16829E-4
10400.390625; 1.02115E-4
10406.250000; 1.06942E-4
10412.109375; 1.13708E-4
10417.968750; 1.03782E-4
10423.828125; 9.45237E-5
10429.687500; 1.02053E-4
10435.546875; 9.81525E-5
10441.406250; 9.97653E-5
10447.265625; 1.18389E-4
10453.125000; 1.06581E-4
10458.984375; 1.10196E-4
10464.843750; 9.72082E-5
10470.703125; 1.05544E-4
10476.562500; 1.10812E-4
10482.421875; 1.06080E-4
10488.281250; 1.03550E-4
10494.140625; 9.02545E-5
10500.000000; 1.03805E-4
10505.859375; 1.31054E-4
10511.718750; 1.12314E-4
10517.578125; 1.05712E-4
10523.437500; 9.45194E-5
10529.296875; 1.22179E-4
10535.156250; 1.26270E-4
10541.015625; 1.11807E-4
10546.875000; 1.09990E-4
10552.734375; 1.09721E-4
10558.593750; 1.06290E-4
10564.453125; 1.01241E-4
10570.312500; 1.09983E-4
10576.171875; 1.03282E-4
10582.031250; 1.02350E-4
10587.890625; 1.12680E-4
10593.750000; 1.06546E-4
10599.609375; 1.01980E-4
10605.468750; 1.06588E-4
10611.328125; 1.13950E-4
10617.187500; 1.09196E-4
10623.046875; 1.02260E-4
10628.906250; 1.23151E-4
10634.765625; 1.17932E-4
10640.625000; 1.10037E-4
10646.484375; 1.10294E-4
10652.343750; 1.11685E-4
10658.203125; 8.86747E-5
10664.062500; 9.71835E-5
10669.921875; 1.13233E-4
10675.781250; 1.16021E-4
10681.640625; 1.09737E-4
10687.500000; 1.07127E-4
10693.359375; 1.18333E-4
10699.218750; 1.00587E-4
10705.078125; 1.03321E-4
10710.937500; 1.13731E-4
10716.796875; 1.12553E-4
10722.656250; 1.00993E-4
10728.515625; 1.07642E-4
10734.375000; 1.10208E-4
10740.234375; 1.08148E-4
10746.093750; 9.63641E-5
10751.953125; 9.77608E-5
10757.812500; 1.08536E-4
10763.671875; 9.65337E-5
10769.531250; 1.01349E-4
10775.390625; 1.11441E-4
10781.250000; 1.02483E-4
10787.109375; 1.00095E-4
10792.968750; 1.00082E-4
10798.828125; 1.00665E-4
10804.687500; 9.66697E-5
10810.546875; 1.15042E-4
10816.406250; 1.10575E-4
10822.265625; 1.08305E-4
10828.125000; 1.00883E-4
10833.984375; 1.07361E-4
10839.843750; 1.12208E-4
10845.703125; 1.06029E-4
10851.562500; 1.02765E-4
10857.421875; 1.02749E-4
10863.281250; 1.09788E-4
10869.140625; 9.68639E-5
10875.000000; 9.98282E-5
10880.859375; 1.14187E-4
10886.718750; 1.05042E-4
10892.578125; 1.09976E-4
10898.437500; 1.11270E-4
10904.296875; 1.06217E-4
10910.156250; 1.11319E-4
10916.015625; 1.02052E-4
10921.875000; 9.63618E-5
10927.734375; 1.12483E-4
10933.593750; 1.11856E-4
10939.453125; 1.16874E-4
10945.312500; 1.30335E-4
10951.171875; 1.12896E-4
10957.031250; 9.87747E-5
10962.890625; 1.04114E-4
10968.750000; 1.00301E-4
10974.609375; 1.06403E-4
10980.468750; 1.17666E-4
10986.328125; 1.32190E-4
10992.187500; 1.22022E-4
10998.046875; 1.27737E-4
11003.906250; 1.19171E-4
11009.765625; 1.05280E-4
11015.625000; 1.00142E-4
11021.484375; 1.10781E-4
11027.343750; 1.08494E-4
11033.203125; 1.11158E-4
11039.062500; 1.15549E-4
11044.921875; 1.16079E-4
11050.781250; 1.04455E-4
11056.640625; 1.03503E-4
11062.500000; 1.08138E-4
11068.359375; 1.06175E-4
11074.218750; 9.40153E-5
11080.078125; 1.06994E-4
11085.937500; 1.09967E-4
11091.796875; 1.11608E-4
11097.656250; 1.20051E-4
11103.515625; 1.06033E-4
11109.375000; 9.97795E-5
11115.234375; 9.92729E-5
11121.093750; 9.89893E-5
11126.953125; 1.05843E-4
11132.812500; 1.08445E-4
11138.671875; 1.03634E-4
11144.531250; 1.12222E-4
11150.390625; 1.15398E-4
11156.250000; 1.07530E-4
11162.109375; 1.07399E-4
11167.968750; 1.06719E-4
11173.828125; 1.13709E-4
11179.687500; 1.03915E-4
11185.546875; 1.08677E-4
11191.406250; 1.03666E-4
11197.265625; 1.17862E-4
11203.125000; 1.09349E-4
11208.984375; 1.11589E-4
11214.843750; 1.20264E-4
11220.703125; 1.04278E-4
11226.562500; 9.98040E-5
11232.421875; 9.55882E-5
11238.281250; 9.44619E-5
11244.140625; 9.92272E-5
11250.000000; 1.06075E-4
11255.859375; 9.51848E-5
11261.718750; 1.13516E-4
11267.578125; 1.10598E-4
11273.437500; 9.73946E-5
11279.296875; 1.04495E-4
11285.156250; 1.09446E-4
11291.015625; 1.05310E-4
11296.875000; 1.06649E-4
11302.734375; 1.00940E-4
11308.593750; 1.06467E-4
11314.453125; 1.08498E-4
11320.312500; 1.10416E-4
11326.171875; 1.09300E-4
11332.031250; 1.05830E-4
11337.890625; 1.03639E-4
11343.750000; 9.78576E-5
11349.609375; 9.75553E-5
11355.468750; 1.14604E-4
11361.328125; 1.12139E-4
11367.187500; 1.04762E-4
11373.046875; 9.72324E-5
11378.906250; 1.05069E-4
11384.765625; 1.18021E-4
11390.625000; 1.05196E-4
11396.484375; 1.00941E-4
11402.343750; 9.49009E-5
11408.203125; 1.06638E-4
11414.062500; 1.14844E-4
11419.921875; 1.16161E-4
11425.781250; 1.16854E-4
11431.640625; 1.17871E-4
11437.500000; 1.05015E-4
11443.359375; 1.06420E-4
11449.218750; 1.07967E-4
11455.078125; 1.04646E-4
11460.937500; 9.25977E-5
11466.796875; 9.40343E-5
11472.656250; 1.14300E-4
11478.515625; 1.15253E-4
11484.375000; 1.09621E-4
11490.234375; 1.04673E-4
11496.093750; 1.07581E-4
11501.953125; 1.05285E-4
11507.812500; 1.11381E-4
11513.671875; 1.09786E-4
11519.531250; 9.86316E-5
11525.390625; 1.04913E-4
11531.250000; 9.94333E-5
11537.109375; 9.62922E-5
11542.968750; 1.04349E-4
11548.828125; 1.01204E-4
11554.687500; 9.27695E-5
11560.546875; 1.08923E-4
11566.406250; 1.11975E-4
11572.265625; 1.08732E-4
11578.125000; 1.01989E-4
11583.984375; 1.05603E-4
11589.843750; 1.10578E-4
11595.703125; 1.03262E-4
11601.562500; 9.22288E-5
11607.421875; 1.00999E-4
11613.281250; 1.00812E-4
11619.140625; 9.68892E-5
11625.000000; 9.54800E-5
11630.859375; 8.92369E-5
11636.718750; 9.99394E-5
11642.578125; 1.05209E-4
11648.437500; 1.12469E-4
11654.296875; 1.15463E-4
11660.156250; 9.67455E-5
11666.015625; 8.23915E-5
11671.875000; 8.46930E-5
11677.734375; 9.94406E-5
11683.593750; 1.10674E-4
11689.453125; 1.04855E-4
11695.312500; 9.59743E-5
11701.171875; 8.53096E-5
11707.031250; 9.98536E-5
11712.890625; 1.07086E-4
11718.750000; 1.11294E-4
11724.609375; 1.14168E-4
11730.468750; 1.14749E-4
11736.328125; 1.05926E-4
11742.187500; 1.00218E-4
11748.046875; 1.01656E-4
11753.906250; 1.10303E-4
11759.765625; 1.12613E-4
11765.625000; 1.15219E-4
11771.484375; 1.18114E-4
11777.343750; 1.11438E-4
11783.203125; 1.03143E-4
11789.062500; 1.07752E-4
11794.921875; 1.01597E-4
11800.781250; 1.06596E-4
11806.640625; 1.06867E-4
11812.500000; 1.07873E-4
11818.359375; 1.11375E-4
11824.218750; 1.00601E-4
11830.078125; 1.09237E-4
11835.937500; 1.16810E-4
11841.796875; 1.15504E-4
11847.656250; 1.00046E-4
11853.515625; 9.94384E-5
11859.375000; 8.71768E-5
11865.234375; 9.56602E-5
11871.093750; 9.85408E-5
11876.953125; 9.57818E-5
11882.812500; 1.04406E-4
11888.671875; 1.08729E-4
11894.531250; 1.03024E-4
11900.390625; 1.09622E-4
11906.250000; 1.05117E-4
11912.109375; 1.01283E-4
11917.968750; 1.06623E-4
11923.828125; 1.13976E-4
11929.687500; 1.07244E-4
11935.546875; 1.04743E-4
11941.406250; 9.97663E-5
11947.265625; 1.08001E-4
11953.125000; 1.05744E-4
11958.984375; 1.08922E-4
11964.843750; 1.14923E-4
11970.703125; 1.00841E-4
11976.562500; 1.06246E-4
11982.421875; 1.07102E-4
11988.281250; 9.24844E-5
11994.140625; 9.23983E-5
12000.000000; 1.20852E-4
12005.859375; 1.21338E-4
12011.718750; 1.19375E-4
12017.578125; 1.10194E-4
12023.437500; 1.16125E-4
12029.296875; 1.11392E-4
12035.156250; 1.09279E-4
12041.015625; 1.07924E-4
12046.875000; 1.03348E-4
12052.734375; 9.72185E-5
12058.593750; 1.02370E-4
12064.453125; 1.11699E-4
12070.312500; 9.75490E-5
12076.171875; 9.36558E-5
12082.031250; 1.00314E-4
12087.890625; 1.01591E-4
12093.750000; 9.93505E-5
12099.609375; 9.13814E-5
12105.468750; 9.69005E-5
12111.328125; 1.01802E-4
12117.187500; 9.44069E-5
12123.046875; 1.11766E-4
12128.906250; 1.06661E-4
12134.765625; 1.01841E-4
12140.625000; 1.07769E-4
12146.484375; 1.06132E-4
12152.343750; 1.10552E-4
12158.203125; 1.09804E-4
12164.062500; 1.14660E-4
12169.921875; 1.02001E-4
12175.781250; 9.53207E-5
12181.640625; 1.15588E-4
12187.500000; 1.14970E-4
12193.359375; 1.10842E-4
12199.218750; 1.14037E-4
12205.078125; 1.10000E-4
12210.937500; 1.03817E-4
12216.796875; 9.83379E-5
12222.656250; 1.08947E-4
12228.515625; 1.03483E-4
12234.375000; 1.16319E-4
12240.234375; 1.20432E-4
12246.093750; 1.14447E-4
12251.953125; 1.07048E-4
12257.812500; 1.05954E-4
12263.671875; 1.08519E-4
12269.531250; 9.94744E-5
12275.390625; 1.00253E-4
12281.250000; 1.05270E-4
12287.109375; 1.04456E-4
12292.968750; 1.11548E-4
12298.828125; 1.26140E-4
12304.687500; 1.14317E-4
12310.546875; 1.01544E-4
12316.406250; 9.46222E-5
12322.265625; 1.02111E-4
12328.125000; 1.08119E-4
12333.984375; 1.09030E-4
12339.843750; 1.04869E-4
12345.703125; 1.04495E-4
12351.562500; 1.01074E-4
12357.421875; 9.92147E-5
12363.281250; 1.06569E-4
12369.140625; 1.12289E-4
12375.000000; 1.12494E-4
12380.859375; 9.99453E-5
12386.718750; 1.00830E-4
12392.578125; 1.15127E-4
12398.437500; 1.22297E-4
12404.296875; 1.14053E-4
12410.156250; 9.83981E-5
12416.015625; 9.46288E-5
12421.875000; 1.12533E-4
12427.734375; 1.13011E-4
12433.593750; 1.12512E-4
12439.453125; 1.07347E-4
12445.312500; 1.13912E-4
12451.171875; 1.02213E-4
12457.031250; 1.12795E-4
12462.890625; 1.16147E-4
12468.750000; 1.07959E-4
12474.609375; 1.10833E-4
12480.468750; 1.13057E-4
12486.328125; 1.20028E-4
12492.187500; 1.09979E-4
12498.046875; 1.05911E-4
12503.906250; 8.97739E-5
12509.765625; 1.05030E-4
12515.625000; 1.14746E-4
12521.484375; 1.26450E-4
12527.343750; 1.17911E-4
12533.203125; 1.08169E-4
12539.062500; 1.05455E-4
12544.921875; 1.10559E-4
12550.781250; 1.13871E-4
12556.640625; 1.00267E-4
12562.500000; 1.04862E-4
12568.359375; 1.06732E-4
12574.218750; 9.97829E-5
12580.078125; 9.22766E-5
12585.937500; 1.02593E-4
12591.796875; 9.72758E-5
12597.656250; 1.01604E-4
12603.515625; 1.13445E-4
12609.375000; 1.12868E-4
12615.234375; 1.16843E-4
12621.093750; 1.11439E-4
12626.953125; 1.05023E-4
12632.812500; 1.12641E-4
12638.671875; 1.12505E-4
12644.531250; 1.05242E-4
12650.390625; 1.08379E-4
12656.250000; 1.13008E-4
12662.109375; 1.11609E-4
12667.968750; 1.04497E-4
12673.828125; 1.00383E-4
12679.687500; 1.00051E-4
12685.546875; 1.02388E-4
12691.406250; 9.89553E-5
12697.265625; 1.04925E-4
12703.125000; 1.12154E-4
12708.984375; 1.09208E-4
12714.843750; 1.08713E-4
12720.703125; 1.13783E-4
12726.562500; 1.06240E-4
12732.421875; 9.90955E-5
12738.281250; 9.62930E-5
12744.140625; 8.59498E-5
12750.000000; 9.84387E-5
12755.859375; 1.10875E-4
12761.718750; 1.04957E-4
12767.578125; 1.01163E-4
12773.437500; 9.38221E-5
12779.296875; 1.09014E-4
12785.156250; 1.02340E-4
12791.015625; 1.01933E-4
12796.875000; 9.18188E-5
12802.734375; 8.75320E-5
12808.593750; 9.70799E-5
12814.453125; 1.03989E-4
12820.312500; 1.04967E-4
12826.171875; 1.08318E-4
12832.031250; 1.05743E-4
12837.890625; 1.18879E-4
12843.750000; 1.15596E-4
12849.609375; 1.19561E-4
12855.468750; 1.11522E-4
12861.328125; 1.10743E-4
12867.187500; 1.06619E-4
12873.046875; 1.02359E-4
12878.906250; 1.14371E-4
12884.765625; 1.05288E-4
12890.625000; 1.13514E-4
12896.484375; 9.89856E-5
12902.343750; 1.03063E-4
12908.203125; 1.10783E-4
12914.062500; 1.12248E-4
12919.921875; 1.08258E-4
12925.781250; 9.36645E-5
12931.640625; 1.03013E-4
12937.500000; 1.10995E-4
12943.359375; 1.17736E-4
12949.218750; 1.18657E-4
12955.078125; 1.06364E-4
12960.937500; 9.57829E-5
12966.796875; 1.10258E-4
12972.656250; 1.23049E-4
12978.515625; 1.13159E-4
12984.375000; 1.16590E-4
12990.234375; 1.04280E-4
12996.093750; 1.07988E-4
13001.953125; 1.16499E-4
13007.812500; 1.04561E-4
13013.671875; 9.74288E-5
13019.531250; 8.61000E-5
13025.390625; 1.05625E-4
13031.250000; 1.08784E-4
13037.109375; 8.96885E-5
13042.968750; 1.00678E-4
13048.828125; 1.29130E-4
13054.687500; 1.17841E-4
13060.546875; 1.05654E-4
13066.406250; 1.14835E-4
13072.265625; 1.20161E-4
13078.125000; 1.19960E-4
13083.984375; 1.11689E-4
13089.843750; 9.72083E-5
13095.703125; 1.08367E-4
13101.562500; 1.17520E-4
13107.421875; 1.05097E-4
13113.281250; 9.36835E-5
13119.140625; 1.05486E-4
13125.000000; 1.06883E-4
13130.859375; 1.12346E-4
13136.718750; 1.01321E-4
13142.578125; 9.27045E-5
13148.437500; 1.01816E-4
13154.296875; 1.05662E-4
13160.156250; 1.05518E-4
13166.015625; 1.09505E-4
13171.875000; 1.13564E-4
13177.734375; 1.22383E-4
13183.593750; 1.20784E-4
13189.453125; 1.06980E-4
13195.312500; 1.19846E-4
13201.171875; 1.14776E-4
13207.031250; 1.13182E-4
13212.890625; 1.16704E-4
13218.750000; 1.21775E-4
13224.609375; 1.11277E-4
13230.468750; 1.08985E-4
13236.328125; 1.04707E-4
13242.187500; 1.06412E-4
13248.046875; 1.07580E-4
13253.906250; 1.07831E-4
13259.765625; 1.09876E-4
13265.625000; 1.03360E-4
13271.484375; 1.00035E-4
13277.343750; 9.70155E-5
13283.203125; 1.02385E-4
13289.062500; 9.80656E-5
13294.921875; 1.01803E-4
13300.781250; 1.01371E-4
13306.640625; 1.06387E-4
13312.500000; 1.03477E-4
13318.359375; 1.08897E-4
13324.218750; 1.07039E-4
13330.078125; 1.00160E-4
13335.937500; 1.16615E-4
13341.796875; 1.11199E-4
13347.656250; 1.01767E-4
13353.515625; 1.06230E-4
13359.375000; 1.13193E-4
13365.234375; 9.99452E-5
13371.093750; 9.60860E-5
13376.953125; 9.91102E-5
13382.812500; 9.43818E-5
13388.671875; 9.47819E-5
13394.531250; 1.00666E-4
13400.390625; 1.14340E-4
13406.250000; 1.12397E-4
13412.109375; 1.09734E-4
13417.968750; 1.05096E-4
13423.828125; 1.03482E-4
13429.687500; 1.03427E-4
13435.546875; 1.07772E-4
13441.406250; 1.02315E-4
13447.265625; 9.63319E-5
13453.125000; 9.89602E-5
13458.984375; 9.91586E-5
13464.843750; 1.15181E-4
13470.703125; 1.16588E-4
13476.562500; 1.10174E-4
13482.421875; 9.47635E-5
13488.281250; 9.76284E-5
13494.140625; 1.11495E-4
13500.000000; 1.11508E-4
13505.859375; 9.76153E-5
13511.718750; 9.55497E-5
13517.578125; 9.46763E-5
13523.437500; 1.08803E-4
13529.296875; 1.07206E-4
13535.156250; 1.09932E-4
13541.015625; 1.09940E-4
13546.875000; 9.88884E-5
13552.734375; 1.08525E-4
13558.593750; 1.18040E-4
13564.453125; 1.16163E-4
13570.312500; 1.04637E-4
13576.171875; 9.79350E-5
13582.031250; 1.03764E-4
13587.890625; 1.11191E-4
13593.750000; 1.02520E-4
13599.609375; 1.11060E-4
13605.468750; 9.64739E-5
13611.328125; 1.05384E-4
13617.187500; 1.15225E-4
13623.046875; 9.08643E-5
13628.906250; 1.00155E-4
13634.765625; 1.01866E-4
13640.625000; 1.00699E-4
13646.484375; 1.04946E-4
13652.343750; 1.01723E-4
13658.203125; 1.00025E-4
13664.062500; 1.00445E-4
13669.921875; 1.09424E-4
13675.781250; 9.91357E-5
13681.640625; 9.85797E-5
13687.500000; 1.01692E-4
13693.359375; 1.01094E-4
13699.218750; 9.43647E-5
13705.078125; 9.44084E-5
13710.937500; 9.54802E-5
13716.796875; 1.00864E-4
13722.656250; 1.11583E-4
13728.515625; 1.12165E-4
13734.375000; 1.13322E-4
13740.234375; 1.13003E-4
13746.093750; 1.11012E-4
13751.953125; 1.15133E-4
13757.812500; 1.10761E-4
13763.671875; 1.03328E-4
13769.531250; 1.11975E-4
13775.390625; 1.02434E-4
13781.250000; 1.03249E-4
13787.109375; 1.01963E-4
13792.968750; 9.53237E-5
13798.828125; 1.01922E-4
13804.687500; 1.09098E-4
13810.546875; 1.00834E-4
13816.406250; 1.09541E-4
13822.265625; 1.04482E-4
13828.125000; 9.62005E-5
13833.984375; 1.13405E-4
13839.843750; 1.12557E-4
13845.703125; 9.58260E-5
13851.562500; 1.05190E-4
13857.421875; 1.03564E-4
13863.281250; 1.00205E-4
13869.140625; 1.12207E-4
13875.000000; 1.15898E-4
13880.859375; 1.05672E-4
13886.718750; 1.01625E-4
13892.578125; 9.77651E-5
13898.437500; 9.80566E-5
13904.296875; 9.56231E-5
13910.156250; 9.29549E-5
13916.015625; 1.01759E-4
13921.875000; 1.09767E-4
13927.734375; 1.04290E-4
13933.593750; 1.11330E-4
13939.453125; 1.06212E-4
13945.312500; 1.10030E-4
13951.171875; 1.09281E-4
13957.031250; 1.13737E-4
13962.890625; 1.13872E-4
13968.750000; 1.01650E-4
13974.609375; 9.76020E-5
13980.468750; 1.20259E-4
13986.328125; 1.18196E-4
13992.187500; 1.12894E-4
13998.046875; 1.08591E-4
14003.906250; 1.02590E-4
14009.765625; 1.09898E-4
14015.625000; 1.17395E-4
14021.484375; 1.06676E-4
14027.343750; 9.55393E-5
14033.203125; 1.00846E-4
14039.062500; 1.04972E-4
14044.921875; 1.09399E-4
14050.781250; 1.09688E-4
14056.640625; 9.63603E-5
14062.500000; 1.03060E-4
14068.359375; 1.03853E-4
14074.218750; 1.03538E-4
14080.078125; 9.93391E-5
14085.937500; 1.07549E-4
14091.796875; 1.10261E-4
14097.656250; 1.12921E-4
14103.515625; 1.02395E-4
14109.375000; 1.12989E-4
14115.234375; 1.06770E-4
14121.093750; 1.01166E-4
14126.953125; 9.81456E-5
14132.812500; 9.68116E-5
14138.671875; 9.93307E-5
14144.531250; 9.78367E-5
14150.390625; 1.03686E-4
14156.250000; 1.01303E-4
14162.109375; 1.00373E-4
14167.968750; 9.88477E-5
14173.828125; 1.08789E-4
14179.687500; 1.10068E-4
14185.546875; 1.15508E-4
14191.406250; 1.09838E-4
14197.265625; 1.06465E-4
14203.125000; 1.00331E-4
14208.984375; 1.11942E-4
14214.843750; 1.08267E-4
14220.703125; 1.20655E-4
14226.562500; 1.16550E-4
14232.421875; 1.05177E-4
14238.281250; 1.09925E-4
14244.140625; 1.14858E-4
14250.000000; 1.06586E-4
14255.859375; 1.08380E-4
14261.718750; 1.03933E-4
14267.578125; 9.62949E-5
14273.437500; 1.13144E-4
14279.296875; 1.10449E-4
14285.156250; 1.14030E-4
14291.015625; 1.11217E-4
14296.875000; 1.04238E-4
14302.734375; 9.67616E-5
14308.593750; 9.82369E-5
14314.453125; 1.13528E-4
14320.312500; 1.15570E-4
14326.171875; 1.12146E-4
14332.031250; 1.06170E-4
14337.890625; 1.03284E-4
14343.750000; 9.64778E-5
14349.609375; 9.49732E-5
14355.468750; 1.05834E-4
14361.328125; 1.06073E-4
14367.187500; 9.57885E-5
14373.046875; 1.07531E-4
14378.906250; 1.15420E-4
14384.765625; 1.11749E-4
14390.625000; 1.09189E-4
14396.484375; 1.06715E-4
14402.343750; 9.62533E-5
14408.203125; 9.63806E-5
14414.062500; 9.60663E-5
14419.921875; 9.16294E-5
14425.781250; 1.04545E-4
14431.640625; 1.18585E-4
14437.500000; 1.12724E-4
14443.359375; 1.10311E-4
14449.218750; 1.04471E-4
14455.078125; 8.69544E-5
14460.937500; 9.42270E-5
14466.796875; 9.77876E-5
14472.656250; 1.06790E-4
14478.515625; 1.10935E-4
14484.375000; 1.05187E-4
14490.234375; 1.01724E-4
14496.093750; 1.00050E-4
14501.953125; 1.04892E-4
14507.812500; 1.11514E-4
14513.671875; 9.72294E-5
14519.531250; 1.08789E-4
14525.390625; 1.19219E-4
14531.250000; 1.06818E-4
14537.109375; 1.03940E-4
14542.968750; 1.05722E-4
14548.828125; 1.14664E-4
14554.687500; 1.06927E-4
14560.546875; 1.04584E-4
14566.406250; 8.72383E-5
14572.265625; 9.19039E-5
14578.125000; 1.13699E-4
14583.984375; 1.14444E-4
14589.843750; 9.55979E-5
14595.703125; 9.55435E-5
14601.562500; 9.64607E-5
14607.421875; 1.12605E-4
14613.281250; 1.19682E-4
14619.140625; 1.16390E-4
14625.000000; 1.13350E-4
14630.859375; 1.10732E-4
14636.718750; 1.25903E-4
14642.578125; 1.29387E-4
14648.437500; 1.13784E-4
14654.296875; 1.06725E-4
14660.156250; 9.06732E-5
14666.015625; 9.60235E-5
14671.875000; 1.07165E-4
14677.734375; 1.04978E-4
14683.593750; 8.89186E-5
14689.453125; 9.14917E-5
14695.312500; 1.09439E-4
14701.171875; 1.14355E-4
14707.031250; 1.08169E-4
14712.890625; 9.96733E-5
14718.750000; 1.14111E-4
14724.609375; 1.23728E-4
14730.468750; 1.04541E-4
14736.328125; 9.97191E-5
14742.187500; 1.10633E-4
14748.046875; 1.13223E-4
14753.906250; 1.03650E-4
14759.765625; 1.04772E-4
14765.625000; 1.02659E-4
14771.484375; 1.12374E-4
14777.343750; 1.03121E-4
14783.203125; 1.10281E-4
14789.062500; 1.13253E-4
14794.921875; 1.01616E-4
14800.781250; 9.64971E-5
14806.640625; 1.08174E-4
14812.500000; 1.05964E-4
14818.359375; 9.31538E-5
14824.218750; 9.58546E-5
14830.078125; 9.74299E-5
14835.937500; 1.02250E-4
14841.796875; 1.11311E-4
14847.656250; 1.14590E-4
14853.515625; 1.07483E-4
14859.375000; 1.02469E-4
14865.234375; 1.04365E-4
14871.093750; 1.01650E-4
14876.953125; 9.63056E-5
14882.812500; 9.33305E-5
14888.671875; 9.77784E-5
14894.531250; 9.81250E-5
14900.390625; 1.07334E-4
14906.250000; 9.93894E-5
14912.109375; 1.00300E-4
14917.968750; 9.92938E-5
14923.828125; 1.00396E-4
14929.687500; 9.38079E-5
14935.546875; 1.03645E-4
14941.406250; 1.15849E-4
14947.265625; 1.14399E-4
14953.125000; 9.52298E-5
14958.984375; 9.98039E-5
14964.843750; 1.07254E-4
14970.703125; 1.03554E-4
14976.562500; 1.09387E-4
14982.421875; 1.08667E-4
14988.281250; 1.06160E-4
14994.140625; 9.36055E-5
15000.000000; 1.00421E-4
15005.859375; 1.10591E-4
15011.718750; 1.01050E-4
15017.578125; 9.21024E-5
15023.437500; 9.46695E-5
15029.296875; 1.01766E-4
15035.156250; 1.07526E-4
15041.015625; 1.01027E-4
15046.875000; 9.33667E-5
15052.734375; 1.09236E-4
15058.593750; 1.06842E-4
15064.453125; 1.01216E-4
15070.312500; 9.96841E-5
15076.171875; 9.40758E-5
15082.031250; 9.32561E-5
15087.890625; 9.79632E-5
15093.750000; 1.01007E-4
15099.609375; 1.00341E-4
15105.468750; 9.99506E-5
15111.328125; 1.00695E-4
15117.187500; 1.11722E-4
15123.046875; 1.00607E-4
15128.906250; 9.46894E-5
15134.765625; 1.03057E-4
15140.625000; 9.94587E-5
15146.484375; 1.04270E-4
15152.343750; 1.02210E-4
15158.203125; 1.06294E-4
15164.062500; 1.04047E-4
15169.921875; 9.71353E-5
15175.781250; 1.02764E-4
15181.640625; 1.10015E-4
15187.500000; 1.04969E-4
15193.359375; 1.01718E-4
15199.218750; 1.01613E-4
15205.078125; 1.13308E-4
15210.937500; 1.06386E-4
15216.796875; 9.35124E-5
15222.656250; 9.25872E-5
15228.515625; 9.59810E-5
15234.375000; 1.02109E-4
15240.234375; 1.04228E-4
15246.093750; 1.02813E-4
15251.953125; 9.85964E-5
15257.812500; 1.09529E-4
15263.671875; 1.11465E-4
15269.531250; 1.07910E-4
15275.390625; 1.01508E-4
15281.250000; 1.02232E-4
15287.109375; 1.06884E-4
15292.968750; 1.10469E-4
15298.828125; 1.08078E-4
15304.687500; 1.08312E-4
15310.546875; 1.09423E-4
15316.406250; 1.09906E-4
15322.265625; 1.08183E-4
15328.125000; 1.16940E-4
15333.984375; 1.02825E-4
15339.843750; 9.43932E-5
15345.703125; 9.85876E-5
15351.562500; 1.09982E-4
15357.421875; 9.82336E-5
15363.281250; 1.01469E-4
15369.140625; 1.03161E-4
15375.000000; 1.11961E-4
15380.859375; 1.08115E-4
15386.718750; 1.07137E-4
15392.578125; 1.03043E-4
15398.437500; 1.11490E-4
15404.296875; 1.08951E-4
15410.156250; 9.92017E-5
15416.015625; 9.74239E-5
15421.875000; 1.06266E-4
15427.734375; 1.05048E-4
15433.593750; 1.15590E-4
15439.453125; 1.12879E-4
15445.312500; 1.01701E-4
15451.171875; 9.55206E-5
15457.031250; 1.05918E-4
15462.890625; 9.60886E-5
15468.750000; 1.02530E-4
15474.609375; 1.06993E-4
15480.468750; 1.02471E-4
15486.328125; 1.04818E-4
15492.187500; 1.20851E-4
15498.046875; 1.20033E-4
15503.906250; 1.18164E-4
15509.765625; 1.04713E-4
15515.625000; 9.32742E-5
15521.484375; 1.15296E-4
15527.343750; 1.11577E-4
15533.203125; 1.05454E-4
15539.062500; 1.10770E-4
15544.921875; 1.05351E-4
15550.781250; 1.07997E-4
15556.640625; 9.55742E-5
15562.500000; 1.05227E-4
15568.359375; 1.00798E-4
15574.218750; 1.10284E-4
15580.078125; 1.18421E-4
15585.937500; 1.05792E-4
15591.796875; 8.97817E-5
15597.656250; 1.06187E-4
15603.515625; 1.07752E-4
15609.375000; 9.76822E-5
15615.234375; 9.74306E-5
15621.093750; 9.63236E-5
15626.953125; 1.07902E-4
15632.812500; 1.06252E-4
15638.671875; 9.05298E-5
15644.531250; 9.13747E-5
15650.390625; 1.06732E-4
15656.250000; 1.08897E-4
15662.109375; 9.96511E-5
15667.968750; 1.02930E-4
15673.828125; 9.59117E-5
15679.687500; 9.78698E-5
15685.546875; 1.04293E-4
15691.406250; 1.05343E-4
15697.265625; 1.11716E-4
15703.125000; 1.02816E-4
15708.984375; 9.73806E-5
15714.843750; 1.03135E-4
15720.703125; 1.01381E-4
15726.562500; 1.04559E-4
15732.421875; 9.34510E-5
15738.281250; 9.79290E-5
15744.140625; 9.77829E-5
15750.000000; 9.41886E-5
15755.859375; 9.71636E-5
15761.718750; 9.79075E-5
15767.578125; 1.07680E-4
15773.437500; 1.10838E-4
15779.296875; 1.01882E-4
15785.156250; 9.47380E-5
15791.015625; 8.74380E-5
15796.875000; 1.06403E-4
15802.734375; 1.09014E-4
15808.593750; 1.20539E-4
15814.453125; 1.20985E-4
15820.312500; 1.03891E-4
15826.171875; 1.10577E-4
15832.031250; 1.06774E-4
15837.890625; 9.85687E-5
15843.750000; 1.04969E-4
15849.609375; 1.03613E-4
15855.468750; 1.05549E-4
15861.328125; 1.06099E-4
15867.187500; 1.13052E-4
15873.046875; 1.17074E-4
15878.906250; 1.07860E-4
15884.765625; 9.59123E-5
15890.625000; 1.05284E-4
15896.484375; 9.71630E-5
15902.343750; 9.79119E-5
15908.203125; 1.08688E-4
15914.062500; 1.03389E-4
15919.921875; 1.06320E-4
15925.781250; 1.10072E-4
15931.640625; 1.04484E-4
15937.500000; 1.03348E-4
15943.359375; 1.00798E-4
15949.218750; 1.01567E-4
15955.078125; 1.07977E-4
15960.937500; 1.02408E-4
15966.796875; 1.06648E-4
15972.656250; 1.22915E-4
15978.515625; 1.17829E-4
15984.375000; 1.03175E-4
15990.234375; 1.04028E-4
15996.093750; 1.06629E-4
16001.953125; 1.06402E-4
16007.812500; 1.05532E-4
16013.671875; 1.00331E-4
16019.531250; 9.41918E-5
16025.390625; 1.02391E-4
16031.250000; 1.05130E-4
16037.109375; 1.12423E-4
16042.968750; 1.02732E-4
16048.828125; 9.57416E-5
16054.687500; 9.62459E-5
16060.546875; 9.92958E-5
16066.406250; 1.07977E-4
16072.265625; 1.06766E-4
16078.125000; 9.70494E-5
16083.984375; 9.98837E-5
16089.843750; 1.11686E-4
16095.703125; 1.01389E-4
16101.562500; 9.71183E-5
16107.421875; 9.72268E-5
16113.281250; 9.80452E-5
16119.140625; 9.93314E-5
16125.000000; 1.03698E-4
16130.859375; 1.09586E-4
16136.718750; 1.08415E-4
16142.578125; 1.16210E-4
16148.437500; 1.04737E-4
16154.296875; 1.07362E-4
16160.156250; 1.16241E-4
16166.015625; 1.08702E-4
16171.875000; 1.09402E-4
16177.734375; 1.06702E-4
16183.593750; 1.06185E-4
16189.453125; 1.07131E-4
16195.312500; 1.12441E-4
16201.171875; 1.10997E-4
16207.031250; 1.01851E-4
16212.890625; 9.27198E-5
16218.750000; 9.29613E-5
16224.609375; 9.97786E-5
16230.468750; 1.03382E-4
16236.328125; 1.06705E-4
16242.187500; 1.15137E-4
16248.046875; 1.13117E-4
16253.906250; 1.08829E-4
16259.765625; 1.16113E-4
16265.625000; 1.16085E-4
16271.484375; 1.16058E-4
16277.343750; 1.12542E-4
16283.203125; 1.07428E-4
16289.062500; 1.10821E-4
16294.921875; 1.03894E-4
16300.781250; 1.06105E-4
16306.640625; 1.08844E-4
16312.500000; 1.20511E-4
16318.359375; 1.19689E-4
16324.218750; 1.20156E-4
16330.078125; 1.16325E-4
16335.937500; 1.12819E-4
16341.796875; 1.06153E-4
16347.656250; 9.91020E-5
16353.515625; 9.90073E-5
16359.375000; 1.02988E-4
16365.234375; 9.84539E-5
16371.093750; 9.79969E-5
16376.953125; 9.81177E-5
16382.812500; 1.05288E-4
16388.671875; 1.04358E-4
16394.531250; 9.88004E-5
16400.390625; 1.08869E-4
16406.250000; 1.13326E-4
16412.109375; 1.19832E-4
16417.968750; 1.09808E-4
16423.828125; 1.04960E-4
16429.687500; 1.06191E-4
16435.546875; 1.01110E-4
16441.406250; 1.02841E-4
16447.265625; 1.11752E-4
16453.125000; 1.02296E-4
16458.984375; 9.88688E-5
16464.843750; 1.04500E-4
16470.703125; 1.17484E-4
16476.562500; 1.11614E-4
16482.421875; 1.09616E-4
16488.281250; 1.11082E-4
16494.140625; 1.01711E-4
16500.000000; 1.02269E-4
16505.859375; 9.84439E-5
16511.718750; 1.02473E-4
16517.578125; 1.02160E-4
16523.437500; 1.12362E-4
16529.296875; 1.12520E-4
16535.156250; 1.04415E-4
16541.015625; 9.72202E-5
16546.875000; 9.02513E-5
16552.734375; 1.03440E-4
16558.593750; 1.19237E-4
16564.453125; 1.17331E-4
16570.312500; 9.80042E-5
16576.171875; 9.70545E-5
16582.031250; 1.09225E-4
16587.890625; 1.04691E-4
16593.750000; 1.11176E-4
16599.609375; 1.05414E-4
16605.468750; 1.09529E-4
16611.328125; 1.02598E-4
16617.187500; 1.04254E-4
16623.046875; 1.19197E-4
16628.906250; 1.15611E-4
16634.765625; 1.06060E-4
16640.625000; 1.07927E-4
16646.484375; 1.22977E-4
16652.343750; 1.05250E-4
16658.203125; 1.00885E-4
16664.062500; 1.06638E-4
16669.921875; 9.62670E-5
16675.781250; 8.71904E-5
16681.640625; 1.01987E-4
16687.500000; 1.07627E-4
16693.359375; 1.01296E-4
16699.218750; 1.09412E-4
16705.078125; 1.06745E-4
16710.937500; 1.01769E-4
16716.796875; 1.00962E-4
16722.656250; 9.63356E-5
16728.515625; 9.56692E-5
16734.375000; 9.24312E-5
16740.234375; 9.41008E-5
16746.093750; 9.19488E-5
16751.953125; 1.09632E-4
16757.812500; 1.02453E-4
16763.671875; 9.79637E-5
16769.531250; 1.00250E-4
16775.390625; 9.32935E-5
16781.250000; 9.82820E-5
16787.109375; 9.51944E-5
16792.968750; 1.01517E-4
16798.828125; 1.13255E-4
16804.687500; 1.06586E-4
16810.546875; 1.05401E-4
16816.406250; 1.06957E-4
16822.265625; 1.03804E-4
16828.125000; 1.11938E-4
16833.984375; 1.16202E-4
16839.843750; 1.13085E-4
16845.703125; 1.17685E-4
16851.562500; 1.07650E-4
16857.421875; 1.12257E-4
16863.281250; 1.08777E-4
16869.140625; 1.09420E-4
16875.000000; 1.03384E-4
16880.859375; 1.02017E-4
16886.718750; 1.09358E-4
16892.578125; 1.14245E-4
16898.437500; 1.09893E-4
16904.296875; 1.13359E-4
16910.156250; 1.12547E-4
16916.015625; 1.18662E-4
16921.875000; 1.04454E-4
16927.734375; 1.07221E-4
16933.593750; 1.01405E-4
16939.453125; 8.81323E-5
16945.312500; 1.05876E-4
16951.171875; 1.16967E-4
16957.031250; 1.13039E-4
16962.890625; 1.12558E-4
16968.750000; 1.03742E-4
16974.609375; 9.52000E-5
16980.468750; 1.05759E-4
16986.328125; 1.11758E-4
16992.187500; 1.11659E-4
16998.046875; 1.13570E-4
17003.906250; 1.11821E-4
17009.765625; 1.09777E-4
17015.625000; 1.15154E-4
17021.484375; 1.08532E-4
17027.343750; 1.02096E-4
17033.203125; 1.10816E-4
17039.062500; 1.12881E-4
17044.921875; 1.12809E-4
17050.781250; 1.08895E-4
17056.640625; 1.09670E-4
17062.500000; 1.08193E-4
17068.359375; 1.00708E-4
17074.218750; 1.06207E-4
17080.078125; 1.14995E-4
17085.937500; 1.03867E-4
17091.796875; 9.98385E-5
17097.656250; 1.05874E-4
17103.515625; 1.07275E-4
17109.375000; 1.05438E-4
17115.234375; 8.96012E-5
17121.093750; 7.66601E-5
17126.953125; 9.50357E-5
17132.812500; 9.80216E-5
17138.671875; 1.06870E-4
17144.531250; 1.10823E-4
17150.390625; 1.12540E-4
17156.250000; 9.81495E-5
17162.109375; 9.88807E-5
17167.968750; 9.78409E-5
17173.828125; 9.86235E-5
17179.687500; 1.05665E-4
17185.546875; 1.08628E-4
17191.406250; 1.05776E-4
17197.265625; 1.09162E-4
17203.125000; 1.06323E-4
17208.984375; 1.02099E-4
17214.843750; 1.14794E-4
17220.703125; 1.09236E-4
17226.562500; 1.07006E-4
17232.421875; 1.01841E-4
17238.281250; 9.27773E-5
17244.140625; 9.32782E-5
17250.000000; 1.14249E-4
17255.859375; 1.10363E-4
17261.718750; 1.00385E-4
17267.578125; 1.09909E-4
17273.437500; 1.09889E-4
17279.296875; 9.15931E-5
17285.156250; 8.95601E-5
17291.015625; 1.13904E-4
17296.875000; 1.11526E-4
17302.734375; 1.10666E-4
17308.593750; 1.04903E-4
17314.453125; 1.10780E-4
17320.312500; 1.11657E-4
17326.171875; 1.14205E-4
17332.031250; 1.09821E-4
17337.890625; 1.07377E-4
17343.750000; 1.03620E-4
17349.609375; 9.91304E-5
17355.468750; 1.08669E-4
17361.328125; 9.99243E-5
17367.187500; 1.00355E-4
17373.046875; 9.60474E-5
17378.906250; 1.10069E-4
17384.765625; 1.05348E-4
17390.625000; 1.10783E-4
17396.484375; 9.88396E-5
17402.343750; 1.15714E-4
17408.203125; 1.13288E-4
17414.062500; 9.81320E-5
17419.921875; 9.44992E-5
17425.781250; 9.16727E-5
17431.640625; 9.94317E-5
17437.500000; 1.06265E-4
17443.359375; 1.04934E-4
17449.218750; 9.63876E-5
17455.078125; 1.10940E-4
17460.937500; 1.10148E-4
17466.796875; 8.71457E-5
17472.656250; 9.68543E-5
17478.515625; 9.43462E-5
17484.375000; 8.99395E-5
17490.234375; 1.00582E-4
17496.093750; 1.03645E-4
17501.953125; 1.00765E-4
17507.812500; 9.93074E-5
17513.671875; 1.04468E-4
17519.531250; 1.16546E-4
17525.390625; 1.15745E-4
17531.250000; 1.09008E-4
17537.109375; 1.23192E-4
17542.968750; 1.15955E-4
17548.828125; 1.04805E-4
17554.687500; 1.00359E-4
17560.546875; 8.63120E-5
17566.406250; 9.48334E-5
17572.265625; 9.97694E-5
17578.125000; 9.31076E-5
17583.984375; 1.14278E-4
17589.843750; 1.15892E-4
17595.703125; 1.12474E-4
17601.562500; 1.03079E-4
17607.421875; 9.67476E-5
17613.281250; 1.00250E-4
17619.140625; 9.60481E-5
17625.000000; 1.11017E-4
17630.859375; 1.05645E-4
17636.718750; 1.11237E-4
17642.578125; 1.13471E-4
17648.437500; 1.02727E-4
17654.296875; 9.79425E-5
17660.156250; 9.34271E-5
17666.015625; 9.74016E-5
17671.875000; 1.02500E-4
17677.734375; 9.94657E-5
17683.593750; 9.14905E-5
17689.453125; 8.99966E-5
17695.312500; 9.85777E-5
17701.171875; 1.06696E-4
17707.031250; 9.53738E-5
17712.890625; 9.42331E-5
17718.750000; 1.02230E-4
17724.609375; 1.02266E-4
17730.468750; 1.02018E-4
17736.328125; 1.12781E-4
17742.187500; 1.10654E-4
17748.046875; 1.05544E-4
17753.906250; 1.02978E-4
17759.765625; 1.09139E-4
17765.625000; 1.05530E-4
17771.484375; 1.11251E-4
17777.343750; 1.07143E-4
17783.203125; 1.13893E-4
17789.062500; 1.00829E-4
17794.921875; 9.99628E-5
17800.781250; 1.12916E-4
17806.640625; 1.05152E-4
17812.500000; 9.33752E-5
17818.359375; 9.55386E-5
17824.218750; 8.92846E-5
17830.078125; 1.01615E-4
17835.937500; 1.12849E-4
17841.796875; 1.05202E-4
17847.656250; 1.06141E-4
17853.515625; 1.04462E-4
17859.375000; 9.84898E-5
17865.234375; 9.46184E-5
17871.093750; 1.00690E-4
17876.953125; 9.84115E-5
17882.812500; 1.02482E-4
17888.671875; 1.02544E-4
17894.531250; 1.00824E-4
17900.390625; 9.85348E-5
17906.250000; 1.00313E-4
17912.109375; 1.01303E-4
17917.968750; 9.51335E-5
17923.828125; 1.00189E-4
17929.687500; 1.07067E-4
17935.546875; 1.11826E-4
17941.406250; 1.10989E-4
17947.265625; 1.00118E-4
17953.125000; 1.12071E-4
17958.984375; 1.20288E-4
17964.843750; 1.22795E-4
17970.703125; 1.12620E-4
17976.562500; 1.04262E-4
17982.421875; 1.09278E-4
17988.281250; 1.02171E-4
17994.140625; 1.11353E-4
18000.000000; 1.16325E-4
18005.859375; 1.07771E-4
18011.718750; 1.14783E-4
18017.578125; 1.23228E-4
18023.437500; 1.11025E-4
18029.296875; 1.06936E-4
18035.156250; 1.15227E-4
18041.015625; 1.25004E-4
18046.875000; 9.40108E-5
18052.734375; 9.31631E-5
18058.593750; 9.72019E-5
18064.453125; 9.08479E-5
18070.312500; 1.06108E-4
18076.171875; 1.06875E-4
18082.031250; 1.02490E-4
18087.890625; 1.03846E-4
18093.750000; 1.04285E-4
18099.609375; 1.07316E-4
18105.468750; 1.13655E-4
18111.328125; 1.14834E-4
18117.187500; 1.07319E-4
18123.046875; 9.67480E-5
18128.906250; 9.10950E-5
18134.765625; 1.00303E-4
18140.625000; 1.12476E-4
18146.484375; 1.16626E-4
18152.343750; 9.67204E-5
18158.203125; 1.10096E-4
18164.062500; 1.11662E-4
18169.921875; 1.17174E-4
18175.781250; 1.19242E-4
18181.640625; 1.20756E-4
18187.500000; 1.13207E-4
18193.359375; 1.09233E-4
18199.218750; 1.19539E-4
18205.078125; 1.08531E-4
18210.937500; 9.59886E-5
18216.796875; 9.29554E-5
18222.656250; 1.10624E-4
18228.515625; 1.06731E-4
18234.375000; 9.52177E-5
18240.234375; 8.69479E-5
18246.093750; 1.04275E-4
18251.953125; 1.10244E-4
18257.812500; 1.16713E-4
18263.671875; 1.15694E-4
18269.531250; 1.14564E-4
18275.390625; 1.04640E-4
18281.250000; 9.09628E-5
18287.109375; 9.84427E-5
18292.968750; 1.12564E-4
18298.828125; 1.17945E-4
18304.687500; 1.14302E-4
18310.546875; 1.10892E-4
18316.406250; 1.01935E-4
18322.265625; 9.70740E-5
18328.125000; 8.81046E-5
18333.984375; 1.15960E-4
18339.843750; 1.24451E-4
18345.703125; 1.12458E-4
18351.562500; 1.00798E-4
18357.421875; 1.01824E-4
18363.281250; 1.09587E-4
18369.140625; 1.22576E-4
18375.000000; 1.01666E-4
18380.859375; 8.98875E-5
18386.718750; 9.98407E-5
18392.578125; 1.04505E-4
18398.437500; 1.08801E-4
18404.296875; 9.87828E-5
18410.156250; 1.02303E-4
18416.015625; 1.04369E-4
18421.875000; 1.02157E-4
18427.734375; 1.01661E-4
18433.593750; 1.02523E-4
18439.453125; 1.08557E-4
18445.312500; 1.17228E-4
18451.171875; 1.09831E-4
18457.031250; 1.06318E-4
18462.890625; 1.08276E-4
18468.750000; 1.02003E-4
18474.609375; 1.12733E-4
18480.468750; 1.12216E-4
18486.328125; 1.06983E-4
18492.187500; 9.78441E-5
18498.046875; 1.01341E-4
18503.906250; 9.89995E-5
18509.765625; 8.95973E-5
18515.625000; 9.98390E-5
18521.484375; 1.21471E-4
18527.343750; 1.12663E-4
18533.203125; 9.29955E-5
18539.062500; 9.02218E-5
18544.921875; 9.58146E-5
18550.781250; 1.05687E-4
18556.640625; 1.01698E-4
18562.500000; 9.05849E-5
18568.359375; 9.31465E-5
18574.218750; 1.00411E-4
18580.078125; 1.00461E-4
18585.937500; 1.10681E-4
18591.796875; 9.85378E-5
18597.656250; 1.13776E-4
18603.515625; 1.21629E-4
18609.375000; 1.10744E-4
18615.234375; 8.83972E-5
18621.093750; 8.77274E-5
18626.953125; 9.04743E-5
18632.812500; 9.44976E-5
18638.671875; 9.78737E-5
18644.531250; 1.07438E-4
18650.390625; 1.01989E-4
18656.250000; 9.67618E-5
18662.109375; 9.87487E-5
18667.968750; 1.01231E-4
18673.828125; 1.10466E-4
18679.687500; 9.83330E-5
18685.546875; 1.03426E-4
18691.406250; 1.12671E-4
18697.265625; 1.01736E-4
18703.125000; 1.14341E-4
18708.984375; 1.19931E-4
18714.843750; 1.05490E-4
18720.703125; 1.11338E-4
18726.562500; 9.71654E-5
18732.421875; 8.59984E-5
18738.281250; 9.35577E-5
18744.140625; 1.04563E-4
18750.000000; 1.04266E-4
18755.859375; 1.15602E-4
18761.718750; 1.23654E-4
18767.578125; 1.12325E-4
18773.437500; 9.49203E-5
18779.296875; 1.01924E-4
18785.156250; 9.62981E-5
18791.015625; 1.02605E-4
18796.875000; 9.83234E-5
18802.734375; 1.13645E-4
18808.593750; 1.00578E-4
18814.453125; 9.63029E-5
18820.312500; 1.11473E-4
18826.171875; 1.12192E-4
18832.031250; 9.97242E-5
18837.890625; 1.08635E-4
18843.750000; 1.20977E-4
18849.609375; 1.08353E-4
18855.468750; 1.01815E-4
18861.328125; 1.11397E-4
18867.187500; 1.07088E-4
18873.046875; 9.93949E-5
18878.906250; 1.01227E-4
18884.765625; 1.09219E-4
18890.625000; 1.04877E-4
18896.484375; 9.25755E-5
18902.343750; 9.36685E-5
18908.203125; 9.79837E-5
18914.062500; 9.62393E-5
18919.921875; 8.75541E-5
18925.781250; 9.90355E-5
18931.640625; 1.11752E-4
18937.500000; 1.10443E-4
18943.359375; 1.14067E-4
18949.218750; 1.05395E-4
18955.078125; 1.09548E-4
18960.937500; 1.10325E-4
18966.796875; 1.04144E-4
18972.656250; 1.05498E-4
18978.515625; 1.08544E-4
18984.375000; 1.08879E-4
18990.234375; 1.04571E-4
18996.093750; 1.12372E-4
19001.953125; 1.07049E-4
19007.812500; 1.03918E-4
19013.671875; 1.07181E-4
19019.531250; 1.17268E-4
19025.390625; 1.10458E-4
19031.250000; 1.04217E-4
19037.109375; 1.08938E-4
19042.968750; 1.05241E-4
19048.828125; 1.06204E-4
19054.687500; 8.57688E-5
19060.546875; 9.53210E-5
19066.406250; 1.01013E-4
19072.265625; 1.01022E-4
19078.125000; 9.45240E-5
19083.984375; 1.03955E-4
19089.843750; 1.07089E-4
19095.703125; 1.08217E-4
19101.562500; 1.04383E-4
19107.421875; 1.00076E-4
19113.281250; 9.38386E-5
19119.140625; 9.92373E-5
19125.000000; 1.06982E-4
19130.859375; 1.20084E-4
19136.718750; 1.03102E-4
19142.578125; 9.21774E-5
19148.437500; 8.98577E-5
19154.296875; 1.05743E-4
19160.156250; 1.12390E-4
19166.015625; 1.14167E-4
19171.875000; 1.10214E-4
19177.734375; 9.40058E-5
19183.593750; 1.16205E-4
19189.453125; 1.09288E-4
19195.312500; 9.67409E-5
19201.171875; 9.73944E-5
19207.031250; 1.05654E-4
19212.890625; 1.07673E-4
19218.750000; 1.00464E-4
19224.609375; 9.76469E-5
19230.468750; 1.00535E-4
19236.328125; 1.00296E-4
19242.187500; 1.00245E-4
19248.046875; 1.07342E-4
19253.906250; 1.00716E-4
19259.765625; 1.07077E-4
19265.625000; 1.06425E-4
19271.484375; 1.06949E-4
19277.343750; 9.95598E-5
19283.203125; 9.52786E-5
19289.062500; 9.79560E-5
19294.921875; 1.03563E-4
19300.781250; 1.03668E-4
19306.640625; 1.06898E-4
19312.500000; 1.04098E-4
19318.359375; 1.11494E-4
19324.218750; 1.04997E-4
19330.078125; 1.03108E-4
19335.937500; 1.09224E-4
19341.796875; 1.11669E-4
19347.656250; 8.80736E-5
19353.515625; 1.04641E-4
19359.375000; 1.09643E-4
19365.234375; 1.07973E-4
19371.093750; 9.83097E-5
19376.953125; 9.22919E-5
19382.812500; 9.25535E-5
19388.671875; 9.74331E-5
19394.531250; 9.90517E-5
19400.390625; 1.05878E-4
19406.250000; 1.08015E-4
19412.109375; 1.10165E-4
19417.968750; 1.08890E-4
19423.828125; 1.03934E-4
19429.687500; 1.00293E-4
19435.546875; 1.08544E-4
19441.406250; 1.09275E-4
19447.265625; 1.03929E-4
19453.125000; 9.60962E-5
19458.984375; 9.01018E-5
19464.843750; 9.01256E-5
19470.703125; 1.09036E-4
19476.562500; 1.04498E-4
19482.421875; 1.10622E-4
19488.281250; 1.14097E-4
19494.140625; 1.02908E-4
19500.000000; 1.09060E-4
19505.859375; 1.14018E-4
19511.718750; 1.08169E-4
19517.578125; 1.16536E-4
19523.437500; 1.04667E-4
19529.296875; 9.21657E-5
19535.156250; 9.56131E-5
19541.015625; 9.41224E-5
19546.875000; 9.49777E-5
19552.734375; 1.08477E-4
19558.593750; 1.04139E-4
19564.453125; 9.89029E-5
19570.312500; 9.85376E-5
19576.171875; 1.08138E-4
19582.031250; 9.87532E-5
19587.890625; 8.14382E-5
19593.750000; 9.08553E-5
19599.609375; 1.07794E-4
19605.468750; 1.10188E-4
19611.328125; 1.05954E-4
19617.187500; 1.00768E-4
19623.046875; 1.04340E-4
19628.906250; 1.02492E-4
19634.765625; 1.11087E-4
19640.625000; 1.13685E-4
19646.484375; 1.05846E-4
19652.343750; 9.68985E-5
19658.203125; 9.88681E-5
19664.062500; 1.04934E-4
19669.921875; 1.04725E-4
19675.781250; 1.01717E-4
19681.640625; 1.00552E-4
19687.500000; 9.73481E-5
19693.359375; 1.05762E-4
19699.218750; 1.08973E-4
19705.078125; 1.06208E-4
19710.937500; 1.12128E-4
19716.796875; 1.14061E-4
19722.656250; 1.01989E-4
19728.515625; 9.04693E-5
19734.375000; 9.67680E-5
19740.234375; 9.79815E-5
19746.093750; 1.02469E-4
19751.953125; 1.01780E-4
19757.812500; 9.47212E-5
19763.671875; 9.29290E-5
19769.531250; 1.07454E-4
19775.390625; 1.07410E-4
19781.250000; 1.11066E-4
19787.109375; 1.13575E-4
19792.968750; 1.04269E-4
19798.828125; 1.07957E-4
19804.687500; 1.14806E-4
19810.546875; 1.07258E-4
19816.406250; 1.06944E-4
19822.265625; 1.02879E-4
19828.125000; 9.82057E-5
19833.984375; 1.00303E-4
19839.843750; 1.03360E-4
19845.703125; 9.35577E-5
19851.562500; 9.48863E-5
19857.421875; 9.88677E-5
19863.281250; 1.05547E-4
19869.140625; 1.00507E-4
19875.000000; 9.37233E-5
19880.859375; 9.44370E-5
19886.718750; 9.63383E-5
19892.578125; 1.03745E-4
19898.437500; 1.02000E-4
19904.296875; 9.80280E-5
19910.156250; 1.02832E-4
19916.015625; 1.12052E-4
19921.875000; 1.13561E-4
19927.734375; 1.08372E-4
19933.593750; 1.10716E-4
19939.453125; 1.13483E-4
19945.312500; 1.10653E-4
19951.171875; 1.05192E-4
19957.031250; 1.14876E-4
19962.890625; 1.20219E-4
19968.750000; 1.05046E-4
19974.609375; 1.05167E-4
19980.468750; 9.86646E-5
19986.328125; 1.05246E-4
19992.187500; 1.04883E-4
19998.046875; 9.44249E-5
20003.906250; 9.40313E-5
20009.765625; 9.79505E-5
20015.625000; 1.04276E-4
20021.484375; 9.76226E-5
20027.343750; 1.03443E-4
20033.203125; 1.08611E-4
20039.062500; 1.10720E-4
20044.921875; 1.16552E-4
20050.781250; 1.07639E-4
20056.640625; 1.04114E-4
20062.500000; 1.06259E-4
20068.359375; 1.05540E-4
20074.218750; 9.99336E-5
20080.078125; 1.03649E-4
20085.937500; 1.04225E-4
20091.796875; 1.01681E-4
20097.656250; 1.05960E-4
20103.515625; 1.03134E-4
20109.375000; 1.14542E-4
20115.234375; 1.11363E-4
20121.093750; 9.28047E-5
20126.953125; 1.02353E-4
20132.812500; 9.60753E-5
20138.671875; 9.70045E-5
20144.531250; 1.01339E-4
20150.390625; 9.28553E-5
20156.250000; 9.20659E-5
20162.109375; 9.67654E-5
20167.968750; 1.01541E-4
20173.828125; 9.34748E-5
20179.687500; 8.96597E-5
20185.546875; 9.60632E-5
20191.406250; 1.10396E-4
20197.265625; 1.00575E-4
20203.125000; 1.08999E-4
20208.984375; 1.06124E-4
20214.843750; 1.13433E-4
20220.703125; 1.00416E-4
20226.562500; 9.58176E-5
20232.421875; 1.06349E-4
20238.281250; 1.06536E-4
20244.140625; 9.55655E-5
20250.000000; 1.04157E-4
20255.859375; 8.59506E-5
20261.718750; 9.57897E-5
20267.578125; 1.05732E-4
20273.437500; 1.08327E-4
20279.296875; 1.12833E-4
20285.156250; 1.07005E-4
20291.015625; 1.01111E-4
20296.875000; 1.02864E-4
20302.734375; 9.93196E-5
20308.593750; 1.02023E-4
20314.453125; 1.02904E-4
20320.312500; 1.04413E-4
20326.171875; 9.70957E-5
20332.031250; 1.05419E-4
20337.890625; 1.08431E-4
20343.750000; 1.06464E-4
20349.609375; 1.03760E-4
20355.468750; 1.06104E-4
20361.328125; 1.07644E-4
20367.187500; 1.05076E-4
20373.046875; 8.81809E-5
20378.906250; 8.91527E-5
20384.765625; 9.27722E-5
20390.625000; 9.94469E-5
20396.484375; 1.07471E-4
20402.343750; 1.01884E-4
20408.203125; 1.00785E-4
20414.062500; 1.13200E-4
20419.921875; 1.07296E-4
20425.781250; 1.08147E-4
20431.640625; 1.13091E-4
20437.500000; 1.15788E-4
20443.359375; 1.13235E-4
20449.218750; 1.08028E-4
20455.078125; 1.07646E-4
20460.937500; 1.03890E-4
20466.796875; 1.05517E-4
20472.656250; 1.04189E-4
20478.515625; 1.19734E-4
20484.375000; 1.12201E-4
20490.234375; 1.07826E-4
20496.093750; 1.05254E-4
20501.953125; 1.01706E-4
20507.812500; 9.98141E-5
20513.671875; 1.03726E-4
20519.531250; 1.11073E-4
20525.390625; 8.64852E-5
20531.250000; 8.77406E-5
20537.109375; 1.00944E-4
20542.968750; 9.68658E-5
20548.828125; 9.60875E-5
20554.687500; 1.07629E-4
20560.546875; 9.43714E-5
20566.406250; 9.05178E-5
20572.265625; 9.76153E-5
20578.125000; 1.07746E-4
20583.984375; 1.17915E-4
20589.843750; 1.10109E-4
20595.703125; 1.00570E-4
20601.562500; 1.00138E-4
20607.421875; 9.94882E-5
20613.281250; 1.09168E-4
20619.140625; 1.17976E-4
20625.000000; 1.05228E-4
20630.859375; 1.00670E-4
20636.718750; 9.27483E-5
20642.578125; 9.18366E-5
20648.437500; 9.83054E-5
20654.296875; 9.52182E-5
20660.156250; 9.49633E-5
20666.015625; 9.57975E-5
20671.875000; 1.01755E-4
20677.734375; 1.02722E-4
20683.593750; 1.02772E-4
20689.453125; 1.11352E-4
20695.312500; 1.08973E-4
20701.171875; 9.46222E-5
20707.031250; 8.62986E-5
20712.890625; 1.00153E-4
20718.750000; 9.76932E-5
20724.609375; 1.00385E-4
20730.468750; 1.06615E-4
20736.328125; 1.12844E-4
20742.187500; 9.58045E-5
20748.046875; 9.86970E-5
20753.906250; 1.10245E-4
20759.765625; 1.07318E-4
20765.625000; 9.79928E-5
20771.484375; 1.03967E-4
20777.343750; 1.10464E-4
20783.203125; 1.00935E-4
20789.062500; 9.42224E-5
20794.921875; 8.88903E-5
20800.781250; 9.79102E-5
20806.640625; 1.11916E-4
20812.500000; 1.07026E-4
20818.359375; 1.08768E-4
20824.218750; 1.06649E-4
20830.078125; 1.06475E-4
20835.937500; 1.02908E-4
20841.796875; 1.09268E-4
20847.656250; 1.04359E-4
20853.515625; 9.30968E-5
20859.375000; 9.28536E-5
20865.234375; 9.97956E-5
20871.093750; 1.01404E-4
20876.953125; 1.07179E-4
20882.812500; 1.01153E-4
20888.671875; 9.73290E-5
20894.531250; 8.91486E-5
20900.390625; 8.85733E-5
20906.250000; 9.94194E-5
20912.109375; 1.08733E-4
20917.968750; 9.53119E-5
20923.828125; 9.77156E-5
20929.687500; 1.00905E-4
20935.546875; 1.02101E-4
20941.406250; 9.30205E-5
20947.265625; 9.61418E-5
20953.125000; 1.01301E-4
20958.984375; 9.65380E-5
20964.843750; 9.12191E-5
20970.703125; 9.75176E-5
20976.562500; 1.13047E-4
20982.421875; 9.62085E-5
20988.281250; 9.28605E-5
20994.140625; 9.16754E-5
21000.000000; 9.69601E-5
21005.859375; 9.54730E-5
21011.718750; 1.05923E-4
21017.578125; 1.08815E-4
21023.437500; 9.55049E-5
21029.296875; 9.57997E-5
21035.156250; 9.28365E-5
21041.015625; 9.95714E-5
21046.875000; 1.05019E-4
21052.734375; 1.01652E-4
21058.593750; 9.86348E-5
21064.453125; 1.08748E-4
21070.312500; 1.14809E-4
21076.171875; 9.74573E-5
21082.031250; 1.01552E-4
21087.890625; 1.13744E-4
21093.750000; 1.04410E-4
21099.609375; 8.63349E-5
21105.468750; 1.03102E-4
21111.328125; 1.12450E-4
21117.187500; 1.07096E-4
21123.046875; 1.06610E-4
21128.906250; 9.72689E-5
21134.765625; 9.20105E-5
21140.625000; 1.10052E-4
21146.484375; 1.09958E-4
21152.343750; 1.13694E-4
21158.203125; 1.21261E-4
21164.062500; 1.10926E-4
21169.921875; 1.03288E-4
21175.781250; 1.11634E-4
21181.640625; 1.07638E-4
21187.500000; 1.01707E-4
21193.359375; 1.09980E-4
21199.218750; 1.10736E-4
21205.078125; 9.40419E-5
21210.937500; 1.02729E-4
21216.796875; 1.05200E-4
21222.656250; 1.01614E-4
21228.515625; 1.05102E-4
21234.375000; 9.96707E-5
21240.234375; 9.54415E-5
21246.093750; 1.00579E-4
21251.953125; 1.13767E-4
21257.812500; 1.15786E-4
21263.671875; 1.14705E-4
21269.531250; 1.11474E-4
21275.390625; 1.07837E-4
21281.250000; 1.15908E-4
21287.109375; 1.12344E-4
21292.968750; 1.10772E-4
21298.828125; 1.18311E-4
21304.687500; 1.18724E-4
21310.546875; 1.03593E-4
21316.406250; 1.04804E-4
21322.265625; 1.08380E-4
21328.125000; 9.79860E-5
21333.984375; 1.01718E-4
21339.843750; 1.15043E-4
21345.703125; 1.11766E-4
21351.562500; 1.11388E-4
21357.421875; 1.09195E-4
21363.281250; 1.04314E-4
21369.140625; 1.09316E-4
21375.000000; 9.48068E-5
21380.859375; 9.57288E-5
21386.718750; 1.05409E-4
21392.578125; 1.06462E-4
21398.437500; 1.09704E-4
21404.296875; 1.09728E-4
21410.156250; 1.13774E-4
21416.015625; 1.12742E-4
21421.875000; 1.02793E-4
21427.734375; 8.76329E-5
21433.593750; 9.54288E-5
21439.453125; 1.06527E-4
21445.312500; 1.00318E-4
21451.171875; 9.69992E-5
21457.031250; 1.08154E-4
21462.890625; 9.15983E-5
21468.750000; 9.31704E-5
21474.609375; 1.18643E-4
21480.468750; 1.08391E-4
21486.328125; 1.06073E-4
21492.187500; 1.06684E-4
21498.046875; 9.71972E-5
21503.906250; 1.11234E-4
21509.765625; 1.11834E-4
21515.625000; 1.16262E-4
21521.484375; 1.17400E-4
21527.343750; 9.41810E-5
21533.203125; 9.00674E-5
21539.062500; 1.03846E-4
21544.921875; 9.22193E-5
21550.781250; 1.00541E-4
21556.640625; 9.51077E-5
21562.500000; 1.01429E-4
21568.359375; 9.48674E-5
21574.218750; 9.72969E-5
21580.078125; 9.50691E-5
21585.937500; 9.75406E-5
21591.796875; 1.03273E-4
21597.656250; 1.10193E-4
21603.515625; 1.07508E-4
21609.375000; 1.02359E-4
21615.234375; 1.01520E-4
21621.093750; 1.05136E-4
21626.953125; 1.09939E-4
21632.812500; 1.07603E-4
21638.671875; 1.08216E-4
21644.531250; 1.05073E-4
21650.390625; 1.09901E-4
21656.250000; 1.07318E-4
21662.109375; 1.16320E-4
21667.968750; 1.07120E-4
21673.828125; 1.08804E-4
21679.687500; 1.10215E-4
21685.546875; 1.09001E-4
21691.406250; 1.07815E-4
21697.265625; 1.07569E-4
21703.125000; 9.81448E-5
21708.984375; 9.83964E-5
21714.843750; 1.02511E-4
21720.703125; 1.11553E-4
21726.562500; 1.04991E-4
21732.421875; 9.63424E-5
21738.281250; 9.73063E-5
21744.140625; 9.24238E-5
21750.000000; 9.69894E-5
21755.859375; 1.08314E-4
21761.718750; 1.06996E-4
21767.578125; 9.90643E-5
21773.437500; 9.05381E-5
21779.296875; 9.58345E-5
21785.156250; 9.56990E-5
21791.015625; 1.02567E-4
21796.875000; 9.64885E-5
21802.734375; 1.07951E-4
21808.593750; 1.14668E-4
21814.453125; 1.01716E-4
21820.312500; 9.17340E-5
21826.171875; 9.09158E-5
21832.031250; 9.50909E-5
21837.890625; 9.88174E-5
21843.750000; 9.34899E-5
21849.609375; 8.57428E-5
21855.468750; 9.54364E-5
21861.328125; 1.04350E-4
21867.187500; 1.13926E-4
21873.046875; 1.16501E-4
21878.906250; 1.11389E-4
21884.765625; 9.04649E-5
21890.625000; 9.83748E-5
21896.484375; 1.01147E-4
21902.343750; 1.04893E-4
21908.203125; 1.08054E-4
21914.062500; 9.09697E-5
21919.921875; 9.66923E-5
21925.781250; 1.03795E-4
21931.640625; 8.83770E-5
21937.500000; 9.06201E-5
21943.359375; 8.97157E-5
21949.218750; 1.00239E-4
21955.078125; 1.16157E-4
21960.937500; 1.06899E-4
21966.796875; 1.09855E-4
21972.656250; 9.95036E-5
21978.515625; 1.07705E-4
21984.375000; 1.08630E-4
21990.234375; 9.60524E-5
21996.093750; 1.08570E-4
22001.953125; 1.08386E-4
22007.812500; 9.74945E-5
22013.671875; 1.02870E-4
22019.531250; 1.06038E-4
22025.390625; 1.02793E-4
22031.250000; 9.50376E-5
22037.109375; 9.51922E-5
22042.968750; 1.00359E-4
22048.828125; 9.07575E-5
22054.687500; 9.14091E-5
22060.546875; 1.03512E-4
22066.406250; 9.90817E-5
22072.265625; 9.44268E-5
22078.125000; 9.61802E-5
22083.984375; 9.78930E-5
22089.843750; 1.00246E-4
22095.703125; 9.99307E-5
22101.562500; 1.07268E-4
22107.421875; 1.13584E-4
22113.281250; 9.82564E-5
22119.140625; 9.55770E-5
22125.000000; 9.48141E-5
22130.859375; 9.46608E-5
22136.718750; 1.04678E-4
22142.578125; 1.01956E-4
22148.437500; 1.06027E-4
22154.296875; 9.90629E-5
22160.156250; 8.94622E-5
22166.015625; 8.92462E-5
22171.875000; 1.01375E-4
22177.734375; 1.10312E-4
22183.593750; 1.09805E-4
22189.453125; 1.07332E-4
22195.312500; 1.07733E-4
22201.171875; 9.75235E-5
22207.031250; 9.00554E-5
22212.890625; 9.61279E-5
22218.750000; 1.00618E-4
22224.609375; 1.05719E-4
22230.468750; 1.06724E-4
22236.328125; 9.65099E-5
22242.187500; 9.39691E-5
22248.046875; 1.03850E-4
22253.906250; 1.01745E-4
22259.765625; 9.94910E-5
22265.625000; 1.00243E-4
22271.484375; 1.00355E-4
22277.343750; 9.19292E-5
22283.203125; 8.89941E-5
22289.062500; 8.81370E-5
22294.921875; 1.01804E-4
22300.781250; 1.06035E-4
22306.640625; 1.11214E-4
22312.500000; 1.14820E-4
22318.359375; 9.83602E-5
22324.218750; 7.79619E-5
22330.078125; 8.43741E-5
22335.937500; 9.07331E-5
22341.796875; 8.33518E-5
22347.656250; 9.36287E-5
22353.515625; 1.08877E-4
22359.375000; 1.02331E-4
22365.234375; 9.52499E-5
22371.093750; 9.33164E-5
22376.953125; 1.03052E-4
22382.812500; 1.12243E-4
22388.671875; 1.13546E-4
22394.531250; 1.00853E-4
22400.390625; 9.69627E-5
22406.250000; 1.05956E-4
22412.109375; 1.09410E-4
22417.968750; 9.85893E-5
22423.828125; 9.60369E-5
22429.687500; 9.60952E-5
22435.546875; 9.76735E-5
22441.406250; 8.88408E-5
22447.265625; 9.11353E-5
22453.125000; 1.00175E-4
22458.984375; 9.45872E-5
22464.843750; 1.02277E-4
22470.703125; 9.85734E-5
22476.562500; 9.61121E-5
22482.421875; 8.84597E-5
22488.281250; 9.92584E-5
22494.140625; 9.77229E-5
22500.000000; 9.29796E-5
22505.859375; 8.25734E-5
22511.718750; 9.07292E-5
22517.578125; 9.97746E-5
22523.437500; 1.00818E-4
22529.296875; 8.95879E-5
22535.156250; 9.76616E-5
22541.015625; 9.88450E-5
22546.875000; 8.60655E-5
22552.734375; 7.51887E-5
22558.593750; 9.07742E-5
22564.453125; 9.44574E-5
22570.312500; 8.62651E-5
22576.171875; 8.42559E-5
22582.031250; 8.71957E-5
22587.890625; 9.77687E-5
22593.750000; 9.45627E-5
22599.609375; 7.77334E-5
22605.468750; 7.24351E-5
22611.328125; 7.70012E-5
22617.187500; 9.31510E-5
22623.046875; 9.62619E-5
22628.906250; 9.15127E-5
22634.765625; 9.54049E-5
22640.625000; 9.95968E-5
22646.484375; 9.55391E-5
22652.343750; 9.16016E-5
22658.203125; 9.05198E-5
22664.062500; 9.00942E-5
22669.921875; 8.95624E-5
22675.781250; 9.45261E-5
22681.640625; 9.83598E-5
22687.500000; 9.85782E-5
22693.359375; 9.00362E-5
22699.218750; 9.04500E-5
22705.078125; 1.01602E-4
22710.937500; 9.69101E-5
22716.796875; 9.85104E-5
22722.656250; 8.48577E-5
22728.515625; 9.13814E-5
22734.375000; 1.06088E-4
22740.234375; 1.01430E-4
22746.093750; 1.02987E-4
22751.953125; 9.80044E-5
22757.812500; 9.93412E-5
22763.671875; 1.11051E-4
22769.531250; 9.97421E-5
22775.390625; 8.33294E-5
22781.250000; 8.17405E-5
22787.109375; 8.26623E-5
22792.968750; 9.73670E-5
22798.828125; 9.72598E-5
22804.687500; 8.82776E-5
22810.546875; 7.98167E-5
22816.406250; 8.40840E-5
22822.265625; 8.49418E-5
22828.125000; 8.51915E-5
22833.984375; 8.73241E-5
22839.843750; 9.20452E-5
22845.703125; 8.71988E-5
22851.562500; 8.16398E-5
22857.421875; 8.55712E-5
22863.281250; 8.90465E-5
22869.140625; 8.53372E-5
22875.000000; 8.91461E-5
22880.859375; 8.91502E-5
22886.718750; 8.24059E-5
22892.578125; 8.01877E-5
22898.437500; 7.96037E-5
22904.296875; 7.78337E-5
22910.156250; 7.87129E-5
22916.015625; 9.36480E-5
22921.875000; 9.36841E-5
22927.734375; 7.85068E-5
22933.593750; 7.43804E-5
22939.453125; 7.84449E-5
22945.312500; 7.65202E-5
22951.171875; 7.46947E-5
22957.031250; 7.77046E-5
22962.890625; 7.35937E-5
22968.750000; 7.87517E-5
22974.609375; 8.60283E-5
22980.468750; 8.10375E-5
22986.328125; 8.00783E-5
22992.187500; 8.07195E-5
22998.046875; 7.46616E-5
23003.906250; 7.49348E-5
23009.765625; 7.85495E-5
23015.625000; 7.55482E-5
23021.484375; 8.30275E-5
23027.343750; 7.72171E-5
23033.203125; 7.84874E-5
23039.062500; 8.35052E-5
23044.921875; 8.55103E-5
23050.781250; 7.49878E-5
23056.640625; 8.11988E-5
23062.500000; 8.42650E-5
23068.359375; 8.77372E-5
23074.218750; 8.62229E-5
23080.078125; 8.38061E-5
23085.937500; 7.83997E-5
23091.796875; 7.71794E-5
23097.656250; 7.28970E-5
23103.515625; 6.43564E-5
23109.375000; 6.24915E-5
23115.234375; 7.58371E-5
23121.093750; 7.67023E-5
23126.953125; 7.60967E-5
23132.812500; 7.18992E-5
23138.671875; 7.02221E-5
23144.531250; 7.14294E-5
23150.390625; 7.90699E-5
23156.250000; 7.58276E-5
23162.109375; 6.52254E-5
23167.968750; 7.08150E-5
23173.828125; 7.46401E-5
23179.687500; 6.86240E-5
23185.546875; 6.96011E-5
23191.406250; 7.14306E-5
23197.265625; 6.75276E-5
23203.125000; 6.69425E-5
23208.984375; 7.17218E-5
23214.843750; 7.36895E-5
23220.703125; 7.02025E-5
23226.562500; 6.09472E-5
23232.421875; 6.45197E-5
23238.281250; 6.47807E-5
23244.140625; 6.63595E-5
23250.000000; 7.35095E-5
23255.859375; 6.62464E-5
23261.718750; 6.34254E-5
23267.578125; 6.94923E-5
23273.437500; 6.71389E-5
23279.296875; 6.61482E-5
23285.156250; 6.07522E-5
23291.015625; 5.42214E-5
23296.875000; 5.87032E-5
23302.734375; 6.07685E-5
23308.593750; 6.04894E-5
23314.453125; 4.88025E-5
23320.312500; 5.75125E-5
23326.171875; 6.17367E-5
23332.031250; 5.78987E-5
23337.890625; 5.53368E-5
23343.750000; 5.05882E-5
23349.609375; 5.49050E-5
23355.468750; 6.46667E-5
23361.328125; 6.00566E-5
23367.187500; 5.76928E-5
23373.046875; 6.35403E-5
23378.906250; 6.27128E-5
23384.765625; 6.23880E-5
23390.625000; 5.43007E-5
23396.484375; 5.40928E-5
23402.343750; 5.97364E-5
23408.203125; 5.67999E-5
23414.062500; 4.82957E-5
23419.921875; 5.06939E-5
23425.781250; 5.10390E-5
23431.640625; 5.20803E-5
23437.500000; 5.39190E-5
23443.359375; 4.96700E-5
23449.218750; 5.43659E-5
23455.078125; 5.70625E-5
23460.937500; 5.48247E-5
23466.796875; 5.10515E-5
23472.656250; 5.91868E-5
23478.515625; 5.83231E-5
23484.375000; 4.81672E-5
23490.234375; 4.30627E-5
23496.093750; 4.44118E-5
23501.953125; 4.88852E-5
23507.812500; 5.36638E-5
23513.671875; 5.48718E-5
23519.531250; 5.28303E-5
23525.390625; 5.08681E-5
23531.250000; 4.19935E-5
23537.109375; 4.38417E-5
23542.968750; 5.33213E-5
23548.828125; 5.15572E-5
23554.687500; 4.48637E-5
23560.546875; 4.43369E-5
23566.406250; 4.51075E-5
23572.265625; 4.63628E-5
23578.125000; 4.50219E-5
23583.984375; 4.65499E-5
23589.843750; 4.50569E-5
23595.703125; 4.92408E-5
23601.562500; 4.57786E-5
23607.421875; 4.62030E-5
23613.281250; 4.72998E-5
23619.140625; 5.00875E-5
23625.000000; 4.51643E-5
23630.859375; 4.37394E-5
23636.718750; 4.96134E-5
23642.578125; 4.71291E-5
23648.437500; 3.64232E-5
23654.296875; 4.58145E-5
23660.156250; 4.54539E-5
23666.015625; 4.54745E-5
23671.875000; 4.11621E-5
23677.734375; 4.09482E-5
23683.593750; 3.92609E-5
23689.453125; 3.66516E-5
23695.312500; 4.24423E-5
23701.171875; 4.32486E-5
23707.031250; 4.03008E-5
23712.890625; 3.90360E-5
23718.750000; 4.30851E-5
23724.609375; 3.89875E-5
23730.468750; 4.07656E-5
23736.328125; 4.13033E-5
23742.187500; 3.83654E-5
23748.046875; 3.75312E-5
23753.906250; 3.91184E-5
23759.765625; 4.47946E-5
23765.625000; 4.10130E-5
23771.484375; 3.93653E-5
23777.343750; 3.71856E-5
23783.203125; 3.39161E-5
23789.062500; 3.61292E-5
23794.921875; 3.56171E-5
23800.781250; 3.81421E-5
23806.640625; 4.26811E-5
23812.500000; 3.94186E-5
23818.359375; 3.58591E-5
23824.218750; 3.72146E-5
23830.078125; 3.55095E-5
23835.937500; 3.41474E-5
23841.796875; 3.35047E-5
23847.656250; 3.42523E-5
23853.515625; 3.53826E-5
23859.375000; 3.63709E-5
23865.234375; 3.58452E-5
23871.093750; 3.60498E-5
23876.953125; 3.79083E-5
23882.812500; 3.73259E-5
23888.671875; 3.58937E-5
23894.531250; 3.98197E-5
23900.390625; 3.46170E-5
23906.250000; 3.53108E-5
23912.109375; 3.56560E-5
23917.968750; 3.63283E-5
23923.828125; 3.47272E-5
23929.687500; 3.57922E-5
23935.546875; 4.04870E-5
23941.406250; 4.01982E-5
23947.265625; 3.86305E-5
23953.125000; 3.49089E-5
23958.984375; 2.75323E-5
23964.843750; 3.44842E-5
23970.703125; 3.25602E-5
23976.562500; 3.27151E-5
23982.421875; 3.50257E-5
23988.281250; 3.32040E-5
23994.140625; 3.24866E-5
