* Measurement data measured by REW V5.31.3
* Source: PCM: default, no input selected, 2, volume: no control
* Format: 8192-point spectrum using Hann window and exponential averaging 0.97 
* Dated: Mar 9, 2025 1:16:10 PM
* REW Settings:
*  C-weighting compensation: Off
*  Target level: 75.0 dB
* Note: OSDEHA MU-OUTPUT; 8192-point spectrum using Hann window and exponential averaging 0.97  Input RMS 7.501 V 7.501 VC, 7.501 VA 7.501 V 22 - 22k UNW 959.2 uV >22k Distortion at 1,000.0 Hz, -22.50 dBFS: Gain: 29.68 dB THD: 0.011 % based on 21 harmonics  [0..22800 Hz] HHD: 0.0051 %  [10 .. 22] N: 0.19 %  [0..22800 Hz] N+D: 4.428 mV A THD+N: 0.19 %  [0..22800 Hz] SNR: 54.6 dB ENOB: 13.0 bits 2nd harmonic 0.0091 % 147 deg 3rd harmonic 0.0016 % 98 deg 4th harmonic 0.0015 % -122 deg 5th harmonic 0.0014 % 86 deg 6th harmonic 0.0014 % -89 deg 7th harmonic 0.0014 % 103 deg 8th harmonic 0.0014 % -138 deg 9th harmonic 0.0015 % 162 deg 
* Measurement: OSDEHA MU-OUT 7.50
* Smoothing: None
* Frequency Step: 5.859375 Hz
* Start Frequency: 5.859375 Hz
*
* Freq(Hz); V(V)
5.859375; 4.28694E-4
11.718750; 3.44348E-4
17.578125; 2.10925E-4
23.437500; 1.65550E-4
29.296875; 1.68105E-4
35.156250; 1.61462E-4
41.015625; 1.75348E-4
46.875000; 3.27460E-4
52.734375; 3.20960E-4
58.593750; 1.61768E-4
64.453125; 1.58090E-4
70.312500; 1.33627E-4
76.171875; 1.42922E-4
82.031250; 1.43146E-4
87.890625; 2.15318E-4
93.750000; 5.74431E-3
99.609375; 1.27715E-2
105.468750; 7.09019E-3
111.328125; 2.42363E-4
117.187500; 1.34593E-4
123.046875; 1.38770E-4
128.906250; 1.42455E-4
134.765625; 1.39318E-4
140.625000; 1.36547E-4
146.484375; 1.51734E-4
152.343750; 1.54330E-4
158.203125; 1.27328E-4
164.062500; 1.21146E-4
169.921875; 1.17607E-4
175.781250; 1.26922E-4
181.640625; 1.32870E-4
187.500000; 1.26346E-4
193.359375; 5.39338E-4
199.218750; 1.32766E-3
205.078125; 8.28258E-4
210.937500; 1.61462E-4
216.796875; 1.47185E-4
222.656250; 1.34994E-4
228.515625; 1.30956E-4
234.375000; 1.30668E-4
240.234375; 1.27955E-4
246.093750; 1.27582E-4
251.953125; 1.31266E-4
257.812500; 1.37655E-4
263.671875; 1.27109E-4
269.531250; 1.22607E-4
275.390625; 1.40168E-4
281.250000; 1.36207E-4
287.109375; 1.23365E-4
292.968750; 1.53704E-4
298.828125; 3.15246E-4
304.687500; 2.31909E-4
310.546875; 1.25470E-4
316.406250; 1.25437E-4
322.265625; 1.24686E-4
328.125000; 1.22736E-4
333.984375; 1.22315E-4
339.843750; 1.16878E-4
345.703125; 1.16604E-4
351.562500; 1.20306E-4
357.421875; 1.29900E-4
363.281250; 1.38941E-4
369.140625; 1.34918E-4
375.000000; 1.14798E-4
380.859375; 1.20801E-4
386.718750; 1.37820E-4
392.578125; 1.49414E-4
398.437500; 2.66255E-4
404.296875; 2.08262E-4
410.156250; 1.10496E-4
416.015625; 1.02209E-4
421.875000; 1.09653E-4
427.734375; 1.17951E-4
433.593750; 1.17718E-4
439.453125; 1.03424E-4
445.312500; 1.24931E-4
451.171875; 1.21695E-4
457.031250; 1.18441E-4
462.890625; 1.31512E-4
468.750000; 1.10986E-4
474.609375; 1.19681E-4
480.468750; 1.31084E-4
486.328125; 1.34076E-4
492.187500; 1.21609E-4
498.046875; 1.32234E-4
503.906250; 1.23526E-4
509.765625; 1.16729E-4
515.625000; 1.06989E-4
521.484375; 1.18865E-4
527.343750; 1.22643E-4
533.203125; 1.27261E-4
539.062500; 1.25033E-4
544.921875; 1.30580E-4
550.781250; 1.34299E-4
556.640625; 1.45172E-4
562.500000; 1.35899E-4
568.359375; 1.02594E-4
574.218750; 1.13945E-4
580.078125; 1.19613E-4
585.937500; 1.14801E-4
591.796875; 1.28500E-4
597.656250; 1.31072E-4
603.515625; 1.11305E-4
609.375000; 1.14878E-4
615.234375; 1.16697E-4
621.093750; 1.21788E-4
626.953125; 1.15648E-4
632.812500; 1.12104E-4
638.671875; 1.25256E-4
644.531250; 1.29409E-4
650.390625; 1.26009E-4
656.250000; 1.22969E-4
662.109375; 1.23211E-4
667.968750; 1.16760E-4
673.828125; 1.20852E-4
679.687500; 1.09576E-4
685.546875; 1.18878E-4
691.406250; 1.25444E-4
697.265625; 1.29695E-4
703.125000; 1.30191E-4
708.984375; 1.17185E-4
714.843750; 1.02130E-4
720.703125; 9.86485E-5
726.562500; 1.10406E-4
732.421875; 1.08124E-4
738.281250; 1.13740E-4
744.140625; 1.31915E-4
750.000000; 1.38993E-4
755.859375; 1.47737E-4
761.718750; 1.17963E-4
767.578125; 1.07395E-4
773.437500; 1.07140E-4
779.296875; 1.13650E-4
785.156250; 1.24839E-4
791.015625; 1.28085E-4
796.875000; 1.30471E-4
802.734375; 1.32189E-4
808.593750; 1.29587E-4
814.453125; 1.34175E-4
820.312500; 1.50654E-4
826.171875; 1.29529E-4
832.031250; 1.60226E-4
837.890625; 1.38923E-4
843.750000; 1.74173E-4
849.609375; 1.74955E-4
855.468750; 1.91394E-4
861.328125; 1.82197E-4
867.187500; 2.28276E-4
873.046875; 2.24771E-4
878.906250; 2.54724E-4
884.765625; 3.00542E-4
890.625000; 3.28777E-4
896.484375; 3.98213E-4
902.343750; 4.62234E-4
908.203125; 5.45632E-4
914.062500; 6.77805E-4
919.921875; 8.16998E-4
925.781250; 1.02915E-3
931.640625; 1.32013E-3
937.500000; 1.72917E-3
943.359375; 2.30836E-3
949.218750; 3.21498E-3
955.078125; 4.68410E-3
960.937500; 7.13203E-3
966.796875; 1.17293E-2
972.656250; 2.13342E-2
978.515625; 4.53099E-2
984.375000; 1.26881E-1
990.234375; 6.97902E-1
996.093750; 5.58311E0
1001.953125; 6.97889E0
1007.812500; 1.99397E0
1013.671875; 1.99398E-1
1019.531250; 6.13530E-2
1025.390625; 2.68306E-2
1031.250000; 1.41420E-2
1037.109375; 8.34563E-3
1042.968750; 5.34952E-3
1048.828125; 3.61351E-3
1054.687500; 2.56745E-3
1060.546875; 1.91145E-3
1066.406250; 1.44049E-3
1072.265625; 1.10251E-3
1078.125000; 9.03730E-4
1083.984375; 6.98957E-4
1089.843750; 5.94875E-4
1095.703125; 4.83723E-4
1101.562500; 4.08169E-4
1107.421875; 3.64839E-4
1113.281250; 3.24490E-4
1119.140625; 2.44955E-4
1125.000000; 2.57944E-4
1130.859375; 2.19185E-4
1136.718750; 1.79426E-4
1142.578125; 1.90287E-4
1148.437500; 1.61312E-4
1154.296875; 1.67375E-4
1160.156250; 1.50095E-4
1166.015625; 1.51670E-4
1171.875000; 1.25105E-4
1177.734375; 1.31534E-4
1183.593750; 1.36382E-4
1189.453125; 1.36081E-4
1195.312500; 1.23849E-4
1201.171875; 1.22394E-4
1207.031250; 1.24722E-4
1212.890625; 1.21309E-4
1218.750000; 1.25467E-4
1224.609375; 1.20279E-4
1230.468750; 1.13462E-4
1236.328125; 1.07906E-4
1242.187500; 1.15797E-4
1248.046875; 1.21332E-4
1253.906250; 1.31655E-4
1259.765625; 1.19047E-4
1265.625000; 1.15356E-4
1271.484375; 1.09301E-4
1277.343750; 1.23615E-4
1283.203125; 1.15288E-4
1289.062500; 1.05809E-4
1294.921875; 1.09147E-4
1300.781250; 1.34534E-4
1306.640625; 1.25648E-4
1312.500000; 1.24821E-4
1318.359375; 1.33788E-4
1324.218750; 1.34023E-4
1330.078125; 1.30149E-4
1335.937500; 1.10144E-4
1341.796875; 1.12834E-4
1347.656250; 1.18238E-4
1353.515625; 1.28458E-4
1359.375000; 1.19636E-4
1365.234375; 1.15295E-4
1371.093750; 1.09332E-4
1376.953125; 1.28590E-4
1382.812500; 1.19622E-4
1388.671875; 1.11442E-4
1394.531250; 1.14068E-4
1400.390625; 1.14221E-4
1406.250000; 1.12232E-4
1412.109375; 1.07208E-4
1417.968750; 9.05420E-5
1423.828125; 1.02135E-4
1429.687500; 1.18975E-4
1435.546875; 1.27284E-4
1441.406250; 1.13772E-4
1447.265625; 1.11855E-4
1453.125000; 1.18067E-4
1458.984375; 9.52157E-5
1464.843750; 1.09301E-4
1470.703125; 1.21915E-4
1476.562500; 1.06754E-4
1482.421875; 1.01435E-4
1488.281250; 9.71630E-5
1494.140625; 1.21481E-4
1500.000000; 1.14014E-4
1505.859375; 1.00572E-4
1511.718750; 1.14284E-4
1517.578125; 1.25791E-4
1523.437500; 1.17558E-4
1529.296875; 1.18682E-4
1535.156250; 1.21875E-4
1541.015625; 1.31376E-4
1546.875000; 1.22289E-4
1552.734375; 1.19168E-4
1558.593750; 1.10690E-4
1564.453125; 1.10998E-4
1570.312500; 1.05825E-4
1576.171875; 1.18381E-4
1582.031250; 1.07669E-4
1587.890625; 1.05982E-4
1593.750000; 1.16270E-4
1599.609375; 1.16724E-4
1605.468750; 1.14881E-4
1611.328125; 1.12451E-4
1617.187500; 1.06035E-4
1623.046875; 1.10589E-4
1628.906250; 9.79673E-5
1634.765625; 9.80346E-5
1640.625000; 1.10593E-4
1646.484375; 1.13013E-4
1652.343750; 1.08779E-4
1658.203125; 1.11527E-4
1664.062500; 1.20679E-4
1669.921875; 1.20945E-4
1675.781250; 1.15734E-4
1681.640625; 1.17976E-4
1687.500000; 1.09441E-4
1693.359375; 1.14690E-4
1699.218750; 1.16125E-4
1705.078125; 1.05099E-4
1710.937500; 1.13295E-4
1716.796875; 1.11170E-4
1722.656250; 1.15046E-4
1728.515625; 1.17020E-4
1734.375000; 1.12879E-4
1740.234375; 1.00868E-4
1746.093750; 1.11724E-4
1751.953125; 1.10052E-4
1757.812500; 1.09080E-4
1763.671875; 1.10411E-4
1769.531250; 1.08836E-4
1775.390625; 1.24005E-4
1781.250000; 1.21941E-4
1787.109375; 1.12876E-4
1792.968750; 1.13595E-4
1798.828125; 1.15043E-4
1804.687500; 1.14283E-4
1810.546875; 1.13255E-4
1816.406250; 1.24215E-4
1822.265625; 1.29615E-4
1828.125000; 1.11237E-4
1833.984375; 1.05775E-4
1839.843750; 1.07991E-4
1845.703125; 1.06554E-4
1851.562500; 1.04191E-4
1857.421875; 1.08236E-4
1863.281250; 1.12752E-4
1869.140625; 1.21466E-4
1875.000000; 1.22061E-4
1880.859375; 1.17442E-4
1886.718750; 1.17781E-4
1892.578125; 1.12191E-4
1898.437500; 1.10911E-4
1904.296875; 1.05930E-4
1910.156250; 1.10528E-4
1916.015625; 1.16817E-4
1921.875000; 9.96471E-5
1927.734375; 1.07211E-4
1933.593750; 1.13315E-4
1939.453125; 1.05180E-4
1945.312500; 1.13296E-4
1951.171875; 1.22051E-4
1957.031250; 1.15729E-4
1962.890625; 1.23572E-4
1968.750000; 1.15263E-4
1974.609375; 1.18600E-4
1980.468750; 1.22487E-4
1986.328125; 1.22778E-4
1992.187500; 2.08235E-4
1998.046875; 5.96063E-4
2003.906250; 4.86625E-4
2009.765625; 1.35610E-4
2015.625000; 9.89417E-5
2021.484375; 1.01007E-4
2027.343750; 1.08112E-4
2033.203125; 1.16339E-4
2039.062500; 1.11786E-4
2044.921875; 1.00478E-4
2050.781250; 1.07068E-4
2056.640625; 1.07463E-4
2062.500000; 1.15264E-4
2068.359375; 1.23033E-4
2074.218750; 1.16891E-4
2080.078125; 1.14639E-4
2085.937500; 1.14422E-4
2091.796875; 1.13527E-4
2097.656250; 1.05272E-4
2103.515625; 1.12205E-4
2109.375000; 1.22028E-4
2115.234375; 1.20532E-4
2121.093750; 1.14670E-4
2126.953125; 1.07612E-4
2132.812500; 1.07477E-4
2138.671875; 1.02857E-4
2144.531250; 1.20181E-4
2150.390625; 1.19649E-4
2156.250000; 1.16651E-4
2162.109375; 1.19386E-4
2167.968750; 1.12763E-4
2173.828125; 1.01282E-4
2179.687500; 1.02302E-4
2185.546875; 1.22982E-4
2191.406250; 1.27760E-4
2197.265625; 1.13887E-4
2203.125000; 9.84763E-5
2208.984375; 1.01170E-4
2214.843750; 1.26944E-4
2220.703125; 1.22657E-4
2226.562500; 1.11032E-4
2232.421875; 1.05664E-4
2238.281250; 1.25408E-4
2244.140625; 1.27612E-4
2250.000000; 1.11962E-4
2255.859375; 1.14340E-4
2261.718750; 1.16568E-4
2267.578125; 1.00424E-4
2273.437500; 1.00042E-4
2279.296875; 9.79487E-5
2285.156250; 1.09261E-4
2291.015625; 1.09644E-4
2296.875000; 1.05917E-4
2302.734375; 1.15190E-4
2308.593750; 1.04249E-4
2314.453125; 1.02812E-4
2320.312500; 1.12010E-4
2326.171875; 1.19326E-4
2332.031250; 1.17582E-4
2337.890625; 1.16712E-4
2343.750000; 1.06234E-4
2349.609375; 1.11458E-4
2355.468750; 1.22424E-4
2361.328125; 1.20583E-4
2367.187500; 1.13651E-4
2373.046875; 9.85938E-5
2378.906250; 1.17739E-4
2384.765625; 1.15020E-4
2390.625000; 1.07644E-4
2396.484375; 1.12830E-4
2402.343750; 1.13389E-4
2408.203125; 1.05559E-4
2414.062500; 1.01498E-4
2419.921875; 1.11555E-4
2425.781250; 1.09170E-4
2431.640625; 1.13615E-4
2437.500000; 1.09821E-4
2443.359375; 1.05422E-4
2449.218750; 1.02260E-4
2455.078125; 1.04387E-4
2460.937500; 1.10744E-4
2466.796875; 1.08718E-4
2472.656250; 1.13314E-4
2478.515625; 1.14726E-4
2484.375000; 1.16916E-4
2490.234375; 1.10821E-4
2496.093750; 1.16006E-4
2501.953125; 1.20771E-4
2507.812500; 1.18079E-4
2513.671875; 1.13525E-4
2519.531250; 1.13971E-4
2525.390625; 1.06310E-4
2531.250000; 1.00341E-4
2537.109375; 1.00074E-4
2542.968750; 1.05214E-4
2548.828125; 1.13742E-4
2554.687500; 1.16256E-4
2560.546875; 1.12707E-4
2566.406250; 9.83265E-5
2572.265625; 9.82764E-5
2578.125000; 1.01780E-4
2583.984375; 1.17975E-4
2589.843750; 1.18058E-4
2595.703125; 1.09852E-4
2601.562500; 1.04374E-4
2607.421875; 1.07812E-4
2613.281250; 1.07929E-4
2619.140625; 1.19841E-4
2625.000000; 1.07986E-4
2630.859375; 1.17205E-4
2636.718750; 1.15753E-4
2642.578125; 1.04328E-4
2648.437500; 9.97226E-5
2654.296875; 1.07892E-4
2660.156250; 1.13484E-4
2666.015625; 1.22724E-4
2671.875000; 1.17337E-4
2677.734375; 1.15872E-4
2683.593750; 1.16237E-4
2689.453125; 1.10114E-4
2695.312500; 1.01041E-4
2701.171875; 1.14364E-4
2707.031250; 1.01077E-4
2712.890625; 1.03561E-4
2718.750000; 1.13612E-4
2724.609375; 1.17769E-4
2730.468750; 1.12282E-4
2736.328125; 1.06412E-4
2742.187500; 1.01223E-4
2748.046875; 1.04587E-4
2753.906250; 1.09304E-4
2759.765625; 1.05455E-4
2765.625000; 9.22341E-5
2771.484375; 8.97290E-5
2777.343750; 1.09830E-4
2783.203125; 1.05153E-4
2789.062500; 9.92286E-5
2794.921875; 1.05906E-4
2800.781250; 1.13236E-4
2806.640625; 1.21708E-4
2812.500000; 1.13432E-4
2818.359375; 1.05824E-4
2824.218750; 1.04144E-4
2830.078125; 1.13961E-4
2835.937500; 1.14806E-4
2841.796875; 1.01298E-4
2847.656250; 1.00804E-4
2853.515625; 1.06773E-4
2859.375000; 1.11732E-4
2865.234375; 1.09256E-4
2871.093750; 1.06237E-4
2876.953125; 1.21021E-4
2882.812500; 1.15242E-4
2888.671875; 1.13174E-4
2894.531250; 1.08115E-4
2900.390625; 1.09725E-4
2906.250000; 1.03588E-4
2912.109375; 1.11410E-4
2917.968750; 1.03369E-4
2923.828125; 9.94356E-5
2929.687500; 1.05548E-4
2935.546875; 1.05577E-4
2941.406250; 1.00549E-4
2947.265625; 1.11698E-4
2953.125000; 1.00950E-4
2958.984375; 1.01879E-4
2964.843750; 1.02979E-4
2970.703125; 1.06338E-4
2976.562500; 1.20251E-4
2982.421875; 1.30859E-4
2988.281250; 1.23891E-4
2994.140625; 1.04314E-4
3000.000000; 1.24620E-4
3005.859375; 1.25417E-4
3011.718750; 1.04415E-4
3017.578125; 1.06121E-4
3023.437500; 1.13232E-4
3029.296875; 1.03797E-4
3035.156250; 1.03821E-4
3041.015625; 1.19152E-4
3046.875000; 1.17535E-4
3052.734375; 1.09395E-4
3058.593750; 9.80715E-5
3064.453125; 1.02794E-4
3070.312500; 1.17046E-4
3076.171875; 1.34148E-4
3082.031250; 1.19156E-4
3087.890625; 1.06912E-4
3093.750000; 1.10895E-4
3099.609375; 1.05313E-4
3105.468750; 1.12437E-4
3111.328125; 1.17503E-4
3117.187500; 1.14607E-4
3123.046875; 1.11361E-4
3128.906250; 1.00204E-4
3134.765625; 1.07025E-4
3140.625000; 1.16812E-4
3146.484375; 1.07275E-4
3152.343750; 1.06644E-4
3158.203125; 1.08743E-4
3164.062500; 1.06679E-4
3169.921875; 1.09447E-4
3175.781250; 1.13484E-4
3181.640625; 1.10768E-4
3187.500000; 1.12817E-4
3193.359375; 1.13146E-4
3199.218750; 1.12771E-4
3205.078125; 1.20587E-4
3210.937500; 1.16148E-4
3216.796875; 1.24310E-4
3222.656250; 1.33373E-4
3228.515625; 1.16964E-4
3234.375000; 1.14414E-4
3240.234375; 1.10343E-4
3246.093750; 1.08320E-4
3251.953125; 1.12463E-4
3257.812500; 1.02822E-4
3263.671875; 1.13943E-4
3269.531250; 1.10781E-4
3275.390625; 9.95444E-5
3281.250000; 1.08495E-4
3287.109375; 9.69921E-5
3292.968750; 1.06628E-4
3298.828125; 1.16666E-4
3304.687500; 1.05542E-4
3310.546875; 1.24994E-4
3316.406250; 1.28068E-4
3322.265625; 1.17807E-4
3328.125000; 1.01092E-4
3333.984375; 1.01320E-4
3339.843750; 9.78427E-5
3345.703125; 1.01702E-4
3351.562500; 1.06930E-4
3357.421875; 1.09275E-4
3363.281250; 1.13187E-4
3369.140625; 1.23737E-4
3375.000000; 1.15683E-4
3380.859375; 1.08032E-4
3386.718750; 1.09159E-4
3392.578125; 1.29236E-4
3398.437500; 1.35915E-4
3404.296875; 1.24132E-4
3410.156250; 1.32263E-4
3416.015625; 1.21016E-4
3421.875000; 1.11524E-4
3427.734375; 1.02901E-4
3433.593750; 9.49665E-5
3439.453125; 1.01195E-4
3445.312500; 1.05467E-4
3451.171875; 1.03183E-4
3457.031250; 1.04365E-4
3462.890625; 1.14012E-4
3468.750000; 1.30225E-4
3474.609375; 1.14751E-4
3480.468750; 1.08998E-4
3486.328125; 1.01044E-4
3492.187500; 1.08829E-4
3498.046875; 1.08225E-4
3503.906250; 9.72609E-5
3509.765625; 1.05792E-4
3515.625000; 9.37072E-5
3521.484375; 9.97474E-5
3527.343750; 9.89251E-5
3533.203125; 8.73517E-5
3539.062500; 1.05689E-4
3544.921875; 1.22212E-4
3550.781250; 1.21260E-4
3556.640625; 1.14229E-4
3562.500000; 1.05300E-4
3568.359375; 1.17188E-4
3574.218750; 1.11186E-4
3580.078125; 1.17378E-4
3585.937500; 1.23128E-4
3591.796875; 1.15878E-4
3597.656250; 1.04278E-4
3603.515625; 1.03295E-4
3609.375000; 1.14509E-4
3615.234375; 1.09185E-4
3621.093750; 1.14715E-4
3626.953125; 1.21248E-4
3632.812500; 1.24540E-4
3638.671875; 1.12883E-4
3644.531250; 1.19513E-4
3650.390625; 1.10950E-4
3656.250000; 1.00753E-4
3662.109375; 1.11000E-4
3667.968750; 1.24913E-4
3673.828125; 1.25283E-4
3679.687500; 1.13429E-4
3685.546875; 1.07916E-4
3691.406250; 1.06164E-4
3697.265625; 1.09690E-4
3703.125000; 1.08500E-4
3708.984375; 1.09076E-4
3714.843750; 1.16262E-4
3720.703125; 1.10822E-4
3726.562500; 1.13304E-4
3732.421875; 1.17805E-4
3738.281250; 1.08325E-4
3744.140625; 1.03448E-4
3750.000000; 1.12042E-4
3755.859375; 9.11214E-5
3761.718750; 1.12530E-4
3767.578125; 1.08987E-4
3773.437500; 1.06540E-4
3779.296875; 1.10873E-4
3785.156250; 9.83324E-5
3791.015625; 9.45774E-5
3796.875000; 9.29713E-5
3802.734375; 1.14171E-4
3808.593750; 1.18766E-4
3814.453125; 1.10042E-4
3820.312500; 1.07116E-4
3826.171875; 1.03884E-4
3832.031250; 1.01044E-4
3837.890625; 1.10597E-4
3843.750000; 1.13186E-4
3849.609375; 1.07814E-4
3855.468750; 1.14048E-4
3861.328125; 1.09460E-4
3867.187500; 1.13784E-4
3873.046875; 1.03584E-4
3878.906250; 1.01770E-4
3884.765625; 1.08445E-4
3890.625000; 1.16392E-4
3896.484375; 1.12644E-4
3902.343750; 1.23425E-4
3908.203125; 1.22847E-4
3914.062500; 1.03460E-4
3919.921875; 1.03400E-4
3925.781250; 1.15609E-4
3931.640625; 1.06954E-4
3937.500000; 9.71075E-5
3943.359375; 1.04976E-4
3949.218750; 1.19602E-4
3955.078125; 1.25576E-4
3960.937500; 1.09598E-4
3966.796875; 1.02117E-4
3972.656250; 1.12897E-4
3978.515625; 1.21223E-4
3984.375000; 1.08046E-4
3990.234375; 1.08212E-4
3996.093750; 1.17296E-4
4001.953125; 1.16920E-4
4007.812500; 1.06613E-4
4013.671875; 1.09952E-4
4019.531250; 1.19170E-4
4025.390625; 1.09585E-4
4031.250000; 1.07417E-4
4037.109375; 9.80705E-5
4042.968750; 1.11997E-4
4048.828125; 1.22117E-4
4054.687500; 1.27919E-4
4060.546875; 1.26204E-4
4066.406250; 1.19535E-4
4072.265625; 1.08684E-4
4078.125000; 1.19509E-4
4083.984375; 1.20734E-4
4089.843750; 1.05663E-4
4095.703125; 1.06808E-4
4101.562500; 1.06935E-4
4107.421875; 1.08125E-4
4113.281250; 1.04329E-4
4119.140625; 1.09419E-4
4125.000000; 1.09578E-4
4130.859375; 1.15423E-4
4136.718750; 1.13238E-4
4142.578125; 1.15464E-4
4148.437500; 1.10514E-4
4154.296875; 1.07432E-4
4160.156250; 1.12542E-4
4166.015625; 1.16318E-4
4171.875000; 1.17579E-4
4177.734375; 1.11594E-4
4183.593750; 1.04546E-4
4189.453125; 1.10916E-4
4195.312500; 1.00575E-4
4201.171875; 1.05277E-4
4207.031250; 1.01127E-4
4212.890625; 1.08413E-4
4218.750000; 1.20525E-4
4224.609375; 1.17522E-4
4230.468750; 1.11950E-4
4236.328125; 1.16234E-4
4242.187500; 1.17609E-4
4248.046875; 1.10628E-4
4253.906250; 1.09467E-4
4259.765625; 1.13070E-4
4265.625000; 1.08772E-4
4271.484375; 1.02397E-4
4277.343750; 1.01376E-4
4283.203125; 1.04921E-4
4289.062500; 1.11348E-4
4294.921875; 1.13095E-4
4300.781250; 1.06244E-4
4306.640625; 1.02774E-4
4312.500000; 1.08230E-4
4318.359375; 1.02145E-4
4324.218750; 1.10860E-4
4330.078125; 9.69357E-5
4335.937500; 1.03131E-4
4341.796875; 1.07635E-4
4347.656250; 1.13622E-4
4353.515625; 1.11113E-4
4359.375000; 1.10819E-4
4365.234375; 1.11215E-4
4371.093750; 1.08809E-4
4376.953125; 1.06781E-4
4382.812500; 1.08431E-4
4388.671875; 9.49802E-5
4394.531250; 9.84392E-5
4400.390625; 1.08750E-4
4406.250000; 1.03198E-4
4412.109375; 1.07632E-4
4417.968750; 1.00275E-4
4423.828125; 1.05825E-4
4429.687500; 9.53036E-5
4435.546875; 1.00228E-4
4441.406250; 1.14324E-4
4447.265625; 1.22449E-4
4453.125000; 1.31435E-4
4458.984375; 1.22818E-4
4464.843750; 1.11703E-4
4470.703125; 1.02759E-4
4476.562500; 9.61115E-5
4482.421875; 1.01066E-4
4488.281250; 1.05008E-4
4494.140625; 1.01872E-4
4500.000000; 1.02368E-4
4505.859375; 1.21107E-4
4511.718750; 1.08681E-4
4517.578125; 1.09521E-4
4523.437500; 1.07960E-4
4529.296875; 1.15827E-4
4535.156250; 1.06834E-4
4541.015625; 1.15586E-4
4546.875000; 1.20073E-4
4552.734375; 1.19604E-4
4558.593750; 1.10803E-4
4564.453125; 1.05722E-4
4570.312500; 1.03620E-4
4576.171875; 1.04395E-4
4582.031250; 1.06368E-4
4587.890625; 1.05087E-4
4593.750000; 1.08374E-4
4599.609375; 1.08108E-4
4605.468750; 1.04348E-4
4611.328125; 9.76963E-5
4617.187500; 1.00096E-4
4623.046875; 1.09313E-4
4628.906250; 9.94494E-5
4634.765625; 9.93111E-5
4640.625000; 1.02266E-4
4646.484375; 1.16657E-4
4652.343750; 1.24295E-4
4658.203125; 1.24927E-4
4664.062500; 1.10902E-4
4669.921875; 9.91426E-5
4675.781250; 1.06393E-4
4681.640625; 1.13588E-4
4687.500000; 1.05574E-4
4693.359375; 1.01624E-4
4699.218750; 1.12851E-4
4705.078125; 1.07032E-4
4710.937500; 9.72544E-5
4716.796875; 1.08658E-4
4722.656250; 1.05701E-4
4728.515625; 1.10619E-4
4734.375000; 1.05280E-4
4740.234375; 1.04612E-4
4746.093750; 1.05273E-4
4751.953125; 1.02819E-4
4757.812500; 1.01407E-4
4763.671875; 1.03938E-4
4769.531250; 1.18797E-4
4775.390625; 1.21588E-4
4781.250000; 1.20523E-4
4787.109375; 1.13727E-4
4792.968750; 1.04973E-4
4798.828125; 1.07748E-4
4804.687500; 1.17999E-4
4810.546875; 1.14057E-4
4816.406250; 1.24429E-4
4822.265625; 1.31351E-4
4828.125000; 1.16620E-4
4833.984375; 1.18517E-4
4839.843750; 1.11238E-4
4845.703125; 1.16854E-4
4851.562500; 1.07617E-4
4857.421875; 1.10585E-4
4863.281250; 1.07007E-4
4869.140625; 1.08194E-4
4875.000000; 1.09917E-4
4880.859375; 1.13077E-4
4886.718750; 1.05460E-4
4892.578125; 1.05911E-4
4898.437500; 1.05008E-4
4904.296875; 1.02020E-4
4910.156250; 1.02129E-4
4916.015625; 1.10152E-4
4921.875000; 9.42661E-5
4927.734375; 1.08749E-4
4933.593750; 9.91230E-5
4939.453125; 1.07738E-4
4945.312500; 1.07178E-4
4951.171875; 1.06326E-4
4957.031250; 1.06590E-4
4962.890625; 1.01711E-4
4968.750000; 9.88091E-5
4974.609375; 1.03203E-4
4980.468750; 9.70836E-5
4986.328125; 9.75869E-5
4992.187500; 1.05328E-4
4998.046875; 1.09423E-4
5003.906250; 1.20138E-4
5009.765625; 1.19046E-4
5015.625000; 8.85712E-5
5021.484375; 9.72781E-5
5027.343750; 1.08681E-4
5033.203125; 1.06143E-4
5039.062500; 1.18005E-4
5044.921875; 1.08836E-4
5050.781250; 1.00861E-4
5056.640625; 1.01534E-4
5062.500000; 1.01148E-4
5068.359375; 1.14910E-4
5074.218750; 1.08555E-4
5080.078125; 9.85947E-5
5085.937500; 1.02157E-4
5091.796875; 1.21850E-4
5097.656250; 1.14995E-4
5103.515625; 9.63782E-5
5109.375000; 1.03742E-4
5115.234375; 1.11386E-4
5121.093750; 1.12225E-4
5126.953125; 1.16320E-4
5132.812500; 1.04276E-4
5138.671875; 1.04436E-4
5144.531250; 1.10272E-4
5150.390625; 1.13719E-4
5156.250000; 1.15132E-4
5162.109375; 1.15474E-4
5167.968750; 1.23074E-4
5173.828125; 1.12874E-4
5179.687500; 1.10266E-4
5185.546875; 1.02330E-4
5191.406250; 1.06376E-4
5197.265625; 1.00606E-4
5203.125000; 1.05955E-4
5208.984375; 1.11260E-4
5214.843750; 1.01661E-4
5220.703125; 1.05007E-4
5226.562500; 1.11568E-4
5232.421875; 1.12892E-4
5238.281250; 1.05877E-4
5244.140625; 1.05620E-4
5250.000000; 1.11390E-4
5255.859375; 1.16450E-4
5261.718750; 9.76623E-5
5267.578125; 9.79560E-5
5273.437500; 1.02615E-4
5279.296875; 1.07078E-4
5285.156250; 9.74856E-5
5291.015625; 1.08306E-4
5296.875000; 1.10138E-4
5302.734375; 1.08284E-4
5308.593750; 1.05099E-4
5314.453125; 1.17304E-4
5320.312500; 1.21505E-4
5326.171875; 1.13106E-4
5332.031250; 1.05870E-4
5337.890625; 1.05479E-4
5343.750000; 1.04554E-4
5349.609375; 1.11163E-4
5355.468750; 1.17060E-4
5361.328125; 1.06260E-4
5367.187500; 1.04350E-4
5373.046875; 1.10545E-4
5378.906250; 1.11903E-4
5384.765625; 9.84041E-5
5390.625000; 1.00468E-4
5396.484375; 1.06117E-4
5402.343750; 9.82950E-5
5408.203125; 1.00305E-4
5414.062500; 9.60325E-5
5419.921875; 9.58484E-5
5425.781250; 1.07492E-4
5431.640625; 1.03498E-4
5437.500000; 9.03085E-5
5443.359375; 9.81566E-5
5449.218750; 1.01748E-4
5455.078125; 9.79494E-5
5460.937500; 9.24671E-5
5466.796875; 9.77572E-5
5472.656250; 9.86954E-5
5478.515625; 1.14284E-4
5484.375000; 1.15959E-4
5490.234375; 1.14343E-4
5496.093750; 1.15544E-4
5501.953125; 1.05298E-4
5507.812500; 1.07739E-4
5513.671875; 1.16200E-4
5519.531250; 1.24440E-4
5525.390625; 1.16594E-4
5531.250000; 1.11409E-4
5537.109375; 1.06857E-4
5542.968750; 1.06220E-4
5548.828125; 1.26751E-4
5554.687500; 1.20941E-4
5560.546875; 1.17785E-4
5566.406250; 1.10719E-4
5572.265625; 1.19816E-4
5578.125000; 1.15619E-4
5583.984375; 1.20411E-4
5589.843750; 1.20371E-4
5595.703125; 1.09586E-4
5601.562500; 1.01409E-4
5607.421875; 1.09368E-4
5613.281250; 1.11429E-4
5619.140625; 1.10922E-4
5625.000000; 1.15832E-4
5630.859375; 1.06810E-4
5636.718750; 1.05291E-4
5642.578125; 1.18264E-4
5648.437500; 1.22240E-4
5654.296875; 1.13064E-4
5660.156250; 1.07068E-4
5666.015625; 1.08491E-4
5671.875000; 1.10358E-4
5677.734375; 1.09216E-4
5683.593750; 1.05826E-4
5689.453125; 1.11988E-4
5695.312500; 1.19607E-4
5701.171875; 1.01750E-4
5707.031250; 9.45553E-5
5712.890625; 1.08542E-4
5718.750000; 1.12823E-4
5724.609375; 1.04338E-4
5730.468750; 9.51120E-5
5736.328125; 8.90940E-5
5742.187500; 1.11582E-4
5748.046875; 1.12681E-4
5753.906250; 1.24923E-4
5759.765625; 1.12762E-4
5765.625000; 1.04140E-4
5771.484375; 1.12719E-4
5777.343750; 1.11023E-4
5783.203125; 1.04896E-4
5789.062500; 1.10963E-4
5794.921875; 1.15844E-4
5800.781250; 1.10118E-4
5806.640625; 1.03136E-4
5812.500000; 1.11269E-4
5818.359375; 1.12950E-4
5824.218750; 1.09908E-4
5830.078125; 9.70383E-5
5835.937500; 1.00084E-4
5841.796875; 9.76499E-5
5847.656250; 1.02942E-4
5853.515625; 1.11888E-4
5859.375000; 1.11031E-4
5865.234375; 1.15692E-4
5871.093750; 9.88594E-5
5876.953125; 9.41180E-5
5882.812500; 1.02312E-4
5888.671875; 1.10926E-4
5894.531250; 1.01962E-4
5900.390625; 1.11008E-4
5906.250000; 1.12151E-4
5912.109375; 9.03256E-5
5917.968750; 1.01301E-4
5923.828125; 1.06751E-4
5929.687500; 1.09389E-4
5935.546875; 1.26635E-4
5941.406250; 1.22132E-4
5947.265625; 1.09392E-4
5953.125000; 1.21229E-4
5958.984375; 1.21740E-4
5964.843750; 1.06593E-4
5970.703125; 1.20269E-4
5976.562500; 1.22955E-4
5982.421875; 1.14410E-4
5988.281250; 1.12750E-4
5994.140625; 1.13475E-4
6000.000000; 1.07973E-4
6005.859375; 9.22116E-5
6011.718750; 1.05366E-4
6017.578125; 1.03072E-4
6023.437500; 1.04631E-4
6029.296875; 1.06169E-4
6035.156250; 1.14296E-4
6041.015625; 1.10593E-4
6046.875000; 9.35838E-5
6052.734375; 1.00053E-4
6058.593750; 1.08327E-4
6064.453125; 1.00507E-4
6070.312500; 9.03938E-5
6076.171875; 9.51468E-5
6082.031250; 9.08082E-5
6087.890625; 9.97608E-5
6093.750000; 1.08430E-4
6099.609375; 9.37521E-5
6105.468750; 9.86903E-5
6111.328125; 1.06484E-4
6117.187500; 1.14369E-4
6123.046875; 1.08456E-4
6128.906250; 1.07458E-4
6134.765625; 1.17367E-4
6140.625000; 1.15721E-4
6146.484375; 1.01623E-4
6152.343750; 1.05002E-4
6158.203125; 1.08122E-4
6164.062500; 1.01986E-4
6169.921875; 9.75239E-5
6175.781250; 1.06472E-4
6181.640625; 1.01112E-4
6187.500000; 1.15135E-4
6193.359375; 1.09229E-4
6199.218750; 1.03983E-4
6205.078125; 9.87070E-5
6210.937500; 1.05890E-4
6216.796875; 1.13137E-4
6222.656250; 1.12193E-4
6228.515625; 1.00244E-4
6234.375000; 1.06490E-4
6240.234375; 1.08360E-4
6246.093750; 1.05691E-4
6251.953125; 1.12536E-4
6257.812500; 1.27359E-4
6263.671875; 1.27227E-4
6269.531250; 1.21953E-4
6275.390625; 1.04544E-4
6281.250000; 9.74906E-5
6287.109375; 9.98585E-5
6292.968750; 9.78874E-5
6298.828125; 1.03476E-4
6304.687500; 1.09235E-4
6310.546875; 1.01209E-4
6316.406250; 1.05904E-4
6322.265625; 1.08490E-4
6328.125000; 9.76796E-5
6333.984375; 1.07167E-4
6339.843750; 1.14209E-4
6345.703125; 1.12895E-4
6351.562500; 1.09621E-4
6357.421875; 1.15679E-4
6363.281250; 1.05186E-4
6369.140625; 1.08051E-4
6375.000000; 1.19096E-4
6380.859375; 1.03292E-4
6386.718750; 9.97403E-5
6392.578125; 1.03692E-4
6398.437500; 1.08737E-4
6404.296875; 1.09230E-4
6410.156250; 1.02156E-4
6416.015625; 1.10908E-4
6421.875000; 1.16711E-4
6427.734375; 1.01472E-4
6433.593750; 9.54372E-5
6439.453125; 9.90773E-5
6445.312500; 1.02353E-4
6451.171875; 9.80920E-5
6457.031250; 1.07876E-4
6462.890625; 1.12283E-4
6468.750000; 1.08870E-4
6474.609375; 1.03826E-4
6480.468750; 1.02622E-4
6486.328125; 1.03305E-4
6492.187500; 1.06588E-4
6498.046875; 1.20394E-4
6503.906250; 1.13574E-4
6509.765625; 1.18471E-4
6515.625000; 1.01343E-4
6521.484375; 1.08318E-4
6527.343750; 1.12095E-4
6533.203125; 1.07699E-4
6539.062500; 1.01421E-4
6544.921875; 1.07503E-4
6550.781250; 1.12477E-4
6556.640625; 1.02387E-4
6562.500000; 1.05546E-4
6568.359375; 1.09617E-4
6574.218750; 1.08404E-4
6580.078125; 1.16144E-4
6585.937500; 1.11664E-4
6591.796875; 1.11828E-4
6597.656250; 1.08489E-4
6603.515625; 1.03366E-4
6609.375000; 9.62268E-5
6615.234375; 9.81116E-5
6621.093750; 1.02500E-4
6626.953125; 9.94303E-5
6632.812500; 1.02999E-4
6638.671875; 1.02836E-4
6644.531250; 1.01205E-4
6650.390625; 9.46429E-5
6656.250000; 1.07185E-4
6662.109375; 1.07437E-4
6667.968750; 1.06803E-4
6673.828125; 1.04245E-4
6679.687500; 1.09946E-4
6685.546875; 1.10973E-4
6691.406250; 9.77208E-5
6697.265625; 1.06278E-4
6703.125000; 1.11017E-4
6708.984375; 1.01868E-4
6714.843750; 1.10595E-4
6720.703125; 1.15322E-4
6726.562500; 1.13427E-4
6732.421875; 1.04510E-4
6738.281250; 9.80093E-5
6744.140625; 1.04656E-4
6750.000000; 1.05564E-4
6755.859375; 1.20804E-4
6761.718750; 1.19017E-4
6767.578125; 1.21793E-4
6773.437500; 1.24767E-4
6779.296875; 1.11242E-4
6785.156250; 1.10033E-4
6791.015625; 1.14085E-4
6796.875000; 1.09624E-4
6802.734375; 1.06247E-4
6808.593750; 1.11351E-4
6814.453125; 1.15462E-4
6820.312500; 1.14392E-4
6826.171875; 1.10743E-4
6832.031250; 1.12371E-4
6837.890625; 1.04614E-4
6843.750000; 1.02959E-4
6849.609375; 1.07662E-4
6855.468750; 1.04564E-4
6861.328125; 1.00326E-4
6867.187500; 1.04737E-4
6873.046875; 1.14716E-4
6878.906250; 1.05760E-4
6884.765625; 8.93464E-5
6890.625000; 1.05117E-4
6896.484375; 1.01972E-4
6902.343750; 1.06175E-4
6908.203125; 1.10989E-4
6914.062500; 1.01088E-4
6919.921875; 1.00565E-4
6925.781250; 9.41470E-5
6931.640625; 9.70718E-5
6937.500000; 1.11166E-4
6943.359375; 1.15830E-4
6949.218750; 1.19571E-4
6955.078125; 1.14581E-4
6960.937500; 1.09971E-4
6966.796875; 1.11266E-4
6972.656250; 9.22604E-5
6978.515625; 9.73471E-5
6984.375000; 1.09877E-4
6990.234375; 1.08615E-4
6996.093750; 1.15402E-4
7001.953125; 1.10958E-4
7007.812500; 1.03304E-4
7013.671875; 1.06742E-4
7019.531250; 9.70407E-5
7025.390625; 9.73203E-5
7031.250000; 1.12011E-4
7037.109375; 1.13821E-4
7042.968750; 1.08074E-4
7048.828125; 1.03375E-4
7054.687500; 1.07409E-4
7060.546875; 1.03132E-4
7066.406250; 1.03627E-4
7072.265625; 1.17256E-4
7078.125000; 1.05671E-4
7083.984375; 1.13173E-4
7089.843750; 1.25752E-4
7095.703125; 1.14429E-4
7101.562500; 1.10723E-4
7107.421875; 1.12319E-4
7113.281250; 1.25307E-4
7119.140625; 1.09453E-4
7125.000000; 1.17310E-4
7130.859375; 1.15491E-4
7136.718750; 1.03237E-4
7142.578125; 1.08817E-4
7148.437500; 1.09142E-4
7154.296875; 1.04047E-4
7160.156250; 1.07880E-4
7166.015625; 9.74531E-5
7171.875000; 1.15704E-4
7177.734375; 1.07158E-4
7183.593750; 1.07443E-4
7189.453125; 1.16906E-4
7195.312500; 1.03237E-4
7201.171875; 9.72449E-5
7207.031250; 1.09626E-4
7212.890625; 1.07582E-4
7218.750000; 1.03928E-4
7224.609375; 1.00688E-4
7230.468750; 1.11253E-4
7236.328125; 1.04508E-4
7242.187500; 9.47345E-5
7248.046875; 1.02760E-4
7253.906250; 1.24565E-4
7259.765625; 1.18266E-4
7265.625000; 1.06868E-4
7271.484375; 9.74362E-5
7277.343750; 1.07641E-4
7283.203125; 1.12907E-4
7289.062500; 1.17513E-4
7294.921875; 1.30273E-4
7300.781250; 1.11832E-4
7306.640625; 1.07605E-4
7312.500000; 1.16298E-4
7318.359375; 1.13506E-4
7324.218750; 1.14233E-4
7330.078125; 1.14699E-4
7335.937500; 1.21242E-4
7341.796875; 1.32649E-4
7347.656250; 1.04432E-4
7353.515625; 9.18811E-5
7359.375000; 1.04398E-4
7365.234375; 1.29488E-4
7371.093750; 1.19557E-4
7376.953125; 1.06001E-4
7382.812500; 1.03335E-4
7388.671875; 1.04697E-4
7394.531250; 1.03218E-4
7400.390625; 9.93675E-5
7406.250000; 1.02376E-4
7412.109375; 9.97181E-5
7417.968750; 1.04732E-4
7423.828125; 1.23782E-4
7429.687500; 1.17508E-4
7435.546875; 1.02108E-4
7441.406250; 9.50481E-5
7447.265625; 9.38200E-5
7453.125000; 1.09291E-4
7458.984375; 1.12449E-4
7464.843750; 1.12122E-4
7470.703125; 1.07890E-4
7476.562500; 1.03900E-4
7482.421875; 9.76286E-5
7488.281250; 1.04062E-4
7494.140625; 1.11737E-4
7500.000000; 1.15252E-4
7505.859375; 1.17244E-4
7511.718750; 9.58101E-5
7517.578125; 1.06764E-4
7523.437500; 1.02492E-4
7529.296875; 9.11560E-5
7535.156250; 1.07994E-4
7541.015625; 1.09969E-4
7546.875000; 1.09682E-4
7552.734375; 1.10664E-4
7558.593750; 1.02534E-4
7564.453125; 1.09649E-4
7570.312500; 1.02867E-4
7576.171875; 1.08271E-4
7582.031250; 1.03687E-4
7587.890625; 1.15348E-4
7593.750000; 1.07533E-4
7599.609375; 1.00625E-4
7605.468750; 1.05360E-4
7611.328125; 1.12803E-4
7617.187500; 1.04377E-4
7623.046875; 1.14254E-4
7628.906250; 1.19226E-4
7634.765625; 1.08172E-4
7640.625000; 9.20428E-5
7646.484375; 9.73740E-5
7652.343750; 1.03640E-4
7658.203125; 1.21080E-4
7664.062500; 1.16344E-4
7669.921875; 9.47925E-5
7675.781250; 1.06856E-4
7681.640625; 1.06405E-4
7687.500000; 1.01113E-4
7693.359375; 1.06683E-4
7699.218750; 9.38136E-5
7705.078125; 1.08355E-4
7710.937500; 1.17232E-4
7716.796875; 1.09603E-4
7722.656250; 1.02639E-4
7728.515625; 9.86308E-5
7734.375000; 1.08616E-4
7740.234375; 1.06519E-4
7746.093750; 1.12092E-4
7751.953125; 1.04400E-4
7757.812500; 9.49470E-5
7763.671875; 9.06530E-5
7769.531250; 9.85364E-5
7775.390625; 1.06671E-4
7781.250000; 1.04259E-4
7787.109375; 1.10470E-4
7792.968750; 1.04082E-4
7798.828125; 1.07597E-4
7804.687500; 1.04868E-4
7810.546875; 1.02209E-4
7816.406250; 1.05479E-4
7822.265625; 1.19541E-4
7828.125000; 1.11551E-4
7833.984375; 9.98906E-5
7839.843750; 1.05947E-4
7845.703125; 1.14046E-4
7851.562500; 1.18207E-4
7857.421875; 1.12523E-4
7863.281250; 1.10623E-4
7869.140625; 1.10108E-4
7875.000000; 1.00707E-4
7880.859375; 1.14782E-4
7886.718750; 1.22399E-4
7892.578125; 1.16283E-4
7898.437500; 1.12847E-4
7904.296875; 1.00504E-4
7910.156250; 1.14391E-4
7916.015625; 1.12068E-4
7921.875000; 1.20026E-4
7927.734375; 1.08156E-4
7933.593750; 9.78725E-5
7939.453125; 8.80940E-5
7945.312500; 9.97317E-5
7951.171875; 1.07666E-4
7957.031250; 1.04228E-4
7962.890625; 1.07472E-4
7968.750000; 9.90395E-5
7974.609375; 1.06762E-4
7980.468750; 1.19092E-4
7986.328125; 1.02064E-4
7992.187500; 9.75667E-5
7998.046875; 1.10267E-4
8003.906250; 1.00621E-4
8009.765625; 9.02608E-5
8015.625000; 1.04744E-4
8021.484375; 1.18174E-4
8027.343750; 1.23701E-4
8033.203125; 1.06189E-4
8039.062500; 9.80802E-5
8044.921875; 1.12621E-4
8050.781250; 1.06751E-4
8056.640625; 9.93509E-5
8062.500000; 1.00605E-4
8068.359375; 1.04456E-4
8074.218750; 1.10753E-4
8080.078125; 1.12424E-4
8085.937500; 1.14742E-4
8091.796875; 1.16600E-4
8097.656250; 1.23056E-4
8103.515625; 1.09258E-4
8109.375000; 1.04512E-4
8115.234375; 9.80643E-5
8121.093750; 1.02824E-4
8126.953125; 9.72776E-5
8132.812500; 9.76203E-5
8138.671875; 1.08728E-4
8144.531250; 1.07532E-4
8150.390625; 1.05631E-4
8156.250000; 1.04777E-4
8162.109375; 9.87915E-5
8167.968750; 9.72510E-5
8173.828125; 1.13394E-4
8179.687500; 1.11278E-4
8185.546875; 9.58442E-5
8191.406250; 9.89517E-5
8197.265625; 1.13911E-4
8203.125000; 1.14145E-4
8208.984375; 1.23622E-4
8214.843750; 1.11946E-4
8220.703125; 1.14335E-4
8226.562500; 1.13039E-4
8232.421875; 1.04780E-4
8238.281250; 1.01181E-4
8244.140625; 1.11194E-4
8250.000000; 1.03271E-4
8255.859375; 1.06021E-4
8261.718750; 1.16507E-4
8267.578125; 1.11707E-4
8273.437500; 1.00386E-4
8279.296875; 9.87157E-5
8285.156250; 1.08129E-4
8291.015625; 1.04131E-4
8296.875000; 1.00579E-4
8302.734375; 1.00218E-4
8308.593750; 1.09286E-4
8314.453125; 1.15154E-4
8320.312500; 1.07956E-4
8326.171875; 9.80234E-5
8332.031250; 1.05001E-4
8337.890625; 1.10279E-4
8343.750000; 1.07554E-4
8349.609375; 1.19068E-4
8355.468750; 1.04103E-4
8361.328125; 9.80653E-5
8367.187500; 1.09634E-4
8373.046875; 1.05951E-4
8378.906250; 9.70924E-5
8384.765625; 9.97287E-5
8390.625000; 1.13017E-4
8396.484375; 9.95850E-5
8402.343750; 9.39746E-5
8408.203125; 9.78681E-5
8414.062500; 1.05665E-4
8419.921875; 1.02359E-4
8425.781250; 1.17558E-4
8431.640625; 1.20312E-4
8437.500000; 1.13863E-4
8443.359375; 1.06291E-4
8449.218750; 1.13726E-4
8455.078125; 1.18587E-4
8460.937500; 1.20446E-4
8466.796875; 9.78737E-5
8472.656250; 9.93836E-5
8478.515625; 1.19850E-4
8484.375000; 1.19295E-4
8490.234375; 1.20868E-4
8496.093750; 1.12283E-4
8501.953125; 1.04978E-4
8507.812500; 1.10814E-4
8513.671875; 1.13075E-4
8519.531250; 1.05020E-4
8525.390625; 1.05076E-4
8531.250000; 1.13396E-4
8537.109375; 1.12019E-4
8542.968750; 1.05825E-4
8548.828125; 1.04876E-4
8554.687500; 1.00281E-4
8560.546875; 1.19025E-4
8566.406250; 1.27049E-4
8572.265625; 9.74727E-5
8578.125000; 9.58376E-5
8583.984375; 1.07709E-4
8589.843750; 1.03208E-4
8595.703125; 1.11436E-4
8601.562500; 1.11208E-4
8607.421875; 1.07768E-4
8613.281250; 1.05172E-4
8619.140625; 1.05725E-4
8625.000000; 1.02945E-4
8630.859375; 1.10454E-4
8636.718750; 1.15442E-4
8642.578125; 1.10515E-4
8648.437500; 1.13665E-4
8654.296875; 1.14777E-4
8660.156250; 1.19493E-4
8666.015625; 1.16880E-4
8671.875000; 1.05652E-4
8677.734375; 1.01263E-4
8683.593750; 1.13013E-4
8689.453125; 1.01726E-4
8695.312500; 9.54547E-5
8701.171875; 1.10339E-4
8707.031250; 1.17853E-4
8712.890625; 1.11176E-4
8718.750000; 9.98662E-5
8724.609375; 1.01401E-4
8730.468750; 1.00087E-4
8736.328125; 1.06335E-4
8742.187500; 1.02552E-4
8748.046875; 1.13629E-4
8753.906250; 1.01435E-4
8759.765625; 1.09830E-4
8765.625000; 1.07749E-4
8771.484375; 1.06270E-4
8777.343750; 1.13216E-4
8783.203125; 1.04379E-4
8789.062500; 1.01822E-4
8794.921875; 1.03889E-4
8800.781250; 1.03538E-4
8806.640625; 1.03780E-4
8812.500000; 1.07247E-4
8818.359375; 1.13245E-4
8824.218750; 1.16433E-4
8830.078125; 1.12964E-4
8835.937500; 1.28755E-4
8841.796875; 1.25934E-4
8847.656250; 1.09885E-4
8853.515625; 1.04961E-4
8859.375000; 1.08645E-4
8865.234375; 1.23160E-4
8871.093750; 1.19197E-4
8876.953125; 1.09984E-4
8882.812500; 1.01292E-4
8888.671875; 1.10882E-4
8894.531250; 1.09873E-4
8900.390625; 1.07428E-4
8906.250000; 1.04847E-4
8912.109375; 1.02439E-4
8917.968750; 8.85825E-5
8923.828125; 1.00038E-4
8929.687500; 1.07945E-4
8935.546875; 1.03228E-4
8941.406250; 1.05453E-4
8947.265625; 1.03334E-4
8953.125000; 9.21568E-5
8958.984375; 9.77198E-5
8964.843750; 1.06806E-4
8970.703125; 1.08931E-4
8976.562500; 1.11084E-4
8982.421875; 1.06143E-4
8988.281250; 1.05722E-4
8994.140625; 1.07195E-4
9000.000000; 1.11515E-4
9005.859375; 1.12314E-4
9011.718750; 1.14029E-4
9017.578125; 1.11217E-4
9023.437500; 1.03411E-4
9029.296875; 1.04667E-4
9035.156250; 1.08180E-4
9041.015625; 1.11920E-4
9046.875000; 1.01612E-4
9052.734375; 1.17984E-4
9058.593750; 1.08399E-4
9064.453125; 1.06598E-4
9070.312500; 9.96480E-5
9076.171875; 1.10846E-4
9082.031250; 1.25609E-4
9087.890625; 1.22416E-4
9093.750000; 1.13034E-4
9099.609375; 1.25497E-4
9105.468750; 1.28308E-4
9111.328125; 1.22766E-4
9117.187500; 1.01692E-4
9123.046875; 1.03733E-4
9128.906250; 1.06742E-4
9134.765625; 1.03700E-4
9140.625000; 1.18165E-4
9146.484375; 1.17194E-4
9152.343750; 9.81687E-5
9158.203125; 1.01766E-4
9164.062500; 1.01068E-4
9169.921875; 1.00752E-4
9175.781250; 1.03043E-4
9181.640625; 1.06182E-4
9187.500000; 1.05084E-4
9193.359375; 1.10236E-4
9199.218750; 1.11389E-4
9205.078125; 1.11868E-4
9210.937500; 1.04784E-4
9216.796875; 1.06973E-4
9222.656250; 1.13690E-4
9228.515625; 1.16764E-4
9234.375000; 1.14944E-4
9240.234375; 1.19509E-4
9246.093750; 1.09603E-4
9251.953125; 1.10154E-4
9257.812500; 1.02198E-4
9263.671875; 1.01993E-4
9269.531250; 1.16643E-4
9275.390625; 1.02139E-4
9281.250000; 9.56592E-5
9287.109375; 9.97717E-5
9292.968750; 1.02459E-4
9298.828125; 1.08408E-4
9304.687500; 1.12660E-4
9310.546875; 1.18238E-4
9316.406250; 1.13485E-4
9322.265625; 1.00283E-4
9328.125000; 8.75982E-5
9333.984375; 1.01378E-4
9339.843750; 1.04682E-4
9345.703125; 1.03979E-4
9351.562500; 1.05815E-4
9357.421875; 1.04101E-4
9363.281250; 1.00653E-4
9369.140625; 1.07662E-4
9375.000000; 1.15426E-4
9380.859375; 1.19107E-4
9386.718750; 1.06588E-4
9392.578125; 1.01278E-4
9398.437500; 9.87320E-5
9404.296875; 1.16735E-4
9410.156250; 1.10699E-4
9416.015625; 1.02887E-4
9421.875000; 1.06729E-4
9427.734375; 8.94788E-5
9433.593750; 1.02020E-4
9439.453125; 1.14280E-4
9445.312500; 1.04757E-4
9451.171875; 9.80570E-5
9457.031250; 1.16565E-4
9462.890625; 1.17624E-4
9468.750000; 9.98748E-5
9474.609375; 1.00188E-4
9480.468750; 1.06679E-4
9486.328125; 1.00473E-4
9492.187500; 1.01881E-4
9498.046875; 1.11678E-4
9503.906250; 1.02381E-4
9509.765625; 1.09258E-4
9515.625000; 1.09420E-4
9521.484375; 1.08138E-4
9527.343750; 1.07656E-4
9533.203125; 1.04758E-4
9539.062500; 1.13319E-4
9544.921875; 1.17782E-4
9550.781250; 1.13235E-4
9556.640625; 1.03253E-4
9562.500000; 1.10153E-4
9568.359375; 1.10451E-4
9574.218750; 1.11334E-4
9580.078125; 1.05383E-4
9585.937500; 1.06639E-4
9591.796875; 1.17843E-4
9597.656250; 1.09912E-4
9603.515625; 1.17785E-4
9609.375000; 1.18540E-4
9615.234375; 1.09710E-4
9621.093750; 1.16189E-4
9626.953125; 1.11637E-4
9632.812500; 1.00305E-4
9638.671875; 1.08220E-4
9644.531250; 1.04714E-4
9650.390625; 9.66025E-5
9656.250000; 9.65417E-5
9662.109375; 9.71966E-5
9667.968750; 9.99430E-5
9673.828125; 9.41309E-5
9679.687500; 1.00921E-4
9685.546875; 1.23295E-4
9691.406250; 1.12824E-4
9697.265625; 9.38937E-5
9703.125000; 1.03401E-4
9708.984375; 1.05355E-4
9714.843750; 1.05119E-4
9720.703125; 1.21344E-4
9726.562500; 1.14774E-4
9732.421875; 1.07171E-4
9738.281250; 1.08015E-4
9744.140625; 1.19108E-4
9750.000000; 1.10114E-4
9755.859375; 1.13066E-4
9761.718750; 1.10468E-4
9767.578125; 1.10661E-4
9773.437500; 1.13425E-4
9779.296875; 1.14033E-4
9785.156250; 9.81092E-5
9791.015625; 1.05163E-4
9796.875000; 1.09916E-4
9802.734375; 1.08274E-4
9808.593750; 1.02790E-4
9814.453125; 1.03170E-4
9820.312500; 1.07333E-4
9826.171875; 1.07171E-4
9832.031250; 1.10321E-4
9837.890625; 1.19098E-4
9843.750000; 1.00045E-4
9849.609375; 1.11823E-4
9855.468750; 1.09336E-4
9861.328125; 9.31113E-5
9867.187500; 1.00935E-4
9873.046875; 1.06537E-4
9878.906250; 1.02123E-4
9884.765625; 9.65481E-5
9890.625000; 9.17546E-5
9896.484375; 9.76489E-5
9902.343750; 1.02753E-4
9908.203125; 1.05571E-4
9914.062500; 1.09273E-4
9919.921875; 1.05657E-4
9925.781250; 1.13059E-4
9931.640625; 1.15154E-4
9937.500000; 1.03256E-4
9943.359375; 1.09875E-4
9949.218750; 1.05931E-4
9955.078125; 1.05518E-4
9960.937500; 1.13880E-4
9966.796875; 1.09447E-4
9972.656250; 1.00623E-4
9978.515625; 1.14984E-4
9984.375000; 1.12724E-4
9990.234375; 1.08517E-4
9996.093750; 1.15437E-4
10001.953125; 1.18190E-4
10007.812500; 9.61250E-5
10013.671875; 8.73590E-5
10019.531250; 1.03843E-4
10025.390625; 1.15549E-4
10031.250000; 1.10295E-4
10037.109375; 1.12257E-4
10042.968750; 1.07302E-4
10048.828125; 1.11073E-4
10054.687500; 1.14509E-4
10060.546875; 9.94775E-5
10066.406250; 1.01584E-4
10072.265625; 1.15800E-4
10078.125000; 1.20569E-4
10083.984375; 1.17785E-4
10089.843750; 1.07151E-4
10095.703125; 1.12438E-4
10101.562500; 1.04766E-4
10107.421875; 1.08748E-4
10113.281250; 1.02889E-4
10119.140625; 1.01124E-4
10125.000000; 1.01316E-4
10130.859375; 1.08998E-4
10136.718750; 1.12675E-4
10142.578125; 1.15720E-4
10148.437500; 1.19185E-4
10154.296875; 1.03910E-4
10160.156250; 1.10312E-4
10166.015625; 1.11479E-4
10171.875000; 1.07962E-4
10177.734375; 1.08077E-4
10183.593750; 1.00233E-4
10189.453125; 1.03568E-4
10195.312500; 9.86582E-5
10201.171875; 1.15196E-4
10207.031250; 1.09085E-4
10212.890625; 9.70905E-5
10218.750000; 1.00426E-4
10224.609375; 1.01221E-4
10230.468750; 1.00663E-4
10236.328125; 1.00754E-4
10242.187500; 1.00907E-4
10248.046875; 9.64502E-5
10253.906250; 1.05184E-4
10259.765625; 9.91961E-5
10265.625000; 1.02517E-4
10271.484375; 1.01435E-4
10277.343750; 1.00785E-4
10283.203125; 1.11856E-4
10289.062500; 1.19575E-4
10294.921875; 1.26153E-4
10300.781250; 1.23076E-4
10306.640625; 1.10136E-4
10312.500000; 1.01363E-4
10318.359375; 1.10083E-4
10324.218750; 1.00502E-4
10330.078125; 1.01404E-4
10335.937500; 1.04405E-4
10341.796875; 9.65472E-5
10347.656250; 1.05464E-4
10353.515625; 1.21337E-4
10359.375000; 1.18771E-4
10365.234375; 1.08713E-4
10371.093750; 1.12095E-4
10376.953125; 1.04855E-4
10382.812500; 1.00524E-4
10388.671875; 1.10254E-4
10394.531250; 1.07130E-4
10400.390625; 1.05724E-4
10406.250000; 1.17855E-4
10412.109375; 1.06089E-4
10417.968750; 1.03197E-4
10423.828125; 1.12978E-4
10429.687500; 1.11218E-4
10435.546875; 1.08362E-4
10441.406250; 1.14073E-4
10447.265625; 1.03462E-4
10453.125000; 1.04061E-4
10458.984375; 1.06779E-4
10464.843750; 1.08141E-4
10470.703125; 1.05484E-4
10476.562500; 1.15009E-4
10482.421875; 1.04003E-4
10488.281250; 9.83030E-5
10494.140625; 1.05983E-4
10500.000000; 1.31482E-4
10505.859375; 1.21553E-4
10511.718750; 1.11623E-4
10517.578125; 1.04581E-4
10523.437500; 1.03595E-4
10529.296875; 1.14034E-4
10535.156250; 1.04955E-4
10541.015625; 1.11260E-4
10546.875000; 1.15505E-4
10552.734375; 1.22398E-4
10558.593750; 1.05277E-4
10564.453125; 1.18197E-4
10570.312500; 1.21449E-4
10576.171875; 1.06627E-4
10582.031250; 1.07995E-4
10587.890625; 1.04909E-4
10593.750000; 1.00375E-4
10599.609375; 9.55975E-5
10605.468750; 1.09859E-4
10611.328125; 1.06396E-4
10617.187500; 1.12287E-4
10623.046875; 1.14963E-4
10628.906250; 1.07750E-4
10634.765625; 1.05393E-4
10640.625000; 1.21227E-4
10646.484375; 1.17845E-4
10652.343750; 1.07871E-4
10658.203125; 1.05934E-4
10664.062500; 9.53684E-5
10669.921875; 1.04235E-4
10675.781250; 1.00092E-4
10681.640625; 1.00570E-4
10687.500000; 1.15917E-4
10693.359375; 1.21663E-4
10699.218750; 1.03233E-4
10705.078125; 1.03250E-4
10710.937500; 1.07807E-4
10716.796875; 1.08288E-4
10722.656250; 1.06184E-4
10728.515625; 1.08028E-4
10734.375000; 9.96542E-5
10740.234375; 1.07038E-4
10746.093750; 1.11295E-4
10751.953125; 1.12741E-4
10757.812500; 1.05688E-4
10763.671875; 1.10209E-4
10769.531250; 1.11510E-4
10775.390625; 1.06517E-4
10781.250000; 9.68651E-5
10787.109375; 9.82596E-5
10792.968750; 1.12077E-4
10798.828125; 1.14871E-4
10804.687500; 1.10294E-4
10810.546875; 1.16866E-4
10816.406250; 1.21105E-4
10822.265625; 1.19057E-4
10828.125000; 1.14369E-4
10833.984375; 9.90739E-5
10839.843750; 1.01063E-4
10845.703125; 1.19656E-4
10851.562500; 1.22742E-4
10857.421875; 1.06022E-4
10863.281250; 1.05773E-4
10869.140625; 9.86738E-5
10875.000000; 9.27408E-5
10880.859375; 1.03133E-4
10886.718750; 9.86200E-5
10892.578125; 9.12677E-5
10898.437500; 9.77751E-5
10904.296875; 9.69146E-5
10910.156250; 1.05177E-4
10916.015625; 1.06625E-4
10921.875000; 1.08940E-4
10927.734375; 1.03219E-4
10933.593750; 9.93316E-5
10939.453125; 1.14906E-4
10945.312500; 1.16695E-4
10951.171875; 1.07287E-4
10957.031250; 1.08816E-4
10962.890625; 1.09148E-4
10968.750000; 1.13649E-4
10974.609375; 1.10850E-4
10980.468750; 9.94751E-5
10986.328125; 1.13363E-4
10992.187500; 1.16685E-4
10998.046875; 1.05137E-4
11003.906250; 1.09891E-4
11009.765625; 1.08729E-4
11015.625000; 1.07270E-4
11021.484375; 1.10381E-4
11027.343750; 1.03507E-4
11033.203125; 9.97287E-5
11039.062500; 1.01053E-4
11044.921875; 1.10980E-4
11050.781250; 1.11010E-4
11056.640625; 9.55544E-5
11062.500000; 1.03578E-4
11068.359375; 1.11093E-4
11074.218750; 1.21412E-4
11080.078125; 1.12608E-4
11085.937500; 9.63485E-5
11091.796875; 1.10198E-4
11097.656250; 1.15788E-4
11103.515625; 1.14764E-4
11109.375000; 1.09085E-4
11115.234375; 1.07228E-4
11121.093750; 1.04393E-4
11126.953125; 1.01891E-4
11132.812500; 1.12954E-4
11138.671875; 1.16552E-4
11144.531250; 1.16349E-4
11150.390625; 1.06396E-4
11156.250000; 1.06263E-4
11162.109375; 1.09600E-4
11167.968750; 1.06750E-4
11173.828125; 9.86341E-5
11179.687500; 1.01232E-4
11185.546875; 1.07762E-4
11191.406250; 1.17832E-4
11197.265625; 1.02612E-4
11203.125000; 9.68661E-5
11208.984375; 1.03920E-4
11214.843750; 1.01908E-4
11220.703125; 1.04335E-4
11226.562500; 8.79672E-5
11232.421875; 1.01093E-4
11238.281250; 1.08180E-4
11244.140625; 1.19170E-4
11250.000000; 1.01165E-4
11255.859375; 9.00412E-5
11261.718750; 1.00875E-4
11267.578125; 9.66973E-5
11273.437500; 9.70805E-5
11279.296875; 8.66413E-5
11285.156250; 1.06275E-4
11291.015625; 1.05669E-4
11296.875000; 1.01243E-4
11302.734375; 1.10044E-4
11308.593750; 1.02730E-4
11314.453125; 1.00695E-4
11320.312500; 1.04499E-4
11326.171875; 1.10264E-4
11332.031250; 1.12524E-4
11337.890625; 1.09024E-4
11343.750000; 9.90325E-5
11349.609375; 9.55937E-5
11355.468750; 8.49564E-5
11361.328125; 1.01854E-4
11367.187500; 9.97890E-5
11373.046875; 1.07574E-4
11378.906250; 1.10050E-4
11384.765625; 1.17302E-4
11390.625000; 1.16158E-4
11396.484375; 1.16038E-4
11402.343750; 1.06808E-4
11408.203125; 1.10609E-4
11414.062500; 1.15848E-4
11419.921875; 1.17698E-4
11425.781250; 1.08191E-4
11431.640625; 1.16310E-4
11437.500000; 1.22077E-4
11443.359375; 1.12175E-4
11449.218750; 1.11957E-4
11455.078125; 1.12277E-4
11460.937500; 1.05738E-4
11466.796875; 8.82998E-5
11472.656250; 9.46463E-5
11478.515625; 1.06686E-4
11484.375000; 9.99711E-5
11490.234375; 1.08998E-4
11496.093750; 1.21351E-4
11501.953125; 1.13628E-4
11507.812500; 1.09759E-4
11513.671875; 1.19940E-4
11519.531250; 1.20830E-4
11525.390625; 1.10079E-4
11531.250000; 1.05246E-4
11537.109375; 1.02391E-4
11542.968750; 1.10941E-4
11548.828125; 1.07119E-4
11554.687500; 1.08591E-4
11560.546875; 1.01932E-4
11566.406250; 1.04707E-4
11572.265625; 1.04416E-4
11578.125000; 1.08992E-4
11583.984375; 1.16101E-4
11589.843750; 1.05253E-4
11595.703125; 9.96118E-5
11601.562500; 1.08226E-4
11607.421875; 1.16394E-4
11613.281250; 9.76280E-5
11619.140625; 1.02471E-4
11625.000000; 1.05183E-4
11630.859375; 1.08876E-4
11636.718750; 1.11450E-4
11642.578125; 1.07454E-4
11648.437500; 1.06507E-4
11654.296875; 1.05869E-4
11660.156250; 9.85027E-5
11666.015625; 1.11492E-4
11671.875000; 1.09402E-4
11677.734375; 1.13427E-4
11683.593750; 1.06745E-4
11689.453125; 1.10696E-4
11695.312500; 1.05495E-4
11701.171875; 1.06273E-4
11707.031250; 1.09915E-4
11712.890625; 1.07493E-4
11718.750000; 9.52299E-5
11724.609375; 9.27509E-5
11730.468750; 9.29259E-5
11736.328125; 1.18815E-4
11742.187500; 1.28471E-4
11748.046875; 1.16330E-4
11753.906250; 1.17570E-4
11759.765625; 1.28613E-4
11765.625000; 1.19308E-4
11771.484375; 9.67264E-5
11777.343750; 1.02583E-4
11783.203125; 1.14806E-4
11789.062500; 1.13627E-4
11794.921875; 9.94806E-5
11800.781250; 1.05927E-4
11806.640625; 1.17527E-4
11812.500000; 9.98109E-5
11818.359375; 9.72416E-5
11824.218750; 1.02040E-4
11830.078125; 9.02983E-5
11835.937500; 9.84058E-5
11841.796875; 1.08257E-4
11847.656250; 1.09427E-4
11853.515625; 9.10207E-5
11859.375000; 1.01684E-4
11865.234375; 1.17165E-4
11871.093750; 1.09522E-4
11876.953125; 1.03880E-4
11882.812500; 1.08086E-4
11888.671875; 1.02773E-4
11894.531250; 1.13086E-4
11900.390625; 1.06056E-4
11906.250000; 1.11572E-4
11912.109375; 1.13938E-4
11917.968750; 9.72501E-5
11923.828125; 9.89499E-5
11929.687500; 1.11503E-4
11935.546875; 1.12209E-4
11941.406250; 1.07825E-4
11947.265625; 1.03407E-4
11953.125000; 1.18283E-4
11958.984375; 1.22068E-4
11964.843750; 1.04137E-4
11970.703125; 9.87063E-5
11976.562500; 9.93375E-5
11982.421875; 1.06769E-4
11988.281250; 1.12840E-4
11994.140625; 1.03622E-4
12000.000000; 9.29412E-5
12005.859375; 9.27255E-5
12011.718750; 9.93656E-5
12017.578125; 1.08603E-4
12023.437500; 1.03677E-4
12029.296875; 1.12867E-4
12035.156250; 1.14935E-4
12041.015625; 1.09754E-4
12046.875000; 1.06008E-4
12052.734375; 9.93307E-5
12058.593750; 1.04526E-4
12064.453125; 9.84297E-5
12070.312500; 8.91272E-5
12076.171875; 9.80406E-5
12082.031250; 1.08417E-4
12087.890625; 1.12764E-4
12093.750000; 1.15484E-4
12099.609375; 1.00345E-4
12105.468750; 9.19878E-5
12111.328125; 1.04688E-4
12117.187500; 9.60896E-5
12123.046875; 1.04919E-4
12128.906250; 1.07366E-4
12134.765625; 1.10808E-4
12140.625000; 1.10055E-4
12146.484375; 1.19079E-4
12152.343750; 1.10133E-4
12158.203125; 1.08675E-4
12164.062500; 9.54255E-5
12169.921875; 9.99672E-5
12175.781250; 1.00368E-4
12181.640625; 8.96923E-5
12187.500000; 9.74648E-5
12193.359375; 9.99620E-5
12199.218750; 9.83058E-5
12205.078125; 1.11602E-4
12210.937500; 9.84009E-5
12216.796875; 1.13281E-4
12222.656250; 1.22163E-4
12228.515625; 1.12212E-4
12234.375000; 1.11180E-4
12240.234375; 1.00703E-4
12246.093750; 1.08214E-4
12251.953125; 1.18590E-4
12257.812500; 1.07938E-4
12263.671875; 9.72712E-5
12269.531250; 1.03563E-4
12275.390625; 1.02095E-4
12281.250000; 1.02976E-4
12287.109375; 1.04942E-4
12292.968750; 1.04246E-4
12298.828125; 9.70366E-5
12304.687500; 1.06698E-4
12310.546875; 1.15505E-4
12316.406250; 1.06955E-4
12322.265625; 1.09443E-4
12328.125000; 1.20697E-4
12333.984375; 1.04501E-4
12339.843750; 9.73130E-5
12345.703125; 9.88188E-5
12351.562500; 1.06860E-4
12357.421875; 9.87284E-5
12363.281250; 9.59469E-5
12369.140625; 9.93684E-5
12375.000000; 9.67579E-5
12380.859375; 1.02087E-4
12386.718750; 8.84378E-5
12392.578125; 9.35408E-5
12398.437500; 9.60075E-5
12404.296875; 1.10309E-4
12410.156250; 1.12708E-4
12416.015625; 1.18084E-4
12421.875000; 9.77797E-5
12427.734375; 1.07660E-4
12433.593750; 1.19550E-4
12439.453125; 1.11889E-4
12445.312500; 1.00827E-4
12451.171875; 1.07856E-4
12457.031250; 1.07083E-4
12462.890625; 1.11401E-4
12468.750000; 1.10936E-4
12474.609375; 1.08763E-4
12480.468750; 1.03181E-4
12486.328125; 1.02506E-4
12492.187500; 9.88916E-5
12498.046875; 9.51981E-5
12503.906250; 1.05028E-4
12509.765625; 1.01880E-4
12515.625000; 9.77742E-5
12521.484375; 9.77854E-5
12527.343750; 1.08814E-4
12533.203125; 9.73344E-5
12539.062500; 9.21520E-5
12544.921875; 8.70988E-5
12550.781250; 9.34754E-5
12556.640625; 9.41013E-5
12562.500000; 1.05031E-4
12568.359375; 1.07797E-4
12574.218750; 1.06445E-4
12580.078125; 1.15815E-4
12585.937500; 1.10931E-4
12591.796875; 1.02669E-4
12597.656250; 1.09232E-4
12603.515625; 1.09748E-4
12609.375000; 1.07355E-4
12615.234375; 1.11089E-4
12621.093750; 1.03875E-4
12626.953125; 1.05073E-4
12632.812500; 1.02950E-4
12638.671875; 1.16401E-4
12644.531250; 1.11360E-4
12650.390625; 1.00546E-4
12656.250000; 1.20003E-4
12662.109375; 1.05270E-4
12667.968750; 9.88301E-5
12673.828125; 1.00038E-4
12679.687500; 1.02876E-4
12685.546875; 1.10883E-4
12691.406250; 1.04152E-4
12697.265625; 1.07006E-4
12703.125000; 1.22524E-4
12708.984375; 1.11374E-4
12714.843750; 1.02172E-4
12720.703125; 9.64575E-5
12726.562500; 1.05740E-4
12732.421875; 1.09171E-4
12738.281250; 9.81449E-5
12744.140625; 9.08839E-5
12750.000000; 9.62779E-5
12755.859375; 1.02398E-4
12761.718750; 1.06697E-4
12767.578125; 1.15699E-4
12773.437500; 1.09300E-4
12779.296875; 1.03953E-4
12785.156250; 1.03593E-4
12791.015625; 9.73417E-5
12796.875000; 9.56655E-5
12802.734375; 9.56098E-5
12808.593750; 1.01810E-4
12814.453125; 1.01155E-4
12820.312500; 9.37388E-5
12826.171875; 1.04670E-4
12832.031250; 9.77818E-5
12837.890625; 1.08651E-4
12843.750000; 1.11986E-4
12849.609375; 1.03794E-4
12855.468750; 1.09906E-4
12861.328125; 1.07132E-4
12867.187500; 1.02568E-4
12873.046875; 1.09657E-4
12878.906250; 1.26032E-4
12884.765625; 1.12917E-4
12890.625000; 9.37953E-5
12896.484375; 9.05953E-5
12902.343750; 1.02627E-4
12908.203125; 1.19437E-4
12914.062500; 1.10972E-4
12919.921875; 9.27687E-5
12925.781250; 9.91077E-5
12931.640625; 1.06340E-4
12937.500000; 1.16853E-4
12943.359375; 1.11706E-4
12949.218750; 1.15026E-4
12955.078125; 1.03188E-4
12960.937500; 9.52918E-5
12966.796875; 9.75863E-5
12972.656250; 1.04669E-4
12978.515625; 9.92897E-5
12984.375000; 1.09384E-4
12990.234375; 1.08684E-4
12996.093750; 1.08957E-4
13001.953125; 1.10209E-4
13007.812500; 1.08417E-4
13013.671875; 1.05797E-4
13019.531250; 1.15348E-4
13025.390625; 1.17541E-4
13031.250000; 1.18671E-4
13037.109375; 1.04482E-4
13042.968750; 1.00191E-4
13048.828125; 1.12724E-4
13054.687500; 1.07390E-4
13060.546875; 1.01550E-4
13066.406250; 1.16096E-4
13072.265625; 1.06135E-4
13078.125000; 1.02710E-4
13083.984375; 1.17475E-4
13089.843750; 1.07434E-4
13095.703125; 1.13215E-4
13101.562500; 1.19715E-4
13107.421875; 1.13492E-4
13113.281250; 1.05390E-4
13119.140625; 1.11044E-4
13125.000000; 1.11541E-4
13130.859375; 1.11811E-4
13136.718750; 1.04206E-4
13142.578125; 9.87390E-5
13148.437500; 1.06986E-4
13154.296875; 1.17263E-4
13160.156250; 1.13636E-4
13166.015625; 9.98435E-5
13171.875000; 1.03371E-4
13177.734375; 1.18046E-4
13183.593750; 9.70137E-5
13189.453125; 8.88072E-5
13195.312500; 9.83317E-5
13201.171875; 1.02600E-4
13207.031250; 1.06761E-4
13212.890625; 1.10754E-4
13218.750000; 1.08720E-4
13224.609375; 1.02471E-4
13230.468750; 1.02635E-4
13236.328125; 1.04022E-4
13242.187500; 1.07497E-4
13248.046875; 1.05294E-4
13253.906250; 1.04675E-4
13259.765625; 9.60833E-5
13265.625000; 9.72287E-5
13271.484375; 9.79344E-5
13277.343750; 1.08920E-4
13283.203125; 1.05607E-4
13289.062500; 1.02514E-4
13294.921875; 1.06136E-4
13300.781250; 1.01475E-4
13306.640625; 1.02527E-4
13312.500000; 9.71447E-5
13318.359375; 9.13697E-5
13324.218750; 1.07273E-4
13330.078125; 1.13864E-4
13335.937500; 9.65236E-5
13341.796875; 1.04298E-4
13347.656250; 1.13554E-4
13353.515625; 1.11619E-4
13359.375000; 1.09230E-4
13365.234375; 9.68364E-5
13371.093750; 9.28789E-5
13376.953125; 8.47852E-5
13382.812500; 9.13011E-5
13388.671875; 9.06013E-5
13394.531250; 1.04037E-4
13400.390625; 1.01401E-4
13406.250000; 1.04217E-4
13412.109375; 9.86283E-5
13417.968750; 9.92293E-5
13423.828125; 9.58197E-5
13429.687500; 9.44141E-5
13435.546875; 9.46791E-5
13441.406250; 9.61896E-5
13447.265625; 1.01450E-4
13453.125000; 9.47343E-5
13458.984375; 1.10280E-4
13464.843750; 1.18469E-4
13470.703125; 1.05893E-4
13476.562500; 1.03386E-4
13482.421875; 1.02324E-4
13488.281250; 9.85790E-5
13494.140625; 1.02048E-4
13500.000000; 1.04549E-4
13505.859375; 1.11520E-4
13511.718750; 1.09873E-4
13517.578125; 1.14807E-4
13523.437500; 1.00608E-4
13529.296875; 9.94873E-5
13535.156250; 1.09569E-4
13541.015625; 1.01274E-4
13546.875000; 1.03726E-4
13552.734375; 1.20047E-4
13558.593750; 1.21827E-4
13564.453125; 1.16039E-4
13570.312500; 1.09938E-4
13576.171875; 1.08639E-4
13582.031250; 1.11580E-4
13587.890625; 1.06687E-4
13593.750000; 1.04918E-4
13599.609375; 1.00386E-4
13605.468750; 1.00597E-4
13611.328125; 1.07116E-4
13617.187500; 1.07154E-4
13623.046875; 1.08827E-4
13628.906250; 1.06317E-4
13634.765625; 1.16192E-4
13640.625000; 1.08981E-4
13646.484375; 1.04725E-4
13652.343750; 1.04303E-4
13658.203125; 1.10124E-4
13664.062500; 1.01733E-4
13669.921875; 9.14333E-5
13675.781250; 9.96698E-5
13681.640625; 1.03745E-4
13687.500000; 1.09296E-4
13693.359375; 9.54160E-5
13699.218750; 1.02177E-4
13705.078125; 9.81117E-5
13710.937500; 1.01877E-4
13716.796875; 1.18245E-4
13722.656250; 1.22030E-4
13728.515625; 1.10875E-4
13734.375000; 1.10306E-4
13740.234375; 9.81048E-5
13746.093750; 1.00062E-4
13751.953125; 1.14230E-4
13757.812500; 1.11112E-4
13763.671875; 1.14890E-4
13769.531250; 1.13122E-4
13775.390625; 1.00944E-4
13781.250000; 9.88584E-5
13787.109375; 1.10822E-4
13792.968750; 1.13737E-4
13798.828125; 1.12362E-4
13804.687500; 1.11599E-4
13810.546875; 1.16631E-4
13816.406250; 1.03930E-4
13822.265625; 1.11510E-4
13828.125000; 1.16489E-4
13833.984375; 1.21641E-4
13839.843750; 1.15050E-4
13845.703125; 1.08420E-4
13851.562500; 9.93553E-5
13857.421875; 1.04102E-4
13863.281250; 1.15519E-4
13869.140625; 1.08232E-4
13875.000000; 9.87090E-5
13880.859375; 1.01494E-4
13886.718750; 1.05158E-4
13892.578125; 1.01565E-4
13898.437500; 9.95707E-5
13904.296875; 1.03907E-4
13910.156250; 1.04015E-4
13916.015625; 1.04766E-4
13921.875000; 1.11364E-4
13927.734375; 9.92688E-5
13933.593750; 9.38584E-5
13939.453125; 1.02571E-4
13945.312500; 1.18995E-4
13951.171875; 1.17867E-4
13957.031250; 1.15674E-4
13962.890625; 9.84090E-5
13968.750000; 9.36106E-5
13974.609375; 1.06643E-4
13980.468750; 1.19130E-4
13986.328125; 1.14353E-4
13992.187500; 1.09891E-4
13998.046875; 1.01365E-4
14003.906250; 1.07479E-4
14009.765625; 1.11613E-4
14015.625000; 1.05262E-4
14021.484375; 1.07829E-4
14027.343750; 1.07452E-4
14033.203125; 9.79230E-5
14039.062500; 9.71689E-5
14044.921875; 1.10831E-4
14050.781250; 1.25774E-4
14056.640625; 1.15213E-4
14062.500000; 1.08560E-4
14068.359375; 1.08980E-4
14074.218750; 9.33887E-5
14080.078125; 9.05087E-5
14085.937500; 9.81681E-5
14091.796875; 1.07520E-4
14097.656250; 9.32927E-5
14103.515625; 9.73809E-5
14109.375000; 9.45420E-5
14115.234375; 9.95920E-5
14121.093750; 1.16591E-4
14126.953125; 1.10531E-4
14132.812500; 1.00802E-4
14138.671875; 1.04079E-4
14144.531250; 1.02670E-4
14150.390625; 1.04316E-4
14156.250000; 1.10700E-4
14162.109375; 1.06699E-4
14167.968750; 9.72226E-5
14173.828125; 1.05547E-4
14179.687500; 1.14264E-4
14185.546875; 1.17034E-4
14191.406250; 1.12801E-4
14197.265625; 9.99040E-5
14203.125000; 9.91455E-5
14208.984375; 1.08860E-4
14214.843750; 1.06065E-4
14220.703125; 1.10594E-4
14226.562500; 1.27570E-4
14232.421875; 1.10283E-4
14238.281250; 9.23876E-5
14244.140625; 8.72998E-5
14250.000000; 9.33052E-5
14255.859375; 1.08236E-4
14261.718750; 1.11716E-4
14267.578125; 9.91401E-5
14273.437500; 1.02683E-4
14279.296875; 1.01360E-4
14285.156250; 1.06835E-4
14291.015625; 1.09159E-4
14296.875000; 1.10023E-4
14302.734375; 1.05248E-4
14308.593750; 9.48966E-5
14314.453125; 1.09453E-4
14320.312500; 9.90632E-5
14326.171875; 9.14110E-5
14332.031250; 9.12907E-5
14337.890625; 9.93068E-5
14343.750000; 1.07138E-4
14349.609375; 9.85116E-5
14355.468750; 9.47735E-5
14361.328125; 9.61195E-5
14367.187500; 9.66315E-5
14373.046875; 1.02577E-4
14378.906250; 1.12773E-4
14384.765625; 1.13698E-4
14390.625000; 1.06958E-4
14396.484375; 9.50563E-5
14402.343750; 9.18449E-5
14408.203125; 1.04029E-4
14414.062500; 9.99175E-5
14419.921875; 1.06746E-4
14425.781250; 1.04081E-4
14431.640625; 1.11167E-4
14437.500000; 1.10348E-4
14443.359375; 9.08568E-5
14449.218750; 1.01063E-4
14455.078125; 1.17704E-4
14460.937500; 1.04794E-4
14466.796875; 9.72083E-5
14472.656250; 9.36603E-5
14478.515625; 1.06095E-4
14484.375000; 1.10424E-4
14490.234375; 9.79669E-5
14496.093750; 1.07952E-4
14501.953125; 1.09227E-4
14507.812500; 9.69535E-5
14513.671875; 1.10349E-4
14519.531250; 9.90914E-5
14525.390625; 9.62837E-5
14531.250000; 1.04915E-4
14537.109375; 1.08955E-4
14542.968750; 1.13253E-4
14548.828125; 1.16902E-4
14554.687500; 1.18673E-4
14560.546875; 1.20169E-4
14566.406250; 1.09450E-4
14572.265625; 9.81356E-5
14578.125000; 1.01250E-4
14583.984375; 1.20165E-4
14589.843750; 1.07894E-4
14595.703125; 8.97400E-5
14601.562500; 1.06322E-4
14607.421875; 1.00123E-4
14613.281250; 9.63816E-5
14619.140625; 1.00778E-4
14625.000000; 1.02120E-4
14630.859375; 1.16232E-4
14636.718750; 1.22383E-4
14642.578125; 1.05937E-4
14648.437500; 1.06327E-4
14654.296875; 1.09228E-4
14660.156250; 9.96427E-5
14666.015625; 9.60042E-5
14671.875000; 1.05342E-4
14677.734375; 1.15089E-4
14683.593750; 1.05837E-4
14689.453125; 1.11577E-4
14695.312500; 1.10024E-4
14701.171875; 1.03983E-4
14707.031250; 9.63084E-5
14712.890625; 1.08311E-4
14718.750000; 1.08815E-4
14724.609375; 1.09470E-4
14730.468750; 1.13535E-4
14736.328125; 1.10420E-4
14742.187500; 1.12138E-4
14748.046875; 1.11996E-4
14753.906250; 1.09263E-4
14759.765625; 1.15335E-4
14765.625000; 1.01417E-4
14771.484375; 1.01311E-4
14777.343750; 1.06683E-4
14783.203125; 1.11385E-4
14789.062500; 1.08843E-4
14794.921875; 9.70647E-5
14800.781250; 9.69321E-5
14806.640625; 9.83503E-5
14812.500000; 9.96925E-5
14818.359375; 9.15482E-5
14824.218750; 9.89729E-5
14830.078125; 1.00524E-4
14835.937500; 9.51706E-5
14841.796875; 9.77256E-5
14847.656250; 1.04118E-4
14853.515625; 8.84951E-5
14859.375000; 1.01019E-4
14865.234375; 1.06059E-4
14871.093750; 1.08990E-4
14876.953125; 1.10347E-4
14882.812500; 1.07100E-4
14888.671875; 1.03535E-4
14894.531250; 1.10442E-4
14900.390625; 1.12980E-4
14906.250000; 1.18052E-4
14912.109375; 1.08720E-4
14917.968750; 1.00038E-4
14923.828125; 1.07063E-4
14929.687500; 1.05871E-4
14935.546875; 9.87284E-5
14941.406250; 9.70029E-5
14947.265625; 1.00405E-4
14953.125000; 9.74127E-5
14958.984375; 9.88801E-5
14964.843750; 1.04300E-4
14970.703125; 1.06735E-4
14976.562500; 1.05615E-4
14982.421875; 1.05082E-4
14988.281250; 1.06246E-4
14994.140625; 1.09434E-4
15000.000000; 1.12763E-4
15005.859375; 1.13882E-4
15011.718750; 9.55005E-5
15017.578125; 9.83780E-5
15023.437500; 1.03509E-4
15029.296875; 1.05025E-4
15035.156250; 1.15833E-4
15041.015625; 1.11211E-4
15046.875000; 1.03830E-4
15052.734375; 1.05132E-4
15058.593750; 9.62741E-5
15064.453125; 1.17578E-4
15070.312500; 1.17323E-4
15076.171875; 1.06712E-4
15082.031250; 9.90492E-5
15087.890625; 1.00852E-4
15093.750000; 1.03586E-4
15099.609375; 1.01458E-4
15105.468750; 1.07339E-4
15111.328125; 1.21679E-4
15117.187500; 1.11195E-4
15123.046875; 1.00267E-4
15128.906250; 9.37655E-5
15134.765625; 1.03771E-4
15140.625000; 1.07241E-4
15146.484375; 1.03096E-4
15152.343750; 1.06329E-4
15158.203125; 9.51473E-5
15164.062500; 1.11112E-4
15169.921875; 1.11439E-4
15175.781250; 9.83425E-5
15181.640625; 9.52532E-5
15187.500000; 1.02811E-4
15193.359375; 1.02489E-4
15199.218750; 1.11279E-4
15205.078125; 1.20153E-4
15210.937500; 1.14205E-4
15216.796875; 1.14027E-4
15222.656250; 1.07366E-4
15228.515625; 1.08160E-4
15234.375000; 1.11796E-4
15240.234375; 1.08218E-4
15246.093750; 9.61753E-5
15251.953125; 1.00915E-4
15257.812500; 1.14361E-4
15263.671875; 1.02835E-4
15269.531250; 1.01234E-4
15275.390625; 9.85987E-5
15281.250000; 9.69096E-5
15287.109375; 1.13711E-4
15292.968750; 1.18465E-4
15298.828125; 9.63161E-5
15304.687500; 9.75476E-5
15310.546875; 1.02338E-4
15316.406250; 1.14384E-4
15322.265625; 1.16513E-4
15328.125000; 9.70407E-5
15333.984375; 1.08352E-4
15339.843750; 1.14180E-4
15345.703125; 1.11504E-4
15351.562500; 1.21396E-4
15357.421875; 1.00735E-4
15363.281250; 8.93824E-5
15369.140625; 9.27570E-5
15375.000000; 1.09319E-4
15380.859375; 1.09658E-4
15386.718750; 1.11561E-4
15392.578125; 9.68931E-5
15398.437500; 9.96045E-5
15404.296875; 1.12778E-4
15410.156250; 1.02689E-4
15416.015625; 1.08796E-4
15421.875000; 1.13306E-4
15427.734375; 1.17038E-4
15433.593750; 1.13625E-4
15439.453125; 1.11629E-4
15445.312500; 1.11658E-4
15451.171875; 1.11674E-4
15457.031250; 9.47548E-5
15462.890625; 9.34344E-5
15468.750000; 1.04002E-4
15474.609375; 9.59834E-5
15480.468750; 1.02979E-4
15486.328125; 1.07645E-4
15492.187500; 1.15200E-4
15498.046875; 1.26436E-4
15503.906250; 1.12704E-4
15509.765625; 1.13614E-4
15515.625000; 1.12666E-4
15521.484375; 1.14633E-4
15527.343750; 9.96347E-5
15533.203125; 1.12057E-4
15539.062500; 1.14724E-4
15544.921875; 1.10514E-4
15550.781250; 1.06089E-4
15556.640625; 1.10926E-4
15562.500000; 1.02343E-4
15568.359375; 1.12180E-4
15574.218750; 1.02080E-4
15580.078125; 9.78857E-5
15585.937500; 1.05894E-4
15591.796875; 1.01061E-4
15597.656250; 1.03699E-4
15603.515625; 1.02701E-4
15609.375000; 1.13706E-4
15615.234375; 1.08324E-4
15621.093750; 1.01042E-4
15626.953125; 1.21490E-4
15632.812500; 1.02909E-4
15638.671875; 9.57400E-5
15644.531250; 9.72938E-5
15650.390625; 1.06804E-4
15656.250000; 1.14300E-4
15662.109375; 9.88235E-5
15667.968750; 1.01262E-4
15673.828125; 1.05361E-4
15679.687500; 1.07311E-4
15685.546875; 9.63189E-5
15691.406250; 1.01189E-4
15697.265625; 1.09138E-4
15703.125000; 1.19312E-4
15708.984375; 1.21384E-4
15714.843750; 1.01436E-4
15720.703125; 9.68278E-5
15726.562500; 9.91824E-5
15732.421875; 1.00855E-4
15738.281250; 1.04871E-4
15744.140625; 1.03166E-4
15750.000000; 1.00033E-4
15755.859375; 1.10351E-4
15761.718750; 1.06117E-4
15767.578125; 1.00463E-4
15773.437500; 9.75378E-5
15779.296875; 1.07991E-4
15785.156250; 1.06201E-4
15791.015625; 1.03239E-4
15796.875000; 1.05620E-4
15802.734375; 1.15184E-4
15808.593750; 1.14492E-4
15814.453125; 1.10722E-4
15820.312500; 1.15181E-4
15826.171875; 1.14169E-4
15832.031250; 1.05631E-4
15837.890625; 1.10954E-4
15843.750000; 1.14726E-4
15849.609375; 1.12891E-4
15855.468750; 1.08180E-4
15861.328125; 1.07769E-4
15867.187500; 1.08135E-4
15873.046875; 9.84900E-5
15878.906250; 9.45486E-5
15884.765625; 1.18561E-4
15890.625000; 1.08930E-4
15896.484375; 9.60413E-5
15902.343750; 9.51982E-5
15908.203125; 9.48403E-5
15914.062500; 1.12220E-4
15919.921875; 1.08625E-4
15925.781250; 1.23855E-4
15931.640625; 1.12920E-4
15937.500000; 1.04309E-4
15943.359375; 1.12324E-4
15949.218750; 1.04008E-4
15955.078125; 9.80157E-5
15960.937500; 9.44316E-5
15966.796875; 9.65900E-5
15972.656250; 1.03625E-4
15978.515625; 9.44978E-5
15984.375000; 9.21527E-5
15990.234375; 9.13397E-5
15996.093750; 1.08917E-4
16001.953125; 1.15917E-4
16007.812500; 1.11176E-4
16013.671875; 1.01133E-4
16019.531250; 1.00710E-4
16025.390625; 1.11450E-4
16031.250000; 1.06528E-4
16037.109375; 1.12979E-4
16042.968750; 1.23080E-4
16048.828125; 1.09112E-4
16054.687500; 9.52910E-5
16060.546875; 9.68212E-5
16066.406250; 8.90009E-5
16072.265625; 9.10151E-5
16078.125000; 1.03773E-4
16083.984375; 1.14473E-4
16089.843750; 1.03345E-4
16095.703125; 9.31447E-5
16101.562500; 9.56362E-5
16107.421875; 1.01029E-4
16113.281250; 1.08051E-4
16119.140625; 1.13005E-4
16125.000000; 1.04265E-4
16130.859375; 1.00009E-4
16136.718750; 1.11453E-4
16142.578125; 1.12504E-4
16148.437500; 1.05202E-4
16154.296875; 1.10004E-4
16160.156250; 1.11820E-4
16166.015625; 1.23658E-4
16171.875000; 1.19656E-4
16177.734375; 1.22074E-4
16183.593750; 1.07425E-4
16189.453125; 1.04919E-4
16195.312500; 1.03784E-4
16201.171875; 1.06726E-4
16207.031250; 1.09241E-4
16212.890625; 9.62828E-5
16218.750000; 9.41883E-5
16224.609375; 9.86557E-5
16230.468750; 9.39419E-5
16236.328125; 1.06105E-4
16242.187500; 1.21542E-4
16248.046875; 1.12454E-4
16253.906250; 1.07108E-4
16259.765625; 1.11699E-4
16265.625000; 1.01650E-4
16271.484375; 1.09067E-4
16277.343750; 1.08398E-4
16283.203125; 1.09139E-4
16289.062500; 1.04161E-4
16294.921875; 9.38040E-5
16300.781250; 1.02852E-4
16306.640625; 9.97539E-5
16312.500000; 1.01314E-4
16318.359375; 9.86065E-5
16324.218750; 9.59115E-5
16330.078125; 1.05385E-4
16335.937500; 1.09303E-4
16341.796875; 1.07530E-4
16347.656250; 1.13760E-4
16353.515625; 1.23921E-4
16359.375000; 1.16875E-4
16365.234375; 1.10244E-4
16371.093750; 1.06859E-4
16376.953125; 1.12666E-4
16382.812500; 1.08669E-4
16388.671875; 9.79407E-5
16394.531250; 1.06396E-4
16400.390625; 1.12845E-4
16406.250000; 1.10930E-4
16412.109375; 9.66299E-5
16417.968750; 1.05054E-4
16423.828125; 1.11417E-4
16429.687500; 1.02618E-4
16435.546875; 1.04388E-4
16441.406250; 9.30627E-5
16447.265625; 1.03741E-4
16453.125000; 1.08215E-4
16458.984375; 9.86135E-5
16464.843750; 9.63717E-5
16470.703125; 1.07456E-4
16476.562500; 1.12977E-4
16482.421875; 1.13535E-4
16488.281250; 9.91030E-5
16494.140625; 1.10063E-4
16500.000000; 1.09168E-4
16505.859375; 1.03512E-4
16511.718750; 1.10068E-4
16517.578125; 1.05011E-4
16523.437500; 1.02028E-4
16529.296875; 8.90330E-5
16535.156250; 9.42559E-5
16541.015625; 9.85412E-5
16546.875000; 1.00356E-4
16552.734375; 1.06518E-4
16558.593750; 1.09821E-4
16564.453125; 1.10058E-4
16570.312500; 9.88089E-5
16576.171875; 1.01369E-4
16582.031250; 1.05593E-4
16587.890625; 9.90733E-5
16593.750000; 9.80746E-5
16599.609375; 1.07030E-4
16605.468750; 1.09541E-4
16611.328125; 9.82954E-5
16617.187500; 9.63239E-5
16623.046875; 1.04187E-4
16628.906250; 1.11908E-4
16634.765625; 9.70084E-5
16640.625000; 1.05981E-4
16646.484375; 1.06352E-4
16652.343750; 1.04381E-4
16658.203125; 1.01390E-4
16664.062500; 9.44610E-5
16669.921875; 9.73723E-5
16675.781250; 1.07832E-4
16681.640625; 1.03284E-4
16687.500000; 1.11820E-4
16693.359375; 1.10189E-4
16699.218750; 1.01027E-4
16705.078125; 1.08793E-4
16710.937500; 1.02544E-4
16716.796875; 9.90496E-5
16722.656250; 1.06745E-4
16728.515625; 1.12736E-4
16734.375000; 1.12293E-4
16740.234375; 1.06247E-4
16746.093750; 1.07628E-4
16751.953125; 1.03802E-4
16757.812500; 1.08384E-4
16763.671875; 1.12103E-4
16769.531250; 1.05167E-4
16775.390625; 9.89493E-5
16781.250000; 9.99275E-5
16787.109375; 1.01237E-4
16792.968750; 1.10716E-4
16798.828125; 1.12677E-4
16804.687500; 1.05949E-4
16810.546875; 1.08951E-4
16816.406250; 1.06496E-4
16822.265625; 1.05037E-4
16828.125000; 1.06138E-4
16833.984375; 1.08712E-4
16839.843750; 1.13486E-4
16845.703125; 1.11427E-4
16851.562500; 9.90193E-5
16857.421875; 1.02316E-4
16863.281250; 1.17634E-4
16869.140625; 1.16681E-4
16875.000000; 1.14892E-4
16880.859375; 1.03220E-4
16886.718750; 9.39071E-5
16892.578125; 9.83084E-5
16898.437500; 9.22224E-5
16904.296875; 1.00155E-4
16910.156250; 1.02165E-4
16916.015625; 1.17184E-4
16921.875000; 1.17505E-4
16927.734375; 1.14364E-4
16933.593750; 1.21265E-4
16939.453125; 1.23473E-4
16945.312500; 1.10242E-4
16951.171875; 1.02892E-4
16957.031250; 1.02512E-4
16962.890625; 1.11287E-4
16968.750000; 1.02008E-4
16974.609375; 1.03251E-4
16980.468750; 1.15257E-4
16986.328125; 1.12487E-4
16992.187500; 1.01397E-4
16998.046875; 1.03713E-4
17003.906250; 9.96186E-5
17009.765625; 9.85009E-5
17015.625000; 1.03020E-4
17021.484375; 9.34016E-5
17027.343750; 1.00233E-4
17033.203125; 8.91469E-5
17039.062500; 9.12769E-5
17044.921875; 9.33586E-5
17050.781250; 9.55730E-5
17056.640625; 9.42762E-5
17062.500000; 9.71669E-5
17068.359375; 1.04691E-4
17074.218750; 1.13754E-4
17080.078125; 9.68025E-5
17085.937500; 9.98715E-5
17091.796875; 1.11571E-4
17097.656250; 1.12547E-4
17103.515625; 1.06844E-4
17109.375000; 9.95401E-5
17115.234375; 9.92022E-5
17121.093750; 9.71212E-5
17126.953125; 9.61564E-5
17132.812500; 8.62339E-5
17138.671875; 9.38392E-5
17144.531250; 1.02028E-4
17150.390625; 1.06702E-4
17156.250000; 1.07479E-4
17162.109375; 1.01690E-4
17167.968750; 1.01822E-4
17173.828125; 1.00227E-4
17179.687500; 9.53892E-5
17185.546875; 9.62463E-5
17191.406250; 1.06841E-4
17197.265625; 1.01487E-4
17203.125000; 1.02380E-4
17208.984375; 9.72509E-5
17214.843750; 1.03666E-4
17220.703125; 1.15059E-4
17226.562500; 1.15589E-4
17232.421875; 1.18898E-4
17238.281250; 1.23286E-4
17244.140625; 1.13064E-4
17250.000000; 1.03651E-4
17255.859375; 9.19156E-5
17261.718750; 1.02649E-4
17267.578125; 1.00079E-4
17273.437500; 9.50181E-5
17279.296875; 9.58160E-5
17285.156250; 1.04744E-4
17291.015625; 1.04970E-4
17296.875000; 9.64528E-5
17302.734375; 1.03743E-4
17308.593750; 1.03909E-4
17314.453125; 1.08972E-4
17320.312500; 1.03844E-4
17326.171875; 1.05403E-4
17332.031250; 1.09021E-4
17337.890625; 1.01581E-4
17343.750000; 9.86464E-5
17349.609375; 1.01699E-4
17355.468750; 1.02105E-4
17361.328125; 1.14945E-4
17367.187500; 1.17427E-4
17373.046875; 1.04330E-4
17378.906250; 1.12973E-4
17384.765625; 1.17708E-4
17390.625000; 1.15636E-4
17396.484375; 1.06726E-4
17402.343750; 1.01205E-4
17408.203125; 1.01011E-4
17414.062500; 8.96312E-5
17419.921875; 1.05440E-4
17425.781250; 1.08768E-4
17431.640625; 1.03602E-4
17437.500000; 1.06454E-4
17443.359375; 1.02129E-4
17449.218750; 1.04234E-4
17455.078125; 1.06879E-4
17460.937500; 1.08397E-4
17466.796875; 9.92661E-5
17472.656250; 1.08113E-4
17478.515625; 9.94173E-5
17484.375000; 9.97506E-5
17490.234375; 1.05536E-4
17496.093750; 9.72959E-5
17501.953125; 9.89927E-5
17507.812500; 1.06087E-4
17513.671875; 1.09540E-4
17519.531250; 9.09679E-5
17525.390625; 9.95721E-5
17531.250000; 9.96158E-5
17537.109375; 1.07653E-4
17542.968750; 1.06159E-4
17548.828125; 1.05074E-4
17554.687500; 9.49378E-5
17560.546875; 9.61793E-5
17566.406250; 1.03376E-4
17572.265625; 1.09409E-4
17578.125000; 9.94069E-5
17583.984375; 1.00070E-4
17589.843750; 1.13577E-4
17595.703125; 1.11058E-4
17601.562500; 1.00072E-4
17607.421875; 9.87802E-5
17613.281250; 1.15069E-4
17619.140625; 1.26681E-4
17625.000000; 1.15397E-4
17630.859375; 1.00799E-4
17636.718750; 1.01142E-4
17642.578125; 1.07971E-4
17648.437500; 1.06626E-4
17654.296875; 1.11653E-4
17660.156250; 1.04426E-4
17666.015625; 1.12563E-4
17671.875000; 1.13568E-4
17677.734375; 9.52750E-5
17683.593750; 9.62939E-5
17689.453125; 9.72734E-5
17695.312500; 1.07486E-4
17701.171875; 1.11893E-4
17707.031250; 1.02606E-4
17712.890625; 9.66549E-5
17718.750000; 9.11958E-5
17724.609375; 1.03862E-4
17730.468750; 1.03724E-4
17736.328125; 9.67501E-5
17742.187500; 1.04877E-4
17748.046875; 1.03037E-4
17753.906250; 1.02093E-4
17759.765625; 1.07533E-4
17765.625000; 1.10825E-4
17771.484375; 9.85145E-5
17777.343750; 8.95857E-5
17783.203125; 1.00855E-4
17789.062500; 1.12310E-4
17794.921875; 1.10175E-4
17800.781250; 1.02964E-4
17806.640625; 9.86264E-5
17812.500000; 1.01766E-4
17818.359375; 1.02843E-4
17824.218750; 1.03919E-4
17830.078125; 1.05034E-4
17835.937500; 1.01225E-4
17841.796875; 1.14053E-4
17847.656250; 1.21852E-4
17853.515625; 9.70353E-5
17859.375000; 9.08313E-5
17865.234375; 9.90233E-5
17871.093750; 1.04395E-4
17876.953125; 1.04303E-4
17882.812500; 1.13697E-4
17888.671875; 1.21237E-4
17894.531250; 1.26462E-4
17900.390625; 1.09363E-4
17906.250000; 1.03180E-4
17912.109375; 1.01749E-4
17917.968750; 1.07138E-4
17923.828125; 1.05772E-4
17929.687500; 9.66665E-5
17935.546875; 9.51508E-5
17941.406250; 1.09029E-4
17947.265625; 1.21719E-4
17953.125000; 1.21993E-4
17958.984375; 1.01608E-4
17964.843750; 9.72366E-5
17970.703125; 1.07597E-4
17976.562500; 1.02876E-4
17982.421875; 9.68491E-5
17988.281250; 9.83070E-5
17994.140625; 1.01089E-4
18000.000000; 1.10195E-4
18005.859375; 1.05155E-4
18011.718750; 9.94705E-5
18017.578125; 9.51289E-5
18023.437500; 1.13465E-4
18029.296875; 1.12896E-4
18035.156250; 9.65699E-5
18041.015625; 9.23541E-5
18046.875000; 9.47393E-5
18052.734375; 9.56441E-5
18058.593750; 1.04158E-4
18064.453125; 1.12654E-4
18070.312500; 1.14540E-4
18076.171875; 1.08767E-4
18082.031250; 1.06278E-4
18087.890625; 9.45384E-5
18093.750000; 9.38789E-5
18099.609375; 1.00710E-4
18105.468750; 1.12488E-4
18111.328125; 1.18061E-4
18117.187500; 1.12173E-4
18123.046875; 1.15013E-4
18128.906250; 1.06889E-4
18134.765625; 9.91885E-5
18140.625000; 1.00181E-4
18146.484375; 1.10391E-4
18152.343750; 1.00937E-4
18158.203125; 1.03422E-4
18164.062500; 1.03996E-4
18169.921875; 1.06306E-4
18175.781250; 1.14547E-4
18181.640625; 1.09084E-4
18187.500000; 1.10910E-4
18193.359375; 1.10427E-4
18199.218750; 1.09247E-4
18205.078125; 1.07191E-4
18210.937500; 1.01485E-4
18216.796875; 1.12362E-4
18222.656250; 1.06279E-4
18228.515625; 1.00020E-4
18234.375000; 1.01656E-4
18240.234375; 1.00122E-4
18246.093750; 9.95334E-5
18251.953125; 1.04652E-4
18257.812500; 1.07611E-4
18263.671875; 1.05961E-4
18269.531250; 9.71029E-5
18275.390625; 1.01030E-4
18281.250000; 9.93944E-5
18287.109375; 9.76555E-5
18292.968750; 9.65807E-5
18298.828125; 1.04019E-4
18304.687500; 1.12909E-4
18310.546875; 1.12390E-4
18316.406250; 1.00653E-4
18322.265625; 9.32594E-5
18328.125000; 1.09730E-4
18333.984375; 1.13983E-4
18339.843750; 1.14868E-4
18345.703125; 1.09007E-4
18351.562500; 1.02263E-4
18357.421875; 9.42363E-5
18363.281250; 8.73977E-5
18369.140625; 1.03251E-4
18375.000000; 1.14858E-4
18380.859375; 1.07755E-4
18386.718750; 9.28275E-5
18392.578125; 1.01451E-4
18398.437500; 1.11850E-4
18404.296875; 1.02311E-4
18410.156250; 9.82251E-5
18416.015625; 1.03916E-4
18421.875000; 1.02214E-4
18427.734375; 1.05110E-4
18433.593750; 1.14036E-4
18439.453125; 1.03654E-4
18445.312500; 1.03952E-4
18451.171875; 1.07006E-4
18457.031250; 1.09872E-4
18462.890625; 1.02141E-4
18468.750000; 8.61065E-5
18474.609375; 1.04335E-4
18480.468750; 1.09424E-4
18486.328125; 1.10021E-4
18492.187500; 1.15466E-4
18498.046875; 1.17226E-4
18503.906250; 1.10209E-4
18509.765625; 1.13564E-4
18515.625000; 1.21884E-4
18521.484375; 1.07838E-4
18527.343750; 9.60699E-5
18533.203125; 1.03842E-4
18539.062500; 1.15843E-4
18544.921875; 1.13691E-4
18550.781250; 9.80612E-5
18556.640625; 9.81259E-5
18562.500000; 9.85000E-5
18568.359375; 1.02853E-4
18574.218750; 1.10663E-4
18580.078125; 1.06298E-4
18585.937500; 1.07319E-4
18591.796875; 1.00063E-4
18597.656250; 1.00706E-4
18603.515625; 9.61115E-5
18609.375000; 9.29682E-5
18615.234375; 1.00891E-4
18621.093750; 1.03176E-4
18626.953125; 1.10745E-4
18632.812500; 1.07402E-4
18638.671875; 1.11216E-4
18644.531250; 1.03743E-4
18650.390625; 1.02388E-4
18656.250000; 1.05960E-4
18662.109375; 1.06468E-4
18667.968750; 1.03462E-4
18673.828125; 8.97846E-5
18679.687500; 1.13198E-4
18685.546875; 1.22171E-4
18691.406250; 1.06447E-4
18697.265625; 1.08609E-4
18703.125000; 1.15767E-4
18708.984375; 1.06433E-4
18714.843750; 1.00525E-4
18720.703125; 1.09249E-4
18726.562500; 1.07203E-4
18732.421875; 1.11639E-4
18738.281250; 1.14219E-4
18744.140625; 1.15130E-4
18750.000000; 1.21304E-4
18755.859375; 1.21566E-4
18761.718750; 1.16213E-4
18767.578125; 1.13890E-4
18773.437500; 1.08409E-4
18779.296875; 1.05854E-4
18785.156250; 1.11165E-4
18791.015625; 1.07436E-4
18796.875000; 1.07440E-4
18802.734375; 1.09643E-4
18808.593750; 1.10343E-4
18814.453125; 9.54610E-5
18820.312500; 1.00681E-4
18826.171875; 1.02482E-4
18832.031250; 9.70119E-5
18837.890625; 1.05491E-4
18843.750000; 1.04952E-4
18849.609375; 8.98856E-5
18855.468750; 9.99808E-5
18861.328125; 1.16212E-4
18867.187500; 1.21758E-4
18873.046875; 1.20820E-4
18878.906250; 1.06739E-4
18884.765625; 1.04276E-4
18890.625000; 1.21736E-4
18896.484375; 1.14466E-4
18902.343750; 1.02004E-4
18908.203125; 9.96650E-5
18914.062500; 1.13455E-4
18919.921875; 1.10665E-4
18925.781250; 1.06853E-4
18931.640625; 1.14669E-4
18937.500000; 1.16166E-4
18943.359375; 9.92441E-5
18949.218750; 9.51036E-5
18955.078125; 1.04055E-4
18960.937500; 1.13225E-4
18966.796875; 1.20052E-4
18972.656250; 1.20724E-4
18978.515625; 1.10420E-4
18984.375000; 1.06376E-4
18990.234375; 1.20559E-4
18996.093750; 1.20650E-4
19001.953125; 1.12607E-4
19007.812500; 1.02881E-4
19013.671875; 9.97950E-5
19019.531250; 1.10820E-4
19025.390625; 1.03080E-4
19031.250000; 9.22893E-5
19037.109375; 9.99662E-5
19042.968750; 1.10701E-4
19048.828125; 1.11190E-4
19054.687500; 1.02385E-4
19060.546875; 1.01291E-4
19066.406250; 1.05855E-4
19072.265625; 1.04005E-4
19078.125000; 1.06705E-4
19083.984375; 1.09323E-4
19089.843750; 1.17221E-4
19095.703125; 1.20473E-4
19101.562500; 1.11240E-4
19107.421875; 1.01254E-4
19113.281250; 1.08063E-4
19119.140625; 1.07191E-4
19125.000000; 1.05636E-4
19130.859375; 1.04968E-4
19136.718750; 1.03520E-4
19142.578125; 1.01732E-4
19148.437500; 1.01627E-4
19154.296875; 1.11817E-4
19160.156250; 1.14311E-4
19166.015625; 1.04033E-4
19171.875000; 1.06578E-4
19177.734375; 1.12619E-4
19183.593750; 1.05277E-4
19189.453125; 9.50464E-5
19195.312500; 9.34516E-5
19201.171875; 1.07155E-4
19207.031250; 9.67842E-5
19212.890625; 9.71769E-5
19218.750000; 1.09848E-4
19224.609375; 1.08195E-4
19230.468750; 1.00013E-4
19236.328125; 1.03972E-4
19242.187500; 1.14616E-4
19248.046875; 1.09609E-4
19253.906250; 1.01625E-4
19259.765625; 9.69163E-5
19265.625000; 9.26589E-5
19271.484375; 1.08241E-4
19277.343750; 1.13631E-4
19283.203125; 1.02722E-4
19289.062500; 9.67508E-5
19294.921875; 1.06392E-4
19300.781250; 1.02241E-4
19306.640625; 1.07120E-4
19312.500000; 1.09930E-4
19318.359375; 1.03392E-4
19324.218750; 1.08949E-4
19330.078125; 1.14375E-4
19335.937500; 1.08123E-4
19341.796875; 9.91688E-5
19347.656250; 1.11099E-4
19353.515625; 1.14209E-4
19359.375000; 1.11840E-4
19365.234375; 9.53183E-5
19371.093750; 8.60587E-5
19376.953125; 9.95097E-5
19382.812500; 1.12336E-4
19388.671875; 1.01358E-4
19394.531250; 9.51027E-5
19400.390625; 1.03497E-4
19406.250000; 9.40808E-5
19412.109375; 9.08077E-5
19417.968750; 9.90891E-5
19423.828125; 1.06431E-4
19429.687500; 1.01704E-4
19435.546875; 9.80548E-5
19441.406250; 9.37798E-5
19447.265625; 1.07110E-4
19453.125000; 1.16008E-4
19458.984375; 1.08927E-4
19464.843750; 1.04185E-4
19470.703125; 1.03272E-4
19476.562500; 9.24636E-5
19482.421875; 1.13290E-4
19488.281250; 1.22488E-4
19494.140625; 1.07526E-4
19500.000000; 1.04113E-4
19505.859375; 1.15351E-4
19511.718750; 1.12080E-4
19517.578125; 1.03532E-4
19523.437500; 1.01856E-4
19529.296875; 1.06604E-4
19535.156250; 1.06712E-4
19541.015625; 1.07239E-4
19546.875000; 1.09692E-4
19552.734375; 1.19183E-4
19558.593750; 1.10646E-4
19564.453125; 1.10055E-4
19570.312500; 1.14951E-4
19576.171875; 9.77299E-5
19582.031250; 1.20972E-4
19587.890625; 1.07980E-4
19593.750000; 9.68292E-5
19599.609375; 9.74781E-5
19605.468750; 9.41935E-5
19611.328125; 1.03612E-4
19617.187500; 1.01323E-4
19623.046875; 9.81212E-5
19628.906250; 9.33848E-5
19634.765625; 1.00515E-4
19640.625000; 1.15299E-4
19646.484375; 1.11279E-4
19652.343750; 1.01728E-4
19658.203125; 9.66820E-5
19664.062500; 1.02024E-4
19669.921875; 1.07447E-4
19675.781250; 9.81217E-5
19681.640625; 1.06646E-4
19687.500000; 1.10808E-4
19693.359375; 1.03773E-4
19699.218750; 1.02825E-4
19705.078125; 1.10179E-4
19710.937500; 1.05934E-4
19716.796875; 9.87164E-5
19722.656250; 1.12627E-4
19728.515625; 9.44374E-5
19734.375000; 9.35079E-5
19740.234375; 1.10847E-4
19746.093750; 1.10821E-4
19751.953125; 1.05494E-4
19757.812500; 1.06783E-4
19763.671875; 9.13477E-5
19769.531250; 1.09272E-4
19775.390625; 1.19805E-4
19781.250000; 1.11238E-4
19787.109375; 1.05599E-4
19792.968750; 1.02623E-4
19798.828125; 1.01900E-4
19804.687500; 1.08842E-4
19810.546875; 1.07262E-4
19816.406250; 1.02822E-4
19822.265625; 9.69509E-5
19828.125000; 9.55069E-5
19833.984375; 1.08030E-4
19839.843750; 1.09807E-4
19845.703125; 1.03172E-4
19851.562500; 9.59841E-5
19857.421875; 9.91709E-5
19863.281250; 1.03516E-4
19869.140625; 1.13774E-4
19875.000000; 1.11625E-4
19880.859375; 1.09612E-4
19886.718750; 1.06993E-4
19892.578125; 9.11334E-5
19898.437500; 8.35887E-5
19904.296875; 9.41623E-5
19910.156250; 9.75882E-5
19916.015625; 9.86202E-5
19921.875000; 1.27967E-4
19927.734375; 1.25921E-4
19933.593750; 1.12142E-4
19939.453125; 1.11518E-4
19945.312500; 1.11012E-4
19951.171875; 1.02219E-4
19957.031250; 1.10423E-4
19962.890625; 1.14926E-4
19968.750000; 1.06456E-4
19974.609375; 9.63788E-5
19980.468750; 9.24855E-5
19986.328125; 1.00128E-4
19992.187500; 1.00599E-4
19998.046875; 1.05806E-4
20003.906250; 1.05405E-4
20009.765625; 9.76702E-5
20015.625000; 8.35072E-5
20021.484375; 9.74062E-5
20027.343750; 1.06193E-4
20033.203125; 1.01053E-4
20039.062500; 1.01964E-4
20044.921875; 9.49081E-5
20050.781250; 1.04719E-4
20056.640625; 1.09875E-4
20062.500000; 1.14801E-4
20068.359375; 1.09639E-4
20074.218750; 9.93265E-5
20080.078125; 1.02410E-4
20085.937500; 9.85392E-5
20091.796875; 9.61886E-5
20097.656250; 1.02671E-4
20103.515625; 9.99661E-5
20109.375000; 9.33400E-5
20115.234375; 9.40713E-5
20121.093750; 9.86912E-5
20126.953125; 9.52014E-5
20132.812500; 1.06652E-4
20138.671875; 1.02142E-4
20144.531250; 9.73289E-5
20150.390625; 9.35110E-5
20156.250000; 1.00852E-4
20162.109375; 9.90051E-5
20167.968750; 1.04401E-4
20173.828125; 1.16570E-4
20179.687500; 1.15879E-4
20185.546875; 1.07359E-4
20191.406250; 1.01001E-4
20197.265625; 1.03805E-4
20203.125000; 1.12526E-4
20208.984375; 1.09153E-4
20214.843750; 1.09042E-4
20220.703125; 1.08842E-4
20226.562500; 1.07840E-4
20232.421875; 1.09753E-4
20238.281250; 1.02599E-4
20244.140625; 1.03140E-4
20250.000000; 1.17382E-4
20255.859375; 1.00150E-4
20261.718750; 1.04791E-4
20267.578125; 1.01845E-4
20273.437500; 1.00064E-4
20279.296875; 1.05444E-4
20285.156250; 1.01594E-4
20291.015625; 1.09788E-4
20296.875000; 1.04019E-4
20302.734375; 9.40568E-5
20308.593750; 1.01340E-4
20314.453125; 1.06570E-4
20320.312500; 1.00889E-4
20326.171875; 1.08316E-4
20332.031250; 1.03605E-4
20337.890625; 1.07774E-4
20343.750000; 1.09734E-4
20349.609375; 1.04320E-4
20355.468750; 1.04879E-4
20361.328125; 1.07830E-4
20367.187500; 1.05108E-4
20373.046875; 1.16328E-4
20378.906250; 1.13896E-4
20384.765625; 1.09996E-4
20390.625000; 1.19189E-4
20396.484375; 1.06722E-4
20402.343750; 1.05835E-4
20408.203125; 1.03541E-4
20414.062500; 1.00460E-4
20419.921875; 1.00519E-4
20425.781250; 9.87766E-5
20431.640625; 1.00852E-4
20437.500000; 1.06007E-4
20443.359375; 1.06105E-4
20449.218750; 9.85359E-5
20455.078125; 8.91505E-5
20460.937500; 1.04031E-4
20466.796875; 9.53263E-5
20472.656250; 9.37600E-5
20478.515625; 9.26860E-5
20484.375000; 9.97439E-5
20490.234375; 1.05945E-4
20496.093750; 1.02734E-4
20501.953125; 1.04787E-4
20507.812500; 9.85314E-5
20513.671875; 1.11249E-4
20519.531250; 1.04212E-4
20525.390625; 1.03498E-4
20531.250000; 1.04777E-4
20537.109375; 9.88177E-5
20542.968750; 8.54552E-5
20548.828125; 9.51493E-5
20554.687500; 9.93689E-5
20560.546875; 9.20108E-5
20566.406250; 9.85829E-5
20572.265625; 1.02324E-4
20578.125000; 9.67085E-5
20583.984375; 8.92407E-5
20589.843750; 9.87247E-5
20595.703125; 1.09149E-4
20601.562500; 1.01498E-4
20607.421875; 9.41412E-5
20613.281250; 1.04899E-4
20619.140625; 8.82409E-5
20625.000000; 8.55899E-5
20630.859375; 9.30266E-5
20636.718750; 1.11187E-4
20642.578125; 1.04106E-4
20648.437500; 8.39353E-5
20654.296875; 9.13285E-5
20660.156250; 1.01823E-4
20666.015625; 1.01712E-4
20671.875000; 1.05409E-4
20677.734375; 1.14168E-4
20683.593750; 1.14280E-4
20689.453125; 9.48003E-5
20695.312500; 8.82932E-5
20701.171875; 1.03782E-4
20707.031250; 1.06167E-4
20712.890625; 9.63886E-5
20718.750000; 1.01414E-4
20724.609375; 1.01707E-4
20730.468750; 1.03120E-4
20736.328125; 1.02605E-4
20742.187500; 9.82246E-5
20748.046875; 1.06264E-4
20753.906250; 1.12091E-4
20759.765625; 1.08233E-4
20765.625000; 1.03309E-4
20771.484375; 1.04541E-4
20777.343750; 1.00697E-4
20783.203125; 9.93335E-5
20789.062500; 9.30539E-5
20794.921875; 9.99561E-5
20800.781250; 9.83713E-5
20806.640625; 9.83175E-5
20812.500000; 1.09440E-4
20818.359375; 1.12881E-4
20824.218750; 1.21633E-4
20830.078125; 1.06425E-4
20835.937500; 1.00550E-4
20841.796875; 9.55399E-5
20847.656250; 9.42197E-5
20853.515625; 1.09372E-4
20859.375000; 1.02355E-4
20865.234375; 9.78624E-5
20871.093750; 9.81425E-5
20876.953125; 9.57919E-5
20882.812500; 1.07468E-4
20888.671875; 1.01260E-4
20894.531250; 1.00831E-4
20900.390625; 1.02881E-4
20906.250000; 1.03928E-4
20912.109375; 1.02060E-4
20917.968750; 9.96786E-5
20923.828125; 1.05573E-4
20929.687500; 1.10324E-4
20935.546875; 1.11190E-4
20941.406250; 1.09058E-4
20947.265625; 1.05964E-4
20953.125000; 1.04551E-4
20958.984375; 1.00728E-4
20964.843750; 9.16000E-5
20970.703125; 8.89232E-5
20976.562500; 9.40170E-5
20982.421875; 1.13975E-4
20988.281250; 1.17895E-4
20994.140625; 9.92077E-5
21000.000000; 9.58298E-5
21005.859375; 1.02290E-4
21011.718750; 1.09273E-4
21017.578125; 1.11644E-4
21023.437500; 1.04423E-4
21029.296875; 1.01046E-4
21035.156250; 9.65320E-5
21041.015625; 9.86394E-5
21046.875000; 1.10478E-4
21052.734375; 1.05339E-4
21058.593750; 1.03526E-4
21064.453125; 9.97053E-5
21070.312500; 1.01537E-4
21076.171875; 1.12330E-4
21082.031250; 1.04982E-4
21087.890625; 1.00753E-4
21093.750000; 9.86734E-5
21099.609375; 1.06897E-4
21105.468750; 1.04693E-4
21111.328125; 1.01540E-4
21117.187500; 9.78971E-5
21123.046875; 8.93419E-5
21128.906250; 9.64982E-5
21134.765625; 9.90741E-5
21140.625000; 9.43736E-5
21146.484375; 9.96503E-5
21152.343750; 1.04596E-4
21158.203125; 1.08155E-4
21164.062500; 1.15439E-4
21169.921875; 1.08905E-4
21175.781250; 9.20584E-5
21181.640625; 9.07569E-5
21187.500000; 1.12654E-4
21193.359375; 1.16736E-4
21199.218750; 1.05473E-4
21205.078125; 1.11086E-4
21210.937500; 1.08584E-4
21216.796875; 9.84475E-5
21222.656250; 9.32189E-5
21228.515625; 9.10601E-5
21234.375000; 9.64059E-5
21240.234375; 1.19244E-4
21246.093750; 1.12767E-4
21251.953125; 9.70033E-5
21257.812500; 1.06532E-4
21263.671875; 1.10822E-4
21269.531250; 1.10195E-4
21275.390625; 1.01005E-4
21281.250000; 8.96333E-5
21287.109375; 9.92163E-5
21292.968750; 9.37216E-5
21298.828125; 1.01512E-4
21304.687500; 1.09468E-4
21310.546875; 1.11631E-4
21316.406250; 1.17184E-4
21322.265625; 1.04082E-4
21328.125000; 1.03136E-4
21333.984375; 1.09253E-4
21339.843750; 9.68301E-5
21345.703125; 1.06286E-4
21351.562500; 1.05836E-4
21357.421875; 1.05842E-4
21363.281250; 1.10759E-4
21369.140625; 1.09305E-4
21375.000000; 9.73923E-5
21380.859375; 9.83135E-5
21386.718750; 1.02541E-4
21392.578125; 1.01031E-4
21398.437500; 9.35630E-5
21404.296875; 1.05320E-4
21410.156250; 1.03919E-4
21416.015625; 9.86370E-5
21421.875000; 9.74597E-5
21427.734375; 9.86245E-5
21433.593750; 1.04027E-4
21439.453125; 1.10138E-4
21445.312500; 1.01187E-4
21451.171875; 1.12127E-4
21457.031250; 1.08491E-4
21462.890625; 1.04977E-4
21468.750000; 1.05162E-4
21474.609375; 1.05405E-4
21480.468750; 1.13975E-4
21486.328125; 1.05492E-4
21492.187500; 1.06391E-4
21498.046875; 1.06454E-4
21503.906250; 1.11674E-4
21509.765625; 1.05188E-4
21515.625000; 1.02867E-4
21521.484375; 9.56851E-5
21527.343750; 9.93963E-5
21533.203125; 9.99298E-5
21539.062500; 9.98956E-5
21544.921875; 1.04275E-4
21550.781250; 9.20618E-5
21556.640625; 9.41494E-5
21562.500000; 9.83123E-5
21568.359375; 1.04878E-4
21574.218750; 1.23312E-4
21580.078125; 1.21878E-4
21585.937500; 1.03833E-4
21591.796875; 9.92628E-5
21597.656250; 1.11578E-4
21603.515625; 1.14751E-4
21609.375000; 1.06677E-4
21615.234375; 1.04104E-4
21621.093750; 1.11377E-4
21626.953125; 1.08448E-4
21632.812500; 1.01685E-4
21638.671875; 9.74312E-5
21644.531250; 1.00506E-4
21650.390625; 1.03523E-4
21656.250000; 1.04893E-4
21662.109375; 1.15783E-4
21667.968750; 1.02173E-4
21673.828125; 9.09120E-5
21679.687500; 1.05814E-4
21685.546875; 1.02138E-4
21691.406250; 9.52442E-5
21697.265625; 9.09333E-5
21703.125000; 9.10964E-5
21708.984375; 1.07332E-4
21714.843750; 1.13512E-4
21720.703125; 1.08500E-4
21726.562500; 1.00643E-4
21732.421875; 9.29953E-5
21738.281250; 9.88520E-5
21744.140625; 1.14146E-4
21750.000000; 1.00853E-4
21755.859375; 1.05195E-4
21761.718750; 9.18863E-5
21767.578125; 9.56866E-5
21773.437500; 1.09641E-4
21779.296875; 1.26150E-4
21785.156250; 1.20022E-4
21791.015625; 1.12528E-4
21796.875000; 1.05114E-4
21802.734375; 9.77619E-5
21808.593750; 1.00527E-4
21814.453125; 1.01095E-4
21820.312500; 9.47876E-5
21826.171875; 9.38830E-5
21832.031250; 9.56550E-5
21837.890625; 9.30913E-5
21843.750000; 9.83540E-5
21849.609375; 1.16047E-4
21855.468750; 1.10782E-4
21861.328125; 1.15905E-4
21867.187500; 1.05780E-4
21873.046875; 9.94476E-5
21878.906250; 9.52739E-5
21884.765625; 1.02304E-4
21890.625000; 1.10406E-4
21896.484375; 1.03486E-4
21902.343750; 1.00255E-4
21908.203125; 1.05256E-4
21914.062500; 1.10030E-4
21919.921875; 9.79981E-5
21925.781250; 1.02051E-4
21931.640625; 9.91241E-5
21937.500000; 9.85941E-5
21943.359375; 1.13476E-4
21949.218750; 1.12209E-4
21955.078125; 9.40045E-5
21960.937500; 9.84337E-5
21966.796875; 1.13755E-4
21972.656250; 1.15027E-4
21978.515625; 1.01782E-4
21984.375000; 8.51446E-5
21990.234375; 1.03372E-4
21996.093750; 1.05350E-4
22001.953125; 1.00424E-4
22007.812500; 1.05334E-4
22013.671875; 9.11067E-5
22019.531250; 8.45418E-5
22025.390625; 1.00716E-4
22031.250000; 1.05980E-4
22037.109375; 9.90151E-5
22042.968750; 1.05903E-4
22048.828125; 9.71787E-5
22054.687500; 1.06655E-4
22060.546875; 9.81420E-5
22066.406250; 9.58429E-5
22072.265625; 1.05048E-4
22078.125000; 9.99831E-5
22083.984375; 1.06948E-4
22089.843750; 1.12777E-4
22095.703125; 1.16022E-4
22101.562500; 1.06863E-4
22107.421875; 9.58236E-5
22113.281250; 9.17404E-5
22119.140625; 9.20564E-5
22125.000000; 8.28174E-5
22130.859375; 9.05512E-5
22136.718750; 1.16033E-4
22142.578125; 1.04364E-4
22148.437500; 8.66330E-5
22154.296875; 9.32690E-5
22160.156250; 1.03254E-4
22166.015625; 1.12670E-4
22171.875000; 1.07338E-4
22177.734375; 1.01301E-4
22183.593750; 1.02373E-4
22189.453125; 9.08413E-5
22195.312500; 9.63816E-5
22201.171875; 9.75939E-5
22207.031250; 1.07608E-4
22212.890625; 1.00134E-4
22218.750000; 1.02941E-4
22224.609375; 9.51462E-5
22230.468750; 9.01318E-5
22236.328125; 8.83495E-5
22242.187500; 1.07644E-4
22248.046875; 1.08398E-4
22253.906250; 1.09404E-4
22259.765625; 1.09414E-4
22265.625000; 1.04294E-4
22271.484375; 1.04390E-4
22277.343750; 1.16238E-4
22283.203125; 1.09717E-4
22289.062500; 9.11879E-5
22294.921875; 9.30789E-5
22300.781250; 9.94842E-5
22306.640625; 1.00194E-4
22312.500000; 9.13983E-5
22318.359375; 9.06997E-5
22324.218750; 1.05643E-4
22330.078125; 1.01014E-4
22335.937500; 9.43517E-5
22341.796875; 9.54258E-5
22347.656250; 9.24317E-5
22353.515625; 1.09661E-4
22359.375000; 1.07062E-4
22365.234375; 9.50326E-5
22371.093750; 9.79115E-5
22376.953125; 8.27311E-5
22382.812500; 1.04894E-4
22388.671875; 1.13515E-4
22394.531250; 9.92675E-5
22400.390625; 9.69841E-5
22406.250000; 1.05840E-4
22412.109375; 9.81796E-5
22417.968750; 9.17909E-5
22423.828125; 1.01790E-4
22429.687500; 1.07105E-4
22435.546875; 1.05365E-4
22441.406250; 8.93072E-5
22447.265625; 9.80278E-5
22453.125000; 9.63414E-5
22458.984375; 9.34430E-5
22464.843750; 9.79869E-5
22470.703125; 9.84825E-5
22476.562500; 1.00629E-4
22482.421875; 9.20213E-5
22488.281250; 9.15143E-5
22494.140625; 9.89985E-5
22500.000000; 1.06024E-4
22505.859375; 1.12956E-4
22511.718750; 1.01114E-4
22517.578125; 9.61667E-5
22523.437500; 9.02656E-5
22529.296875; 8.86564E-5
22535.156250; 9.35184E-5
22541.015625; 9.10522E-5
22546.875000; 9.65386E-5
22552.734375; 9.15858E-5
22558.593750; 8.94071E-5
22564.453125; 9.84772E-5
22570.312500; 9.57294E-5
22576.171875; 9.01250E-5
22582.031250; 9.22834E-5
22587.890625; 9.87446E-5
22593.750000; 9.25126E-5
22599.609375; 9.88005E-5
22605.468750; 8.85945E-5
22611.328125; 9.18502E-5
22617.187500; 1.00547E-4
22623.046875; 1.00249E-4
22628.906250; 1.01217E-4
22634.765625; 9.89805E-5
22640.625000; 9.29090E-5
22646.484375; 9.86200E-5
22652.343750; 1.08239E-4
22658.203125; 1.04656E-4
22664.062500; 9.60182E-5
22669.921875; 9.27897E-5
22675.781250; 8.74052E-5
22681.640625; 9.19604E-5
22687.500000; 8.88451E-5
22693.359375; 8.64541E-5
22699.218750; 8.55755E-5
22705.078125; 8.18231E-5
22710.937500; 9.39987E-5
22716.796875; 8.45598E-5
22722.656250; 8.87963E-5
22728.515625; 9.15065E-5
22734.375000; 9.10363E-5
22740.234375; 9.10341E-5
22746.093750; 8.28936E-5
22751.953125; 9.53506E-5
22757.812500; 9.92375E-5
22763.671875; 9.11035E-5
22769.531250; 8.28946E-5
22775.390625; 8.53014E-5
22781.250000; 8.82231E-5
22787.109375; 9.25605E-5
22792.968750; 9.90269E-5
22798.828125; 9.69073E-5
22804.687500; 8.62042E-5
22810.546875; 8.64217E-5
22816.406250; 8.50810E-5
22822.265625; 7.68773E-5
22828.125000; 8.13103E-5
22833.984375; 9.21965E-5
22839.843750; 8.69085E-5
22845.703125; 8.57104E-5
22851.562500; 8.51827E-5
22857.421875; 8.43807E-5
22863.281250; 8.62129E-5
22869.140625; 9.28436E-5
22875.000000; 7.89647E-5
22880.859375; 7.49813E-5
22886.718750; 7.46783E-5
22892.578125; 7.17335E-5
22898.437500; 8.30354E-5
22904.296875; 9.10412E-5
22910.156250; 9.44598E-5
22916.015625; 8.11458E-5
22921.875000; 7.93241E-5
22927.734375; 8.01825E-5
22933.593750; 7.13939E-5
22939.453125; 8.76615E-5
22945.312500; 7.93283E-5
22951.171875; 7.85413E-5
22957.031250; 8.30932E-5
22962.890625; 8.41185E-5
22968.750000; 8.50328E-5
22974.609375; 8.44409E-5
22980.468750; 6.98248E-5
22986.328125; 6.79653E-5
22992.187500; 8.13577E-5
22998.046875; 8.20695E-5
23003.906250; 7.59031E-5
23009.765625; 7.80521E-5
23015.625000; 7.54265E-5
23021.484375; 7.41634E-5
23027.343750; 7.86002E-5
23033.203125; 8.49417E-5
23039.062500; 8.44422E-5
23044.921875; 7.97530E-5
23050.781250; 8.48979E-5
23056.640625; 8.69655E-5
23062.500000; 8.25787E-5
23068.359375; 7.84548E-5
23074.218750; 6.97733E-5
23080.078125; 7.46855E-5
23085.937500; 6.88925E-5
23091.796875; 7.20663E-5
23097.656250; 7.67238E-5
23103.515625; 6.89639E-5
23109.375000; 6.54415E-5
23115.234375; 7.51710E-5
23121.093750; 6.82977E-5
23126.953125; 7.14525E-5
23132.812500; 7.47682E-5
23138.671875; 7.00106E-5
23144.531250; 6.61253E-5
23150.390625; 7.57947E-5
23156.250000; 7.50729E-5
23162.109375; 6.94985E-5
23167.968750; 6.70101E-5
23173.828125; 6.93318E-5
23179.687500; 7.50692E-5
23185.546875; 6.93653E-5
23191.406250; 7.64352E-5
23197.265625; 7.99327E-5
23203.125000; 6.86256E-5
23208.984375; 6.91232E-5
23214.843750; 7.56913E-5
23220.703125; 7.37054E-5
23226.562500; 6.66564E-5
23232.421875; 6.98152E-5
23238.281250; 6.99759E-5
23244.140625; 7.14441E-5
23250.000000; 7.13525E-5
23255.859375; 6.09411E-5
23261.718750; 5.58367E-5
23267.578125; 5.87694E-5
23273.437500; 6.24983E-5
23279.296875; 6.94008E-5
23285.156250; 6.37697E-5
23291.015625; 5.51252E-5
23296.875000; 6.33759E-5
23302.734375; 6.72068E-5
23308.593750; 5.93359E-5
23314.453125; 5.89274E-5
23320.312500; 6.25690E-5
23326.171875; 6.53498E-5
23332.031250; 6.08649E-5
23337.890625; 5.65075E-5
23343.750000; 5.20655E-5
23349.609375; 5.14827E-5
23355.468750; 5.36658E-5
23361.328125; 5.68438E-5
23367.187500; 6.37924E-5
23373.046875; 6.26095E-5
23378.906250; 5.51452E-5
23384.765625; 5.41227E-5
23390.625000; 5.60997E-5
23396.484375; 5.66223E-5
23402.343750; 5.85812E-5
23408.203125; 6.30714E-5
23414.062500; 5.79921E-5
23419.921875; 5.69508E-5
23425.781250; 6.03287E-5
23431.640625; 5.67511E-5
23437.500000; 5.00963E-5
23443.359375; 5.03012E-5
23449.218750; 5.42736E-5
23455.078125; 6.03466E-5
23460.937500; 5.44733E-5
23466.796875; 5.14112E-5
23472.656250; 4.93480E-5
23478.515625; 5.41138E-5
23484.375000; 4.99674E-5
23490.234375; 5.25311E-5
23496.093750; 5.37167E-5
23501.953125; 5.42741E-5
23507.812500; 5.42217E-5
23513.671875; 4.71194E-5
23519.531250; 4.75686E-5
23525.390625; 5.19137E-5
23531.250000; 5.13490E-5
23537.109375; 5.46855E-5
23542.968750; 4.59520E-5
23548.828125; 4.19516E-5
23554.687500; 4.13963E-5
23560.546875; 4.20702E-5
23566.406250; 4.92189E-5
23572.265625; 5.32129E-5
23578.125000; 5.21541E-5
23583.984375; 4.78556E-5
23589.843750; 4.48442E-5
23595.703125; 4.59557E-5
23601.562500; 4.46030E-5
23607.421875; 4.83600E-5
23613.281250; 4.36415E-5
23619.140625; 4.64343E-5
23625.000000; 4.38729E-5
23630.859375; 4.24129E-5
23636.718750; 4.27196E-5
23642.578125; 4.48792E-5
23648.437500; 4.34209E-5
23654.296875; 4.25014E-5
23660.156250; 4.26497E-5
23666.015625; 4.18667E-5
23671.875000; 3.89649E-5
23677.734375; 4.45893E-5
23683.593750; 4.66131E-5
23689.453125; 4.39464E-5
23695.312500; 4.39057E-5
23701.171875; 4.24778E-5
23707.031250; 3.93793E-5
23712.890625; 3.88605E-5
23718.750000; 4.39087E-5
23724.609375; 4.50986E-5
23730.468750; 4.20973E-5
23736.328125; 3.94390E-5
23742.187500; 3.65177E-5
23748.046875; 3.92072E-5
23753.906250; 4.20292E-5
23759.765625; 4.28222E-5
23765.625000; 4.12838E-5
23771.484375; 4.38954E-5
23777.343750; 3.82333E-5
23783.203125; 3.58091E-5
23789.062500; 3.62408E-5
23794.921875; 3.64594E-5
23800.781250; 3.76556E-5
23806.640625; 3.99423E-5
23812.500000; 3.84555E-5
23818.359375; 4.00999E-5
23824.218750; 3.86251E-5
23830.078125; 4.13797E-5
23835.937500; 4.07500E-5
23841.796875; 4.05415E-5
23847.656250; 3.76932E-5
23853.515625; 4.15944E-5
23859.375000; 4.13291E-5
23865.234375; 3.58706E-5
23871.093750; 3.61224E-5
23876.953125; 4.18878E-5
23882.812500; 4.33173E-5
23888.671875; 3.95118E-5
23894.531250; 4.07178E-5
23900.390625; 4.01677E-5
23906.250000; 4.01456E-5
23912.109375; 3.66030E-5
23917.968750; 3.60705E-5
23923.828125; 3.16111E-5
23929.687500; 3.55296E-5
23935.546875; 3.24384E-5
23941.406250; 3.75986E-5
23947.265625; 3.64759E-5
23953.125000; 3.28570E-5
23958.984375; 3.67690E-5
23964.843750; 4.05509E-5
23970.703125; 3.77644E-5
23976.562500; 3.23611E-5
23982.421875; 3.39852E-5
23988.281250; 3.75000E-5
23994.140625; 3.71425E-5
