* Measurement data measured by REW V5.31.3
* Source: PCM: default, no input selected, 2, volume: no control
* Format: 8192-point spectrum using Hann window and exponential averaging 0.97 
* Dated: Mar 9, 2025 1:23:29 PM
* REW Settings:
*  C-weighting compensation: Off
*  Target level: 75.0 dB
* Note: OSDEHA MU-OUTPUT; 8192-point spectrum using Hann window and exponential averaging 0.97  Input RMS 23.70 V 23.70 VC, 23.70 VA 23.70 V 22 - 22k UNW 953.6 uV >22k Distortion at 1,000.0 Hz, -12.51 dBFS: Gain: 29.67 dB THD: 0.023 % based on 21 harmonics  [0..22800 Hz] HHD: 0.0016 %  [10 .. 22] N: 0.059 %  [0..22800 Hz] N+D: 7.590 mV A THD+N: 0.064 %  [0..22800 Hz] SNR: 64.5 dB ENOB: 12.9 bits 2nd harmonic 0.023 % 145 deg 3rd harmonic 0.00082 % -15 deg 4th harmonic 0.0022 % 135 deg 5th harmonic 0.00052 % 19 deg 6th harmonic 0.00044 % 70 deg 7th harmonic 0.00050 % 3 deg 8th harmonic 0.00047 % -75 deg 9th harmonic 0.00044 % 33 deg
* Measurement: OSDEHA MU-OUT 23.7
* Smoothing: None
* Frequency Step: 5.859375 Hz
* Start Frequency: 5.859375 Hz
*
* Freq(Hz); V(V)
5.859375; 2.35640E-4
11.718750; 2.92325E-4
17.578125; 2.48728E-4
23.437500; 2.05825E-4
29.296875; 1.92542E-4
35.156250; 1.80266E-4
41.015625; 1.69220E-4
46.875000; 3.11191E-4
52.734375; 3.14179E-4
58.593750; 1.58255E-4
64.453125; 1.36315E-4
70.312500; 1.33158E-4
76.171875; 1.36929E-4
82.031250; 1.52318E-4
87.890625; 1.98286E-4
93.750000; 5.85199E-3
99.609375; 1.28660E-2
105.468750; 7.03533E-3
111.328125; 2.00700E-4
117.187500; 1.72519E-4
123.046875; 1.31187E-4
128.906250; 1.25536E-4
134.765625; 1.26635E-4
140.625000; 1.28344E-4
146.484375; 1.43273E-4
152.343750; 1.37155E-4
158.203125; 1.12458E-4
164.062500; 1.26552E-4
169.921875; 1.38568E-4
175.781250; 1.44575E-4
181.640625; 1.24379E-4
187.500000; 1.08443E-4
193.359375; 5.86014E-4
199.218750; 1.37739E-3
205.078125; 8.33948E-4
210.937500; 1.32081E-4
216.796875; 1.31947E-4
222.656250; 1.26956E-4
228.515625; 1.26895E-4
234.375000; 1.43362E-4
240.234375; 1.36512E-4
246.093750; 1.31192E-4
251.953125; 1.34082E-4
257.812500; 1.22337E-4
263.671875; 1.10348E-4
269.531250; 1.09253E-4
275.390625; 1.18523E-4
281.250000; 1.10792E-4
287.109375; 1.13404E-4
292.968750; 1.68309E-4
298.828125; 3.04928E-4
304.687500; 2.05659E-4
310.546875; 1.23605E-4
316.406250; 1.26792E-4
322.265625; 1.21067E-4
328.125000; 1.33440E-4
333.984375; 1.25005E-4
339.843750; 1.03321E-4
345.703125; 1.06957E-4
351.562500; 1.16964E-4
357.421875; 1.08235E-4
363.281250; 1.23866E-4
369.140625; 1.16896E-4
375.000000; 1.02615E-4
380.859375; 1.12652E-4
386.718750; 1.27372E-4
392.578125; 1.54464E-4
398.437500; 2.81773E-4
404.296875; 2.14768E-4
410.156250; 1.22886E-4
416.015625; 1.20341E-4
421.875000; 1.15458E-4
427.734375; 1.10488E-4
433.593750; 1.23460E-4
439.453125; 1.20286E-4
445.312500; 1.24469E-4
451.171875; 1.23633E-4
457.031250; 1.37008E-4
462.890625; 1.23854E-4
468.750000; 1.22951E-4
474.609375; 1.22803E-4
480.468750; 1.23892E-4
486.328125; 1.30055E-4
492.187500; 1.22282E-4
498.046875; 1.35063E-4
503.906250; 1.23009E-4
509.765625; 1.26164E-4
515.625000; 1.17145E-4
521.484375; 1.04995E-4
527.343750; 1.12493E-4
533.203125; 1.30755E-4
539.062500; 1.17575E-4
544.921875; 1.13542E-4
550.781250; 1.15504E-4
556.640625; 1.18055E-4
562.500000; 1.19024E-4
568.359375; 1.23278E-4
574.218750; 1.29327E-4
580.078125; 1.17710E-4
585.937500; 1.07964E-4
591.796875; 1.15577E-4
597.656250; 1.23339E-4
603.515625; 1.10526E-4
609.375000; 1.04129E-4
615.234375; 1.20755E-4
621.093750; 1.17091E-4
626.953125; 1.24963E-4
632.812500; 1.26630E-4
638.671875; 1.17012E-4
644.531250; 1.20569E-4
650.390625; 1.20867E-4
656.250000; 1.19281E-4
662.109375; 1.23689E-4
667.968750; 1.23982E-4
673.828125; 1.33630E-4
679.687500; 1.32127E-4
685.546875; 1.30919E-4
691.406250; 1.30685E-4
697.265625; 1.30721E-4
703.125000; 1.37086E-4
708.984375; 1.43144E-4
714.843750; 1.15170E-4
720.703125; 1.22061E-4
726.562500; 1.32681E-4
732.421875; 1.37018E-4
738.281250; 1.32553E-4
744.140625; 1.50727E-4
750.000000; 1.33457E-4
755.859375; 1.67728E-4
761.718750; 1.27349E-4
767.578125; 1.59873E-4
773.437500; 1.70709E-4
779.296875; 1.63818E-4
785.156250; 1.64734E-4
791.015625; 1.92514E-4
796.875000; 1.87504E-4
802.734375; 2.14835E-4
808.593750; 1.97767E-4
814.453125; 2.49590E-4
820.312500; 2.37445E-4
826.171875; 2.69156E-4
832.031250; 2.95722E-4
837.890625; 3.33709E-4
843.750000; 3.57932E-4
849.609375; 4.06446E-4
855.468750; 4.46571E-4
861.328125; 5.10049E-4
867.187500; 5.80110E-4
873.046875; 6.37393E-4
878.906250; 7.57086E-4
884.765625; 8.60026E-4
890.625000; 1.02340E-3
896.484375; 1.19309E-3
902.343750; 1.41631E-3
908.203125; 1.69692E-3
914.062500; 2.09571E-3
919.921875; 2.57646E-3
925.781250; 3.23762E-3
931.640625; 4.13034E-3
937.500000; 5.44869E-3
943.359375; 7.30563E-3
949.218750; 1.01607E-2
955.078125; 1.47599E-2
960.937500; 2.25483E-2
966.796875; 3.70546E-2
972.656250; 6.73876E-2
978.515625; 1.43143E-1
984.375000; 4.00881E-1
990.234375; 2.20475E0
996.093750; 1.76380E1
1001.953125; 2.20476E1
1007.812500; 6.29932E0
1013.671875; 6.29904E-1
1019.531250; 1.93841E-1
1025.390625; 8.47952E-2
1031.250000; 4.46203E-2
1037.109375; 2.63754E-2
1042.968750; 1.68816E-2
1048.828125; 1.14604E-2
1054.687500; 8.12545E-3
1060.546875; 5.97526E-3
1066.406250; 4.52973E-3
1072.265625; 3.49711E-3
1078.125000; 2.78084E-3
1083.984375; 2.23137E-3
1089.843750; 1.82701E-3
1095.703125; 1.50442E-3
1101.562500; 1.26211E-3
1107.421875; 1.08163E-3
1113.281250; 9.06575E-4
1119.140625; 7.85159E-4
1125.000000; 6.72710E-4
1130.859375; 6.07737E-4
1136.718750; 5.35893E-4
1142.578125; 4.52415E-4
1148.437500; 4.27217E-4
1154.296875; 3.77592E-4
1160.156250; 3.26866E-4
1166.015625; 3.19682E-4
1171.875000; 2.60461E-4
1177.734375; 2.67557E-4
1183.593750; 2.37709E-4
1189.453125; 2.15626E-4
1195.312500; 2.08266E-4
1201.171875; 1.98141E-4
1207.031250; 1.75597E-4
1212.890625; 1.86297E-4
1218.750000; 1.47321E-4
1224.609375; 1.71673E-4
1230.468750; 1.49644E-4
1236.328125; 1.40717E-4
1242.187500; 1.50008E-4
1248.046875; 1.47864E-4
1253.906250; 1.30657E-4
1259.765625; 1.20650E-4
1265.625000; 1.40780E-4
1271.484375; 1.23694E-4
1277.343750; 1.25900E-4
1283.203125; 1.33136E-4
1289.062500; 1.26699E-4
1294.921875; 1.18640E-4
1300.781250; 1.25988E-4
1306.640625; 1.06794E-4
1312.500000; 1.19116E-4
1318.359375; 1.21782E-4
1324.218750; 1.23987E-4
1330.078125; 1.19618E-4
1335.937500; 1.28013E-4
1341.796875; 1.13835E-4
1347.656250; 1.12521E-4
1353.515625; 1.10380E-4
1359.375000; 1.10686E-4
1365.234375; 1.17705E-4
1371.093750; 1.12486E-4
1376.953125; 1.19991E-4
1382.812500; 1.26214E-4
1388.671875; 1.18041E-4
1394.531250; 1.13377E-4
1400.390625; 1.10852E-4
1406.250000; 1.14519E-4
1412.109375; 1.16646E-4
1417.968750; 1.12299E-4
1423.828125; 9.96501E-5
1429.687500; 9.46439E-5
1435.546875; 9.19982E-5
1441.406250; 1.13436E-4
1447.265625; 1.30575E-4
1453.125000; 1.25333E-4
1458.984375; 1.17199E-4
1464.843750; 1.22494E-4
1470.703125; 1.02910E-4
1476.562500; 9.42125E-5
1482.421875; 1.04811E-4
1488.281250; 1.06842E-4
1494.140625; 1.04480E-4
1500.000000; 1.11091E-4
1505.859375; 1.08124E-4
1511.718750; 1.09104E-4
1517.578125; 1.07510E-4
1523.437500; 9.64041E-5
1529.296875; 9.74185E-5
1535.156250; 1.03607E-4
1541.015625; 1.08509E-4
1546.875000; 1.15891E-4
1552.734375; 1.18716E-4
1558.593750; 1.33789E-4
1564.453125; 1.31816E-4
1570.312500; 1.13631E-4
1576.171875; 1.06256E-4
1582.031250; 1.07313E-4
1587.890625; 1.12293E-4
1593.750000; 1.12759E-4
1599.609375; 1.03389E-4
1605.468750; 1.13827E-4
1611.328125; 1.14710E-4
1617.187500; 1.17742E-4
1623.046875; 1.09993E-4
1628.906250; 1.09022E-4
1634.765625; 1.10518E-4
1640.625000; 1.11997E-4
1646.484375; 9.68321E-5
1652.343750; 8.63618E-5
1658.203125; 9.32328E-5
1664.062500; 1.09700E-4
1669.921875; 1.27065E-4
1675.781250; 1.30531E-4
1681.640625; 1.19765E-4
1687.500000; 1.11851E-4
1693.359375; 1.00768E-4
1699.218750; 1.09035E-4
1705.078125; 1.07911E-4
1710.937500; 1.03428E-4
1716.796875; 1.09333E-4
1722.656250; 1.11472E-4
1728.515625; 1.04844E-4
1734.375000; 1.10908E-4
1740.234375; 1.03616E-4
1746.093750; 1.07629E-4
1751.953125; 1.08338E-4
1757.812500; 1.14972E-4
1763.671875; 9.95500E-5
1769.531250; 1.01767E-4
1775.390625; 1.07865E-4
1781.250000; 1.06550E-4
1787.109375; 1.04132E-4
1792.968750; 1.00367E-4
1798.828125; 1.05014E-4
1804.687500; 1.00732E-4
1810.546875; 1.03157E-4
1816.406250; 1.08376E-4
1822.265625; 1.21925E-4
1828.125000; 1.23333E-4
1833.984375; 1.16442E-4
1839.843750; 1.17547E-4
1845.703125; 1.19118E-4
1851.562500; 1.27864E-4
1857.421875; 1.24426E-4
1863.281250; 1.10490E-4
1869.140625; 1.13540E-4
1875.000000; 1.12953E-4
1880.859375; 1.02409E-4
1886.718750; 1.08622E-4
1892.578125; 1.07979E-4
1898.437500; 9.51105E-5
1904.296875; 9.32123E-5
1910.156250; 1.05030E-4
1916.015625; 1.19330E-4
1921.875000; 1.18586E-4
1927.734375; 1.19252E-4
1933.593750; 1.10749E-4
1939.453125; 1.12366E-4
1945.312500; 1.11526E-4
1951.171875; 1.19695E-4
1957.031250; 1.20661E-4
1962.890625; 1.06479E-4
1968.750000; 1.04650E-4
1974.609375; 1.12095E-4
1980.468750; 1.15996E-4
1986.328125; 1.73512E-4
1992.187500; 1.43425E-3
1998.046875; 5.01157E-3
2003.906250; 4.00996E-3
2009.765625; 5.24651E-4
2015.625000; 1.32993E-4
2021.484375; 1.18842E-4
2027.343750; 1.07975E-4
2033.203125; 1.14150E-4
2039.062500; 1.09732E-4
2044.921875; 1.09978E-4
2050.781250; 1.08933E-4
2056.640625; 1.21579E-4
2062.500000; 1.13782E-4
2068.359375; 1.32430E-4
2074.218750; 1.20180E-4
2080.078125; 9.91207E-5
2085.937500; 1.06344E-4
2091.796875; 1.07826E-4
2097.656250; 1.04944E-4
2103.515625; 1.06262E-4
2109.375000; 1.16354E-4
2115.234375; 1.14758E-4
2121.093750; 1.03681E-4
2126.953125; 1.14168E-4
2132.812500; 1.06492E-4
2138.671875; 1.06802E-4
2144.531250; 1.20816E-4
2150.390625; 1.18282E-4
2156.250000; 1.06167E-4
2162.109375; 1.05229E-4
2167.968750; 1.22914E-4
2173.828125; 1.11995E-4
2179.687500; 1.09568E-4
2185.546875; 1.14465E-4
2191.406250; 1.16680E-4
2197.265625; 1.10835E-4
2203.125000; 1.00151E-4
2208.984375; 1.12282E-4
2214.843750; 1.17511E-4
2220.703125; 1.19797E-4
2226.562500; 1.18519E-4
2232.421875; 1.22901E-4
2238.281250; 1.11001E-4
2244.140625; 1.04251E-4
2250.000000; 1.09158E-4
2255.859375; 1.06004E-4
2261.718750; 1.02678E-4
2267.578125; 1.01184E-4
2273.437500; 1.01479E-4
2279.296875; 1.02980E-4
2285.156250; 1.15722E-4
2291.015625; 1.16403E-4
2296.875000; 1.11013E-4
2302.734375; 1.11515E-4
2308.593750; 1.01834E-4
2314.453125; 1.15718E-4
2320.312500; 1.22164E-4
2326.171875; 1.10124E-4
2332.031250; 1.00359E-4
2337.890625; 1.06513E-4
2343.750000; 1.09601E-4
2349.609375; 1.09897E-4
2355.468750; 1.03056E-4
2361.328125; 1.11921E-4
2367.187500; 1.14591E-4
2373.046875; 1.07034E-4
2378.906250; 1.11909E-4
2384.765625; 1.09259E-4
2390.625000; 1.06305E-4
2396.484375; 1.14767E-4
2402.343750; 1.09027E-4
2408.203125; 1.18345E-4
2414.062500; 1.15412E-4
2419.921875; 1.07562E-4
2425.781250; 1.18409E-4
2431.640625; 1.17511E-4
2437.500000; 1.10456E-4
2443.359375; 1.11613E-4
2449.218750; 9.93466E-5
2455.078125; 9.72771E-5
2460.937500; 1.14128E-4
2466.796875; 9.65608E-5
2472.656250; 1.09953E-4
2478.515625; 1.20098E-4
2484.375000; 1.02487E-4
2490.234375; 9.63236E-5
2496.093750; 1.11362E-4
2501.953125; 1.32679E-4
2507.812500; 1.24816E-4
2513.671875; 1.06302E-4
2519.531250; 9.61122E-5
2525.390625; 1.03703E-4
2531.250000; 1.06698E-4
2537.109375; 1.04122E-4
2542.968750; 1.07021E-4
2548.828125; 1.04806E-4
2554.687500; 1.05375E-4
2560.546875; 1.20253E-4
2566.406250; 1.03258E-4
2572.265625; 1.03198E-4
2578.125000; 1.08693E-4
2583.984375; 9.93900E-5
2589.843750; 1.01532E-4
2595.703125; 1.13512E-4
2601.562500; 1.05923E-4
2607.421875; 9.94704E-5
2613.281250; 1.03634E-4
2619.140625; 1.13190E-4
2625.000000; 1.08437E-4
2630.859375; 1.00869E-4
2636.718750; 1.14451E-4
2642.578125; 1.17863E-4
2648.437500; 1.15735E-4
2654.296875; 1.06463E-4
2660.156250; 1.07976E-4
2666.015625; 1.10742E-4
2671.875000; 1.17873E-4
2677.734375; 1.26554E-4
2683.593750; 1.17215E-4
2689.453125; 9.44063E-5
2695.312500; 9.32421E-5
2701.171875; 9.30357E-5
2707.031250; 1.09600E-4
2712.890625; 1.13085E-4
2718.750000; 9.80989E-5
2724.609375; 9.73183E-5
2730.468750; 1.02129E-4
2736.328125; 1.06790E-4
2742.187500; 1.11734E-4
2748.046875; 1.10279E-4
2753.906250; 9.43235E-5
2759.765625; 9.58898E-5
2765.625000; 1.02636E-4
2771.484375; 1.05135E-4
2777.343750; 1.15686E-4
2783.203125; 1.02050E-4
2789.062500; 1.10149E-4
2794.921875; 1.10596E-4
2800.781250; 1.02029E-4
2806.640625; 9.84041E-5
2812.500000; 1.07009E-4
2818.359375; 1.09533E-4
2824.218750; 1.16714E-4
2830.078125; 1.15539E-4
2835.937500; 1.28833E-4
2841.796875; 1.20820E-4
2847.656250; 1.16769E-4
2853.515625; 1.04490E-4
2859.375000; 1.01120E-4
2865.234375; 1.00325E-4
2871.093750; 1.04456E-4
2876.953125; 9.89672E-5
2882.812500; 9.64608E-5
2888.671875; 9.90046E-5
2894.531250; 1.09985E-4
2900.390625; 1.12725E-4
2906.250000; 1.08804E-4
2912.109375; 1.04309E-4
2917.968750; 1.08549E-4
2923.828125; 1.13037E-4
2929.687500; 1.22592E-4
2935.546875; 1.26524E-4
2941.406250; 1.19327E-4
2947.265625; 1.16999E-4
2953.125000; 9.83922E-5
2958.984375; 9.47790E-5
2964.843750; 1.07077E-4
2970.703125; 1.16455E-4
2976.562500; 1.07340E-4
2982.421875; 9.66534E-5
2988.281250; 1.10428E-4
2994.140625; 1.61910E-4
3000.000000; 2.49437E-4
3005.859375; 1.47952E-4
3011.718750; 1.12471E-4
3017.578125; 1.13892E-4
3023.437500; 1.12642E-4
3029.296875; 1.06970E-4
3035.156250; 1.11220E-4
3041.015625; 1.01286E-4
3046.875000; 1.00951E-4
3052.734375; 1.14288E-4
3058.593750; 1.06721E-4
3064.453125; 1.24402E-4
3070.312500; 1.26408E-4
3076.171875; 1.14276E-4
3082.031250; 1.15683E-4
3087.890625; 1.09798E-4
3093.750000; 1.11861E-4
3099.609375; 1.14019E-4
3105.468750; 1.02827E-4
3111.328125; 1.04611E-4
3117.187500; 1.12826E-4
3123.046875; 1.14887E-4
3128.906250; 1.03978E-4
3134.765625; 1.10397E-4
3140.625000; 1.22655E-4
3146.484375; 1.18610E-4
3152.343750; 1.13221E-4
3158.203125; 1.07654E-4
3164.062500; 9.80122E-5
3169.921875; 1.06956E-4
3175.781250; 1.07310E-4
3181.640625; 1.12946E-4
3187.500000; 1.04209E-4
3193.359375; 9.27954E-5
3199.218750; 1.02480E-4
3205.078125; 1.14814E-4
3210.937500; 1.08155E-4
3216.796875; 1.02286E-4
3222.656250; 1.15480E-4
3228.515625; 1.07851E-4
3234.375000; 1.13306E-4
3240.234375; 1.17152E-4
3246.093750; 1.13913E-4
3251.953125; 1.04570E-4
3257.812500; 1.04805E-4
3263.671875; 1.17995E-4
3269.531250; 1.10123E-4
3275.390625; 1.04956E-4
3281.250000; 1.06456E-4
3287.109375; 1.11138E-4
3292.968750; 9.42092E-5
3298.828125; 9.88752E-5
3304.687500; 1.04617E-4
3310.546875; 1.03822E-4
3316.406250; 9.88882E-5
3322.265625; 1.05664E-4
3328.125000; 1.01240E-4
3333.984375; 1.00121E-4
3339.843750; 1.02153E-4
3345.703125; 1.00477E-4
3351.562500; 1.03399E-4
3357.421875; 1.16211E-4
3363.281250; 1.08364E-4
3369.140625; 1.08454E-4
3375.000000; 1.10636E-4
3380.859375; 1.18080E-4
3386.718750; 1.06417E-4
3392.578125; 1.09340E-4
3398.437500; 9.46901E-5
3404.296875; 1.12639E-4
3410.156250; 1.16892E-4
3416.015625; 1.05244E-4
3421.875000; 9.73857E-5
3427.734375; 1.06375E-4
3433.593750; 1.18561E-4
3439.453125; 1.09294E-4
3445.312500; 9.58598E-5
3451.171875; 9.63709E-5
3457.031250; 1.07536E-4
3462.890625; 1.06955E-4
3468.750000; 1.11430E-4
3474.609375; 1.04556E-4
3480.468750; 1.08134E-4
3486.328125; 1.18554E-4
3492.187500; 1.14025E-4
3498.046875; 9.58893E-5
3503.906250; 9.40541E-5
3509.765625; 1.18551E-4
3515.625000; 1.15136E-4
3521.484375; 1.10162E-4
3527.343750; 9.75869E-5
3533.203125; 1.10310E-4
3539.062500; 1.11534E-4
3544.921875; 1.03543E-4
3550.781250; 1.05693E-4
3556.640625; 9.72571E-5
3562.500000; 9.70579E-5
3568.359375; 1.10934E-4
3574.218750; 1.08190E-4
3580.078125; 1.11543E-4
3585.937500; 1.18606E-4
3591.796875; 1.17255E-4
3597.656250; 1.25283E-4
3603.515625; 1.27879E-4
3609.375000; 1.23754E-4
3615.234375; 1.08025E-4
3621.093750; 1.05397E-4
3626.953125; 1.12306E-4
3632.812500; 1.14728E-4
3638.671875; 1.07850E-4
3644.531250; 1.16091E-4
3650.390625; 1.23266E-4
3656.250000; 1.06912E-4
3662.109375; 1.17410E-4
3667.968750; 1.14774E-4
3673.828125; 1.01315E-4
3679.687500; 1.07054E-4
3685.546875; 1.01186E-4
3691.406250; 9.63604E-5
3697.265625; 1.10244E-4
3703.125000; 1.15401E-4
3708.984375; 1.16250E-4
3714.843750; 1.00622E-4
3720.703125; 9.47984E-5
3726.562500; 1.08565E-4
3732.421875; 1.14588E-4
3738.281250; 1.02146E-4
3744.140625; 1.04525E-4
3750.000000; 9.67792E-5
3755.859375; 1.02534E-4
3761.718750; 1.10792E-4
3767.578125; 1.09809E-4
3773.437500; 1.15536E-4
3779.296875; 1.18790E-4
3785.156250; 1.07433E-4
3791.015625; 1.09460E-4
3796.875000; 1.05873E-4
3802.734375; 1.17332E-4
3808.593750; 1.16291E-4
3814.453125; 1.12621E-4
3820.312500; 1.06214E-4
3826.171875; 1.10188E-4
3832.031250; 1.07163E-4
3837.890625; 1.10053E-4
3843.750000; 1.12858E-4
3849.609375; 1.05349E-4
3855.468750; 1.09507E-4
3861.328125; 1.13649E-4
3867.187500; 1.10298E-4
3873.046875; 1.08043E-4
3878.906250; 1.11374E-4
3884.765625; 1.18407E-4
3890.625000; 1.11489E-4
3896.484375; 1.04204E-4
3902.343750; 1.09550E-4
3908.203125; 1.10189E-4
3914.062500; 1.04213E-4
3919.921875; 1.19357E-4
3925.781250; 1.15725E-4
3931.640625; 1.16644E-4
3937.500000; 1.15256E-4
3943.359375; 1.21486E-4
3949.218750; 1.05967E-4
3955.078125; 1.05020E-4
3960.937500; 1.09043E-4
3966.796875; 1.13909E-4
3972.656250; 1.22028E-4
3978.515625; 1.16178E-4
3984.375000; 1.12068E-4
3990.234375; 1.23519E-4
3996.093750; 3.67089E-4
4001.953125; 4.50338E-4
4007.812500; 1.61170E-4
4013.671875; 1.09192E-4
4019.531250; 9.80048E-5
4025.390625; 1.07054E-4
4031.250000; 1.01109E-4
4037.109375; 1.06244E-4
4042.968750; 1.07008E-4
4048.828125; 1.16055E-4
4054.687500; 1.11623E-4
4060.546875; 9.88890E-5
4066.406250; 1.04011E-4
4072.265625; 1.17259E-4
4078.125000; 1.10370E-4
4083.984375; 1.10021E-4
4089.843750; 1.23038E-4
4095.703125; 1.08823E-4
4101.562500; 1.07843E-4
4107.421875; 1.11714E-4
4113.281250; 1.13449E-4
4119.140625; 1.04616E-4
4125.000000; 1.14140E-4
4130.859375; 1.06546E-4
4136.718750; 9.48763E-5
4142.578125; 1.15365E-4
4148.437500; 1.24466E-4
4154.296875; 1.19344E-4
4160.156250; 1.13216E-4
4166.015625; 1.05190E-4
4171.875000; 1.14128E-4
4177.734375; 1.20090E-4
4183.593750; 1.14451E-4
4189.453125; 1.14491E-4
4195.312500; 1.13639E-4
4201.171875; 1.08126E-4
4207.031250; 1.02721E-4
4212.890625; 1.15455E-4
4218.750000; 1.05339E-4
4224.609375; 1.00310E-4
4230.468750; 1.15971E-4
4236.328125; 1.28778E-4
4242.187500; 1.05798E-4
4248.046875; 1.12145E-4
4253.906250; 1.22123E-4
4259.765625; 1.20581E-4
4265.625000; 1.10686E-4
4271.484375; 1.21954E-4
4277.343750; 1.17100E-4
4283.203125; 1.03469E-4
4289.062500; 1.13148E-4
4294.921875; 1.18683E-4
4300.781250; 1.08076E-4
4306.640625; 1.11206E-4
4312.500000; 1.05120E-4
4318.359375; 1.08643E-4
4324.218750; 1.09929E-4
4330.078125; 1.01071E-4
4335.937500; 1.06143E-4
4341.796875; 1.12720E-4
4347.656250; 1.09242E-4
4353.515625; 1.07671E-4
4359.375000; 1.01846E-4
4365.234375; 1.10590E-4
4371.093750; 1.08054E-4
4376.953125; 1.10585E-4
4382.812500; 1.04980E-4
4388.671875; 1.18796E-4
4394.531250; 1.21332E-4
4400.390625; 1.11787E-4
4406.250000; 1.07284E-4
4412.109375; 1.17511E-4
4417.968750; 1.02141E-4
4423.828125; 9.59192E-5
4429.687500; 1.10213E-4
4435.546875; 1.10281E-4
4441.406250; 1.03955E-4
4447.265625; 1.04419E-4
4453.125000; 1.14081E-4
4458.984375; 1.08766E-4
4464.843750; 1.17340E-4
4470.703125; 1.19614E-4
4476.562500; 1.07348E-4
4482.421875; 9.79121E-5
4488.281250; 1.02260E-4
4494.140625; 8.71437E-5
4500.000000; 9.31803E-5
4505.859375; 9.41770E-5
4511.718750; 1.04723E-4
4517.578125; 1.05451E-4
4523.437500; 1.15896E-4
4529.296875; 1.13275E-4
4535.156250; 1.11624E-4
4541.015625; 1.05420E-4
4546.875000; 1.05453E-4
4552.734375; 1.09253E-4
4558.593750; 1.03585E-4
4564.453125; 1.05626E-4
4570.312500; 1.09587E-4
4576.171875; 1.11296E-4
4582.031250; 1.14412E-4
4587.890625; 1.05211E-4
4593.750000; 1.02835E-4
4599.609375; 1.13077E-4
4605.468750; 1.16327E-4
4611.328125; 1.14622E-4
4617.187500; 1.02593E-4
4623.046875; 1.00216E-4
4628.906250; 1.08752E-4
4634.765625; 9.63698E-5
4640.625000; 9.41221E-5
4646.484375; 9.75455E-5
4652.343750; 1.15248E-4
4658.203125; 1.10024E-4
4664.062500; 9.98108E-5
4669.921875; 1.08131E-4
4675.781250; 1.04677E-4
4681.640625; 1.05757E-4
4687.500000; 1.01580E-4
4693.359375; 1.08551E-4
4699.218750; 1.09806E-4
4705.078125; 1.01714E-4
4710.937500; 9.68348E-5
4716.796875; 9.77978E-5
4722.656250; 9.87536E-5
4728.515625; 9.27224E-5
4734.375000; 1.05229E-4
4740.234375; 1.08851E-4
4746.093750; 1.09378E-4
4751.953125; 9.87742E-5
4757.812500; 1.01910E-4
4763.671875; 9.87194E-5
4769.531250; 1.05406E-4
4775.390625; 1.05498E-4
4781.250000; 1.05055E-4
4787.109375; 1.22611E-4
4792.968750; 1.18997E-4
4798.828125; 1.03707E-4
4804.687500; 1.09187E-4
4810.546875; 1.21264E-4
4816.406250; 1.06216E-4
4822.265625; 1.03726E-4
4828.125000; 1.11114E-4
4833.984375; 1.11905E-4
4839.843750; 9.04974E-5
4845.703125; 9.94538E-5
4851.562500; 1.02219E-4
4857.421875; 1.09513E-4
4863.281250; 1.12184E-4
4869.140625; 1.00348E-4
4875.000000; 1.03718E-4
4880.859375; 9.98784E-5
4886.718750; 1.13237E-4
4892.578125; 1.11298E-4
4898.437500; 1.11821E-4
4904.296875; 1.23430E-4
4910.156250; 1.14108E-4
4916.015625; 1.05050E-4
4921.875000; 1.08660E-4
4927.734375; 1.02417E-4
4933.593750; 1.08658E-4
4939.453125; 1.12823E-4
4945.312500; 1.11219E-4
4951.171875; 1.11982E-4
4957.031250; 1.08130E-4
4962.890625; 1.13757E-4
4968.750000; 1.01143E-4
4974.609375; 1.02999E-4
4980.468750; 9.92175E-5
4986.328125; 1.13286E-4
4992.187500; 1.09076E-4
4998.046875; 1.50151E-4
5003.906250; 1.33119E-4
5009.765625; 1.06749E-4
5015.625000; 1.10741E-4
5021.484375; 9.76684E-5
5027.343750; 1.07223E-4
5033.203125; 1.08984E-4
5039.062500; 9.63896E-5
5044.921875; 1.02701E-4
5050.781250; 1.11757E-4
5056.640625; 1.18692E-4
5062.500000; 1.20980E-4
5068.359375; 1.32875E-4
5074.218750; 1.20251E-4
5080.078125; 1.11935E-4
5085.937500; 1.09801E-4
5091.796875; 1.12281E-4
5097.656250; 1.15959E-4
5103.515625; 1.09174E-4
5109.375000; 1.17961E-4
5115.234375; 1.17167E-4
5121.093750; 1.16472E-4
5126.953125; 1.06817E-4
5132.812500; 1.15420E-4
5138.671875; 1.12533E-4
5144.531250; 1.08718E-4
5150.390625; 1.06504E-4
5156.250000; 1.09003E-4
5162.109375; 1.19633E-4
5167.968750; 1.15284E-4
5173.828125; 1.08972E-4
5179.687500; 1.09106E-4
5185.546875; 1.10945E-4
5191.406250; 1.12133E-4
5197.265625; 1.01215E-4
5203.125000; 9.56272E-5
5208.984375; 9.84731E-5
5214.843750; 1.15580E-4
5220.703125; 1.15269E-4
5226.562500; 1.20060E-4
5232.421875; 1.08035E-4
5238.281250; 1.07158E-4
5244.140625; 1.08730E-4
5250.000000; 9.97939E-5
5255.859375; 1.02423E-4
5261.718750; 1.07050E-4
5267.578125; 1.14247E-4
5273.437500; 1.05882E-4
5279.296875; 1.10515E-4
5285.156250; 1.14430E-4
5291.015625; 1.14585E-4
5296.875000; 1.12883E-4
5302.734375; 9.68657E-5
5308.593750; 1.14272E-4
5314.453125; 1.12333E-4
5320.312500; 1.05877E-4
5326.171875; 9.91311E-5
5332.031250; 1.07110E-4
5337.890625; 1.09496E-4
5343.750000; 9.59201E-5
5349.609375; 1.04692E-4
5355.468750; 1.10208E-4
5361.328125; 1.05703E-4
5367.187500; 1.09630E-4
5373.046875; 1.12484E-4
5378.906250; 1.15711E-4
5384.765625; 1.16369E-4
5390.625000; 1.06782E-4
5396.484375; 1.11387E-4
5402.343750; 1.08087E-4
5408.203125; 1.05621E-4
5414.062500; 1.01722E-4
5419.921875; 1.26156E-4
5425.781250; 1.16381E-4
5431.640625; 1.02627E-4
5437.500000; 1.03554E-4
5443.359375; 1.03624E-4
5449.218750; 1.05722E-4
5455.078125; 1.19473E-4
5460.937500; 1.25830E-4
5466.796875; 1.25630E-4
5472.656250; 1.08657E-4
5478.515625; 1.13752E-4
5484.375000; 1.12832E-4
5490.234375; 1.15524E-4
5496.093750; 1.09703E-4
5501.953125; 1.14285E-4
5507.812500; 1.26214E-4
5513.671875; 1.11770E-4
5519.531250; 1.16684E-4
5525.390625; 1.10510E-4
5531.250000; 1.13674E-4
5537.109375; 1.09661E-4
5542.968750; 1.01096E-4
5548.828125; 9.53001E-5
5554.687500; 1.12033E-4
5560.546875; 1.09978E-4
5566.406250; 1.05023E-4
5572.265625; 9.27709E-5
5578.125000; 1.05808E-4
5583.984375; 1.15874E-4
5589.843750; 1.01988E-4
5595.703125; 1.05372E-4
5601.562500; 1.03644E-4
5607.421875; 1.12353E-4
5613.281250; 1.10410E-4
5619.140625; 1.03268E-4
5625.000000; 1.08446E-4
5630.859375; 1.16455E-4
5636.718750; 1.11519E-4
5642.578125; 1.09793E-4
5648.437500; 1.14421E-4
5654.296875; 1.13781E-4
5660.156250; 1.14958E-4
5666.015625; 1.07748E-4
5671.875000; 1.09619E-4
5677.734375; 1.07769E-4
5683.593750; 1.15539E-4
5689.453125; 1.14455E-4
5695.312500; 1.00076E-4
5701.171875; 9.26833E-5
5707.031250; 1.02193E-4
5712.890625; 1.10398E-4
5718.750000; 1.11774E-4
5724.609375; 1.20480E-4
5730.468750; 1.29306E-4
5736.328125; 1.25899E-4
5742.187500; 1.04962E-4
5748.046875; 1.04733E-4
5753.906250; 1.22159E-4
5759.765625; 1.20652E-4
5765.625000; 1.09147E-4
5771.484375; 9.99398E-5
5777.343750; 9.85681E-5
5783.203125; 1.00177E-4
5789.062500; 1.02762E-4
5794.921875; 1.01860E-4
5800.781250; 1.05703E-4
5806.640625; 1.06885E-4
5812.500000; 1.09468E-4
5818.359375; 9.90567E-5
5824.218750; 1.03103E-4
5830.078125; 1.12631E-4
5835.937500; 1.11102E-4
5841.796875; 1.18654E-4
5847.656250; 1.19369E-4
5853.515625; 1.11580E-4
5859.375000; 1.09610E-4
5865.234375; 1.02666E-4
5871.093750; 9.47240E-5
5876.953125; 9.73255E-5
5882.812500; 1.02908E-4
5888.671875; 1.14126E-4
5894.531250; 1.09995E-4
5900.390625; 1.13642E-4
5906.250000; 1.22010E-4
5912.109375; 1.23510E-4
5917.968750; 1.16980E-4
5923.828125; 1.08329E-4
5929.687500; 1.02548E-4
5935.546875; 1.09458E-4
5941.406250; 1.06989E-4
5947.265625; 1.03860E-4
5953.125000; 9.98219E-5
5958.984375; 1.12863E-4
5964.843750; 1.15569E-4
5970.703125; 1.11934E-4
5976.562500; 9.91314E-5
5982.421875; 8.85204E-5
5988.281250; 1.00652E-4
5994.140625; 1.01101E-4
6000.000000; 1.12032E-4
6005.859375; 1.02675E-4
6011.718750; 1.13857E-4
6017.578125; 1.06710E-4
6023.437500; 1.10628E-4
6029.296875; 1.09812E-4
6035.156250; 1.08566E-4
6041.015625; 9.46587E-5
6046.875000; 9.87547E-5
6052.734375; 1.09367E-4
6058.593750; 1.07180E-4
6064.453125; 1.14938E-4
6070.312500; 1.08132E-4
6076.171875; 1.07798E-4
6082.031250; 1.13322E-4
6087.890625; 1.16532E-4
6093.750000; 1.07228E-4
6099.609375; 1.17392E-4
6105.468750; 1.16490E-4
6111.328125; 1.10930E-4
6117.187500; 1.01530E-4
6123.046875; 9.90167E-5
6128.906250; 9.63642E-5
6134.765625; 1.08583E-4
6140.625000; 1.08953E-4
6146.484375; 1.09928E-4
6152.343750; 1.12008E-4
6158.203125; 1.03817E-4
6164.062500; 9.84831E-5
6169.921875; 1.11034E-4
6175.781250; 1.09903E-4
6181.640625; 1.03439E-4
6187.500000; 1.03232E-4
6193.359375; 1.12394E-4
6199.218750; 1.11895E-4
6205.078125; 1.03175E-4
6210.937500; 1.04694E-4
6216.796875; 1.11407E-4
6222.656250; 1.12940E-4
6228.515625; 9.85184E-5
6234.375000; 9.61332E-5
6240.234375; 1.01192E-4
6246.093750; 1.12647E-4
6251.953125; 1.15942E-4
6257.812500; 1.17515E-4
6263.671875; 1.22376E-4
6269.531250; 1.28199E-4
6275.390625; 1.19639E-4
6281.250000; 1.09091E-4
6287.109375; 1.09211E-4
6292.968750; 1.15248E-4
6298.828125; 1.15510E-4
6304.687500; 1.10096E-4
6310.546875; 1.12321E-4
6316.406250; 1.14865E-4
6322.265625; 1.11079E-4
6328.125000; 1.09956E-4
6333.984375; 1.09122E-4
6339.843750; 9.53065E-5
6345.703125; 9.83260E-5
6351.562500; 1.13948E-4
6357.421875; 9.48684E-5
6363.281250; 9.41611E-5
6369.140625; 1.10600E-4
6375.000000; 1.13232E-4
6380.859375; 1.09093E-4
6386.718750; 1.05278E-4
6392.578125; 9.79112E-5
6398.437500; 1.14240E-4
6404.296875; 1.10799E-4
6410.156250; 1.08496E-4
6416.015625; 9.54209E-5
6421.875000; 1.04905E-4
6427.734375; 1.04327E-4
6433.593750; 9.95869E-5
6439.453125; 1.03323E-4
6445.312500; 1.08325E-4
6451.171875; 1.03277E-4
6457.031250; 1.16626E-4
6462.890625; 1.13528E-4
6468.750000; 1.04288E-4
6474.609375; 1.19358E-4
6480.468750; 1.12968E-4
6486.328125; 9.29768E-5
6492.187500; 1.05752E-4
6498.046875; 1.09957E-4
6503.906250; 1.03854E-4
6509.765625; 1.17506E-4
6515.625000; 1.12711E-4
6521.484375; 1.04127E-4
6527.343750; 1.07083E-4
6533.203125; 1.02299E-4
6539.062500; 1.10795E-4
6544.921875; 1.18074E-4
6550.781250; 1.11264E-4
6556.640625; 1.10969E-4
6562.500000; 1.20703E-4
6568.359375; 1.04939E-4
6574.218750; 1.00512E-4
6580.078125; 1.15013E-4
6585.937500; 1.05645E-4
6591.796875; 1.03787E-4
6597.656250; 1.07302E-4
6603.515625; 1.07531E-4
6609.375000; 1.04610E-4
6615.234375; 9.87435E-5
6621.093750; 9.84554E-5
6626.953125; 1.02497E-4
6632.812500; 1.11990E-4
6638.671875; 1.15176E-4
6644.531250; 1.09526E-4
6650.390625; 9.77882E-5
6656.250000; 1.06299E-4
6662.109375; 1.08534E-4
6667.968750; 1.05978E-4
6673.828125; 1.11117E-4
6679.687500; 1.19590E-4
6685.546875; 1.12601E-4
6691.406250; 1.05542E-4
6697.265625; 1.07824E-4
6703.125000; 1.10918E-4
6708.984375; 1.13201E-4
6714.843750; 1.10081E-4
6720.703125; 1.16286E-4
6726.562500; 1.12043E-4
6732.421875; 1.09440E-4
6738.281250; 1.23474E-4
6744.140625; 1.22628E-4
6750.000000; 1.16028E-4
6755.859375; 1.19876E-4
6761.718750; 1.14322E-4
6767.578125; 1.13020E-4
6773.437500; 1.19025E-4
6779.296875; 1.01663E-4
6785.156250; 9.99645E-5
6791.015625; 1.02017E-4
6796.875000; 1.06089E-4
6802.734375; 1.17808E-4
6808.593750; 1.21074E-4
6814.453125; 1.15442E-4
6820.312500; 1.06547E-4
6826.171875; 1.18213E-4
6832.031250; 1.10456E-4
6837.890625; 9.58705E-5
6843.750000; 8.87461E-5
6849.609375; 1.00918E-4
6855.468750; 1.12510E-4
6861.328125; 1.12228E-4
6867.187500; 1.12816E-4
6873.046875; 1.01909E-4
6878.906250; 1.03322E-4
6884.765625; 1.11586E-4
6890.625000; 9.96218E-5
6896.484375; 9.08856E-5
6902.343750; 9.94342E-5
6908.203125; 1.02679E-4
6914.062500; 9.84724E-5
6919.921875; 1.11205E-4
6925.781250; 1.04078E-4
6931.640625; 1.00737E-4
6937.500000; 1.05646E-4
6943.359375; 1.13121E-4
6949.218750; 1.17158E-4
6955.078125; 1.12601E-4
6960.937500; 1.12314E-4
6966.796875; 1.08735E-4
6972.656250; 1.08441E-4
6978.515625; 1.09717E-4
6984.375000; 1.09249E-4
6990.234375; 1.13161E-4
6996.093750; 1.20356E-4
7001.953125; 1.32397E-4
7007.812500; 1.09183E-4
7013.671875; 1.05349E-4
7019.531250; 1.25029E-4
7025.390625; 1.21996E-4
7031.250000; 1.13618E-4
7037.109375; 1.09146E-4
7042.968750; 1.05011E-4
7048.828125; 1.05853E-4
7054.687500; 1.03649E-4
7060.546875; 1.09943E-4
7066.406250; 1.04466E-4
7072.265625; 1.07034E-4
7078.125000; 1.17066E-4
7083.984375; 1.05132E-4
7089.843750; 1.03022E-4
7095.703125; 1.12677E-4
7101.562500; 1.28649E-4
7107.421875; 1.12823E-4
7113.281250; 1.01310E-4
7119.140625; 1.09135E-4
7125.000000; 1.07019E-4
7130.859375; 9.30595E-5
7136.718750; 9.81142E-5
7142.578125; 9.60882E-5
7148.437500; 1.03216E-4
7154.296875; 9.55242E-5
7160.156250; 1.01094E-4
7166.015625; 1.02877E-4
7171.875000; 1.15354E-4
7177.734375; 1.18237E-4
7183.593750; 1.10997E-4
7189.453125; 1.17105E-4
7195.312500; 1.07633E-4
7201.171875; 1.04921E-4
7207.031250; 1.04695E-4
7212.890625; 1.06441E-4
7218.750000; 1.03343E-4
7224.609375; 9.90116E-5
7230.468750; 1.15705E-4
7236.328125; 1.08320E-4
7242.187500; 9.48044E-5
7248.046875; 1.03453E-4
7253.906250; 1.13096E-4
7259.765625; 1.10211E-4
7265.625000; 9.62064E-5
7271.484375; 9.68293E-5
7277.343750; 1.00314E-4
7283.203125; 1.06226E-4
7289.062500; 1.10057E-4
7294.921875; 1.02235E-4
7300.781250; 1.19471E-4
7306.640625; 1.01794E-4
7312.500000; 1.08106E-4
7318.359375; 1.23243E-4
7324.218750; 1.06147E-4
7330.078125; 1.10492E-4
7335.937500; 1.20041E-4
7341.796875; 9.79523E-5
7347.656250; 9.84392E-5
7353.515625; 1.08639E-4
7359.375000; 9.96210E-5
7365.234375; 9.07308E-5
7371.093750; 1.08220E-4
7376.953125; 1.20186E-4
7382.812500; 1.14470E-4
7388.671875; 1.17701E-4
7394.531250; 1.11990E-4
7400.390625; 1.16056E-4
7406.250000; 1.13810E-4
7412.109375; 1.14405E-4
7417.968750; 1.02737E-4
7423.828125; 1.08193E-4
7429.687500; 1.08139E-4
7435.546875; 1.09022E-4
7441.406250; 1.03243E-4
7447.265625; 1.01633E-4
7453.125000; 1.08403E-4
7458.984375; 1.10710E-4
7464.843750; 1.09042E-4
7470.703125; 1.01437E-4
7476.562500; 9.70072E-5
7482.421875; 1.13864E-4
7488.281250; 1.19938E-4
7494.140625; 1.04605E-4
7500.000000; 1.11089E-4
7505.859375; 1.11386E-4
7511.718750; 1.17453E-4
7517.578125; 1.17330E-4
7523.437500; 1.09079E-4
7529.296875; 1.11186E-4
7535.156250; 1.09838E-4
7541.015625; 9.77543E-5
7546.875000; 1.03909E-4
7552.734375; 1.10342E-4
7558.593750; 1.14256E-4
7564.453125; 1.29759E-4
7570.312500; 1.16766E-4
7576.171875; 1.02733E-4
7582.031250; 9.24366E-5
7587.890625; 8.34458E-5
7593.750000; 1.01410E-4
7599.609375; 1.12763E-4
7605.468750; 1.18373E-4
7611.328125; 1.14230E-4
7617.187500; 1.00623E-4
7623.046875; 1.08994E-4
7628.906250; 1.05933E-4
7634.765625; 1.17187E-4
7640.625000; 1.13525E-4
7646.484375; 1.16476E-4
7652.343750; 1.10005E-4
7658.203125; 1.07858E-4
7664.062500; 1.04643E-4
7669.921875; 1.07721E-4
7675.781250; 1.16355E-4
7681.640625; 1.04060E-4
7687.500000; 1.07182E-4
7693.359375; 1.06593E-4
7699.218750; 1.12140E-4
7705.078125; 1.07023E-4
7710.937500; 9.73442E-5
7716.796875; 9.77264E-5
7722.656250; 1.04148E-4
7728.515625; 1.07107E-4
7734.375000; 9.97069E-5
7740.234375; 1.00522E-4
7746.093750; 1.02522E-4
7751.953125; 1.02464E-4
7757.812500; 1.04913E-4
7763.671875; 1.04114E-4
7769.531250; 9.53954E-5
7775.390625; 9.97524E-5
7781.250000; 1.06836E-4
7787.109375; 1.10797E-4
7792.968750; 1.11662E-4
7798.828125; 9.74234E-5
7804.687500; 1.01429E-4
7810.546875; 1.09111E-4
7816.406250; 1.05670E-4
7822.265625; 1.11630E-4
7828.125000; 1.11357E-4
7833.984375; 1.12314E-4
7839.843750; 1.04921E-4
7845.703125; 1.15740E-4
7851.562500; 1.23547E-4
7857.421875; 1.05529E-4
7863.281250; 1.07926E-4
7869.140625; 1.20267E-4
7875.000000; 1.23816E-4
7880.859375; 1.10091E-4
7886.718750; 1.05788E-4
7892.578125; 9.87082E-5
7898.437500; 1.00982E-4
7904.296875; 9.97309E-5
7910.156250; 1.03591E-4
7916.015625; 1.00746E-4
7921.875000; 9.14909E-5
7927.734375; 9.36441E-5
7933.593750; 1.00703E-4
7939.453125; 1.09128E-4
7945.312500; 1.17961E-4
7951.171875; 1.12714E-4
7957.031250; 1.04027E-4
7962.890625; 1.02816E-4
7968.750000; 1.02544E-4
7974.609375; 1.01747E-4
7980.468750; 9.38360E-5
7986.328125; 1.00273E-4
7992.187500; 1.07158E-4
7998.046875; 1.19268E-4
8003.906250; 1.12672E-4
8009.765625; 1.20837E-4
8015.625000; 1.02319E-4
8021.484375; 9.85521E-5
8027.343750; 1.08884E-4
8033.203125; 1.11146E-4
8039.062500; 1.07720E-4
8044.921875; 1.10115E-4
8050.781250; 1.01691E-4
8056.640625; 1.07725E-4
8062.500000; 1.26307E-4
8068.359375; 1.00319E-4
8074.218750; 1.02662E-4
8080.078125; 9.98128E-5
8085.937500; 1.01037E-4
8091.796875; 1.06583E-4
8097.656250; 1.06481E-4
8103.515625; 1.10084E-4
8109.375000; 1.03460E-4
8115.234375; 1.10431E-4
8121.093750; 9.89421E-5
8126.953125; 9.49248E-5
8132.812500; 1.06282E-4
8138.671875; 1.03878E-4
8144.531250; 1.08977E-4
8150.390625; 1.13158E-4
8156.250000; 1.06476E-4
8162.109375; 1.11256E-4
8167.968750; 1.09200E-4
8173.828125; 9.48377E-5
8179.687500; 9.83973E-5
8185.546875; 1.00013E-4
8191.406250; 1.08055E-4
8197.265625; 1.01619E-4
8203.125000; 1.10648E-4
8208.984375; 1.07994E-4
8214.843750; 1.06043E-4
8220.703125; 9.56579E-5
8226.562500; 1.04283E-4
8232.421875; 1.09224E-4
8238.281250; 1.15188E-4
8244.140625; 1.16988E-4
8250.000000; 1.05094E-4
8255.859375; 1.09703E-4
8261.718750; 1.07457E-4
8267.578125; 1.09469E-4
8273.437500; 1.27592E-4
8279.296875; 1.14581E-4
8285.156250; 1.08628E-4
8291.015625; 1.04942E-4
8296.875000; 1.08231E-4
8302.734375; 1.07926E-4
8308.593750; 1.09960E-4
8314.453125; 1.03398E-4
8320.312500; 1.08257E-4
8326.171875; 1.05285E-4
8332.031250; 1.11611E-4
8337.890625; 1.03174E-4
8343.750000; 1.03471E-4
8349.609375; 1.04345E-4
8355.468750; 9.98336E-5
8361.328125; 1.04116E-4
8367.187500; 1.22423E-4
8373.046875; 1.26862E-4
8378.906250; 1.06292E-4
8384.765625; 1.09747E-4
8390.625000; 1.21757E-4
8396.484375; 1.11085E-4
8402.343750; 1.10958E-4
8408.203125; 1.13393E-4
8414.062500; 1.12065E-4
8419.921875; 9.97147E-5
8425.781250; 9.94417E-5
8431.640625; 1.03631E-4
8437.500000; 1.05744E-4
8443.359375; 1.09445E-4
8449.218750; 1.20771E-4
8455.078125; 9.87996E-5
8460.937500; 9.49631E-5
8466.796875; 1.12667E-4
8472.656250; 1.14627E-4
8478.515625; 1.12211E-4
8484.375000; 1.14272E-4
8490.234375; 1.19035E-4
8496.093750; 1.20300E-4
8501.953125; 1.09305E-4
8507.812500; 9.89528E-5
8513.671875; 1.02195E-4
8519.531250; 1.12861E-4
8525.390625; 1.06763E-4
8531.250000; 1.07975E-4
8537.109375; 1.09202E-4
8542.968750; 1.14365E-4
8548.828125; 1.03187E-4
8554.687500; 1.04164E-4
8560.546875; 1.08789E-4
8566.406250; 9.80041E-5
8572.265625; 9.63655E-5
8578.125000; 9.81682E-5
8583.984375; 1.02661E-4
8589.843750; 1.06756E-4
8595.703125; 1.01807E-4
8601.562500; 1.08072E-4
8607.421875; 1.00400E-4
8613.281250; 1.02560E-4
8619.140625; 1.08131E-4
8625.000000; 1.14497E-4
8630.859375; 1.12972E-4
8636.718750; 1.11960E-4
8642.578125; 9.27152E-5
8648.437500; 1.00800E-4
8654.296875; 1.07807E-4
8660.156250; 1.09421E-4
8666.015625; 1.22034E-4
8671.875000; 1.11572E-4
8677.734375; 1.10484E-4
8683.593750; 1.08265E-4
8689.453125; 1.09811E-4
8695.312500; 9.86710E-5
8701.171875; 1.00093E-4
8707.031250; 1.01157E-4
8712.890625; 9.98541E-5
8718.750000; 1.06525E-4
8724.609375; 1.08046E-4
8730.468750; 1.08958E-4
8736.328125; 1.15149E-4
8742.187500; 1.05327E-4
8748.046875; 1.03395E-4
8753.906250; 9.82665E-5
8759.765625; 1.12107E-4
8765.625000; 1.05831E-4
8771.484375; 1.15726E-4
8777.343750; 1.11276E-4
8783.203125; 9.28400E-5
8789.062500; 9.98241E-5
8794.921875; 9.45580E-5
8800.781250; 1.06549E-4
8806.640625; 1.08090E-4
8812.500000; 1.02558E-4
8818.359375; 1.06138E-4
8824.218750; 1.18903E-4
8830.078125; 1.12095E-4
8835.937500; 1.00342E-4
8841.796875; 1.00339E-4
8847.656250; 9.53392E-5
8853.515625; 9.57039E-5
8859.375000; 1.08803E-4
8865.234375; 1.20005E-4
8871.093750; 1.20409E-4
8876.953125; 1.12430E-4
8882.812500; 1.13342E-4
8888.671875; 1.17594E-4
8894.531250; 1.12427E-4
8900.390625; 1.03763E-4
8906.250000; 1.02139E-4
8912.109375; 1.11216E-4
8917.968750; 9.77178E-5
8923.828125; 1.01554E-4
8929.687500; 9.93478E-5
8935.546875; 9.77439E-5
8941.406250; 9.85028E-5
8947.265625; 1.14149E-4
8953.125000; 1.24161E-4
8958.984375; 1.14176E-4
8964.843750; 1.09153E-4
8970.703125; 1.17914E-4
8976.562500; 1.09646E-4
8982.421875; 1.10321E-4
8988.281250; 1.01885E-4
8994.140625; 1.03570E-4
9000.000000; 9.70497E-5
9005.859375; 9.20497E-5
9011.718750; 1.11616E-4
9017.578125; 1.10203E-4
9023.437500; 9.23437E-5
9029.296875; 1.02855E-4
9035.156250; 1.08262E-4
9041.015625; 1.04223E-4
9046.875000; 9.95235E-5
9052.734375; 1.16543E-4
9058.593750; 1.13705E-4
9064.453125; 1.01072E-4
9070.312500; 1.02070E-4
9076.171875; 9.27067E-5
9082.031250; 9.27393E-5
9087.890625; 9.19821E-5
9093.750000; 9.16688E-5
9099.609375; 1.10692E-4
9105.468750; 1.15995E-4
9111.328125; 1.11015E-4
9117.187500; 1.10550E-4
9123.046875; 1.09975E-4
9128.906250; 1.09004E-4
9134.765625; 9.97226E-5
9140.625000; 9.93251E-5
9146.484375; 1.03713E-4
9152.343750; 1.07665E-4
9158.203125; 1.00120E-4
9164.062500; 1.04324E-4
9169.921875; 1.07428E-4
9175.781250; 1.13259E-4
9181.640625; 1.11684E-4
9187.500000; 1.10128E-4
9193.359375; 1.10058E-4
9199.218750; 1.05383E-4
9205.078125; 1.00530E-4
9210.937500; 1.08014E-4
9216.796875; 1.05433E-4
9222.656250; 1.00116E-4
9228.515625; 1.01819E-4
9234.375000; 1.03825E-4
9240.234375; 9.26776E-5
9246.093750; 9.39038E-5
9251.953125; 1.07999E-4
9257.812500; 1.01459E-4
9263.671875; 9.84585E-5
9269.531250; 9.65314E-5
9275.390625; 1.14125E-4
9281.250000; 1.13981E-4
9287.109375; 1.07599E-4
9292.968750; 1.26295E-4
9298.828125; 1.14984E-4
9304.687500; 1.23855E-4
9310.546875; 1.25669E-4
9316.406250; 1.07665E-4
9322.265625; 1.09867E-4
9328.125000; 1.08999E-4
9333.984375; 1.06684E-4
9339.843750; 9.67652E-5
9345.703125; 1.04781E-4
9351.562500; 1.00560E-4
9357.421875; 1.05796E-4
9363.281250; 1.08206E-4
9369.140625; 1.06501E-4
9375.000000; 1.06686E-4
9380.859375; 1.27674E-4
9386.718750; 1.28976E-4
9392.578125; 1.19944E-4
9398.437500; 1.20482E-4
9404.296875; 1.23307E-4
9410.156250; 1.00222E-4
9416.015625; 9.71019E-5
9421.875000; 1.01785E-4
9427.734375; 1.15014E-4
9433.593750; 1.11526E-4
9439.453125; 1.10545E-4
9445.312500; 1.09602E-4
9451.171875; 1.13832E-4
9457.031250; 1.06740E-4
9462.890625; 1.14448E-4
9468.750000; 1.11832E-4
9474.609375; 1.05655E-4
9480.468750; 1.00158E-4
9486.328125; 1.05247E-4
9492.187500; 1.11096E-4
9498.046875; 1.08531E-4
9503.906250; 1.00727E-4
9509.765625; 1.09757E-4
9515.625000; 1.09829E-4
9521.484375; 1.10920E-4
9527.343750; 1.01076E-4
9533.203125; 1.07812E-4
9539.062500; 1.09707E-4
9544.921875; 1.11177E-4
9550.781250; 1.01507E-4
9556.640625; 9.83182E-5
9562.500000; 1.03027E-4
9568.359375; 1.07154E-4
9574.218750; 9.92921E-5
9580.078125; 9.55114E-5
9585.937500; 8.73471E-5
9591.796875; 1.01600E-4
9597.656250; 1.13704E-4
9603.515625; 1.19160E-4
9609.375000; 1.01208E-4
9615.234375; 1.13336E-4
9621.093750; 1.04180E-4
9626.953125; 1.02211E-4
9632.812500; 1.03851E-4
9638.671875; 9.89136E-5
9644.531250; 1.04232E-4
9650.390625; 1.15212E-4
9656.250000; 1.05740E-4
9662.109375; 1.08376E-4
9667.968750; 1.03855E-4
9673.828125; 1.04205E-4
9679.687500; 1.11898E-4
9685.546875; 1.09631E-4
9691.406250; 9.31383E-5
9697.265625; 9.86605E-5
9703.125000; 1.02202E-4
9708.984375; 1.10798E-4
9714.843750; 1.25862E-4
9720.703125; 1.21281E-4
9726.562500; 1.06559E-4
9732.421875; 9.64159E-5
9738.281250; 9.01983E-5
9744.140625; 1.02668E-4
9750.000000; 1.10816E-4
9755.859375; 1.16207E-4
9761.718750; 1.13773E-4
9767.578125; 1.06460E-4
9773.437500; 1.15368E-4
9779.296875; 1.23739E-4
9785.156250; 1.21121E-4
9791.015625; 1.00051E-4
9796.875000; 9.61493E-5
9802.734375; 9.71221E-5
9808.593750; 1.11005E-4
9814.453125; 1.10279E-4
9820.312500; 1.04271E-4
9826.171875; 1.16454E-4
9832.031250; 1.04472E-4
9837.890625; 1.20316E-4
9843.750000; 1.24817E-4
9849.609375; 1.19594E-4
9855.468750; 1.15845E-4
9861.328125; 1.18250E-4
9867.187500; 1.20450E-4
9873.046875; 1.11165E-4
9878.906250; 9.66877E-5
9884.765625; 8.88934E-5
9890.625000; 9.83793E-5
9896.484375; 8.96650E-5
9902.343750; 9.46941E-5
9908.203125; 1.05200E-4
9914.062500; 1.04727E-4
9919.921875; 1.02906E-4
9925.781250; 1.04497E-4
9931.640625; 1.13276E-4
9937.500000; 1.09576E-4
9943.359375; 1.15695E-4
9949.218750; 1.02087E-4
9955.078125; 1.01037E-4
9960.937500; 1.05977E-4
9966.796875; 1.06214E-4
9972.656250; 9.93203E-5
9978.515625; 1.07428E-4
9984.375000; 1.06500E-4
9990.234375; 1.12586E-4
9996.093750; 1.13718E-4
10001.953125; 9.36089E-5
10007.812500; 9.11538E-5
10013.671875; 1.02828E-4
10019.531250; 1.00380E-4
10025.390625; 1.14580E-4
10031.250000; 1.14717E-4
10037.109375; 1.04455E-4
10042.968750; 1.00711E-4
10048.828125; 9.26108E-5
10054.687500; 9.80887E-5
10060.546875; 9.21727E-5
10066.406250; 9.80216E-5
10072.265625; 9.95596E-5
10078.125000; 9.56063E-5
10083.984375; 1.06819E-4
10089.843750; 1.07859E-4
10095.703125; 9.84136E-5
10101.562500; 1.13498E-4
10107.421875; 1.26556E-4
10113.281250; 1.10330E-4
10119.140625; 1.04837E-4
10125.000000; 1.07295E-4
10130.859375; 1.09109E-4
10136.718750; 1.09986E-4
10142.578125; 1.10913E-4
10148.437500; 1.17961E-4
10154.296875; 1.19996E-4
10160.156250; 1.10253E-4
10166.015625; 1.00155E-4
10171.875000; 9.94651E-5
10177.734375; 1.11025E-4
10183.593750; 9.84285E-5
10189.453125; 1.09238E-4
10195.312500; 1.18629E-4
10201.171875; 1.06634E-4
10207.031250; 1.01647E-4
10212.890625; 1.08440E-4
10218.750000; 1.19964E-4
10224.609375; 1.17468E-4
10230.468750; 1.10256E-4
10236.328125; 1.17766E-4
10242.187500; 1.15244E-4
10248.046875; 1.02490E-4
10253.906250; 1.02589E-4
10259.765625; 1.10297E-4
10265.625000; 1.22617E-4
10271.484375; 1.18409E-4
10277.343750; 9.92344E-5
10283.203125; 9.90597E-5
10289.062500; 9.72548E-5
10294.921875; 1.07240E-4
10300.781250; 9.42796E-5
10306.640625; 1.05162E-4
10312.500000; 1.16019E-4
10318.359375; 1.07094E-4
10324.218750; 1.04572E-4
10330.078125; 9.71158E-5
10335.937500; 1.07422E-4
10341.796875; 1.11883E-4
10347.656250; 9.80044E-5
10353.515625; 9.87961E-5
10359.375000; 1.10256E-4
10365.234375; 1.02496E-4
10371.093750; 1.02334E-4
10376.953125; 9.27510E-5
10382.812500; 9.67027E-5
10388.671875; 1.03236E-4
10394.531250; 1.08256E-4
10400.390625; 9.73116E-5
10406.250000; 9.98991E-5
10412.109375; 1.02242E-4
10417.968750; 1.02926E-4
10423.828125; 1.04490E-4
10429.687500; 1.16171E-4
10435.546875; 1.04365E-4
10441.406250; 1.03801E-4
10447.265625; 1.11675E-4
10453.125000; 1.14750E-4
10458.984375; 1.15349E-4
10464.843750; 9.91183E-5
10470.703125; 1.02421E-4
10476.562500; 1.14880E-4
10482.421875; 1.22896E-4
10488.281250; 1.15272E-4
10494.140625; 1.07890E-4
10500.000000; 1.11808E-4
10505.859375; 1.12438E-4
10511.718750; 1.06122E-4
10517.578125; 9.59053E-5
10523.437500; 1.10611E-4
10529.296875; 1.15731E-4
10535.156250; 1.22013E-4
10541.015625; 1.27267E-4
10546.875000; 1.13375E-4
10552.734375; 1.06433E-4
10558.593750; 1.13653E-4
10564.453125; 9.95405E-5
10570.312500; 9.76444E-5
10576.171875; 9.57672E-5
10582.031250; 1.06002E-4
10587.890625; 1.12968E-4
10593.750000; 1.01642E-4
10599.609375; 9.99557E-5
10605.468750; 1.08380E-4
10611.328125; 1.04598E-4
10617.187500; 1.02951E-4
10623.046875; 1.10238E-4
10628.906250; 9.77782E-5
10634.765625; 9.75869E-5
10640.625000; 1.01884E-4
10646.484375; 1.00245E-4
10652.343750; 9.35914E-5
10658.203125; 9.16878E-5
10664.062500; 9.31680E-5
10669.921875; 9.65396E-5
10675.781250; 9.84293E-5
10681.640625; 1.08799E-4
10687.500000; 1.10573E-4
10693.359375; 1.12507E-4
10699.218750; 1.16694E-4
10705.078125; 1.23615E-4
10710.937500; 1.20537E-4
10716.796875; 9.92518E-5
10722.656250; 1.02569E-4
10728.515625; 1.06693E-4
10734.375000; 1.17354E-4
10740.234375; 1.17394E-4
10746.093750; 1.10623E-4
10751.953125; 9.32582E-5
10757.812500; 9.43093E-5
10763.671875; 1.03611E-4
10769.531250; 1.03178E-4
10775.390625; 1.00196E-4
10781.250000; 8.79590E-5
10787.109375; 8.60944E-5
10792.968750; 1.08419E-4
10798.828125; 1.09115E-4
10804.687500; 1.00631E-4
10810.546875; 1.07000E-4
10816.406250; 1.04343E-4
10822.265625; 1.01618E-4
10828.125000; 1.05763E-4
10833.984375; 1.06280E-4
10839.843750; 1.04267E-4
10845.703125; 1.13171E-4
10851.562500; 1.12499E-4
10857.421875; 1.09239E-4
10863.281250; 1.08090E-4
10869.140625; 1.03428E-4
10875.000000; 1.10653E-4
10880.859375; 1.07236E-4
10886.718750; 9.71922E-5
10892.578125; 1.09397E-4
10898.437500; 1.17695E-4
10904.296875; 1.16206E-4
10910.156250; 1.23603E-4
10916.015625; 1.06968E-4
10921.875000; 9.67458E-5
10927.734375; 1.13905E-4
10933.593750; 1.11294E-4
10939.453125; 9.80901E-5
10945.312500; 9.73408E-5
10951.171875; 9.73118E-5
10957.031250; 9.47818E-5
10962.890625; 9.30356E-5
10968.750000; 1.12768E-4
10974.609375; 1.11628E-4
10980.468750; 1.16625E-4
10986.328125; 1.23568E-4
10992.187500; 1.12174E-4
10998.046875; 1.11765E-4
11003.906250; 1.12433E-4
11009.765625; 1.13612E-4
11015.625000; 1.03019E-4
11021.484375; 1.07378E-4
11027.343750; 1.13974E-4
11033.203125; 1.05201E-4
11039.062500; 1.08688E-4
11044.921875; 1.23099E-4
11050.781250; 1.19487E-4
11056.640625; 1.01221E-4
11062.500000; 1.10163E-4
11068.359375; 1.21480E-4
11074.218750; 1.21647E-4
11080.078125; 1.01410E-4
11085.937500; 1.06842E-4
11091.796875; 1.13174E-4
11097.656250; 1.08310E-4
11103.515625; 1.16231E-4
11109.375000; 1.00168E-4
11115.234375; 9.79636E-5
11121.093750; 1.07434E-4
11126.953125; 1.10510E-4
11132.812500; 9.80488E-5
11138.671875; 9.58546E-5
11144.531250; 1.09312E-4
11150.390625; 1.09530E-4
11156.250000; 1.10525E-4
11162.109375; 1.13493E-4
11167.968750; 1.09382E-4
11173.828125; 1.15737E-4
11179.687500; 1.12150E-4
11185.546875; 1.11142E-4
11191.406250; 1.11237E-4
11197.265625; 1.00949E-4
11203.125000; 1.08414E-4
11208.984375; 1.12924E-4
11214.843750; 1.14799E-4
11220.703125; 1.24264E-4
11226.562500; 1.17930E-4
11232.421875; 1.15628E-4
11238.281250; 1.16409E-4
11244.140625; 1.06829E-4
11250.000000; 1.01086E-4
11255.859375; 1.06701E-4
11261.718750; 1.13295E-4
11267.578125; 1.06825E-4
11273.437500; 9.98855E-5
11279.296875; 1.03837E-4
11285.156250; 9.13240E-5
11291.015625; 9.31932E-5
11296.875000; 1.06888E-4
11302.734375; 1.03707E-4
11308.593750; 8.67378E-5
11314.453125; 1.09402E-4
11320.312500; 1.09474E-4
11326.171875; 9.19455E-5
11332.031250; 1.04475E-4
11337.890625; 1.07268E-4
11343.750000; 9.79470E-5
11349.609375; 9.49319E-5
11355.468750; 9.03368E-5
11361.328125; 1.04275E-4
11367.187500; 1.07847E-4
11373.046875; 9.82754E-5
11378.906250; 1.05278E-4
11384.765625; 9.83843E-5
11390.625000; 8.88927E-5
11396.484375; 9.22869E-5
11402.343750; 1.02651E-4
11408.203125; 1.13119E-4
11414.062500; 1.24663E-4
11419.921875; 1.04473E-4
11425.781250; 9.94010E-5
11431.640625; 1.13009E-4
11437.500000; 1.02740E-4
11443.359375; 9.57008E-5
11449.218750; 1.03991E-4
11455.078125; 1.04229E-4
11460.937500; 9.06021E-5
11466.796875; 1.10894E-4
11472.656250; 1.18447E-4
11478.515625; 1.14434E-4
11484.375000; 1.14472E-4
11490.234375; 1.10419E-4
11496.093750; 1.10801E-4
11501.953125; 1.13405E-4
11507.812500; 1.08015E-4
11513.671875; 1.07340E-4
11519.531250; 1.15516E-4
11525.390625; 1.08025E-4
11531.250000; 1.06099E-4
11537.109375; 1.04014E-4
11542.968750; 1.12873E-4
11548.828125; 1.03748E-4
11554.687500; 9.82053E-5
11560.546875; 1.08040E-4
11566.406250; 1.07319E-4
11572.265625; 1.03938E-4
11578.125000; 1.03604E-4
11583.984375; 9.99524E-5
11589.843750; 1.10213E-4
11595.703125; 1.25302E-4
11601.562500; 1.10466E-4
11607.421875; 9.48013E-5
11613.281250; 9.28874E-5
11619.140625; 9.97360E-5
11625.000000; 1.00919E-4
11630.859375; 1.04146E-4
11636.718750; 9.82170E-5
11642.578125; 1.12620E-4
11648.437500; 1.11677E-4
11654.296875; 9.63430E-5
11660.156250; 1.10761E-4
11666.015625; 1.09887E-4
11671.875000; 9.69832E-5
11677.734375; 1.01210E-4
11683.593750; 1.02783E-4
11689.453125; 9.87149E-5
11695.312500; 9.71258E-5
11701.171875; 1.00467E-4
11707.031250; 9.92600E-5
11712.890625; 1.00739E-4
11718.750000; 1.10864E-4
11724.609375; 1.00087E-4
11730.468750; 8.92776E-5
11736.328125; 9.41927E-5
11742.187500; 1.19541E-4
11748.046875; 1.21296E-4
11753.906250; 1.02640E-4
11759.765625; 9.26463E-5
11765.625000; 1.08536E-4
11771.484375; 1.11916E-4
11777.343750; 1.05854E-4
11783.203125; 1.17370E-4
11789.062500; 1.25463E-4
11794.921875; 1.15878E-4
11800.781250; 1.16091E-4
11806.640625; 1.12999E-4
11812.500000; 1.01060E-4
11818.359375; 9.74512E-5
11824.218750; 1.18382E-4
11830.078125; 1.12328E-4
11835.937500; 1.15460E-4
11841.796875; 1.11711E-4
11847.656250; 1.08695E-4
11853.515625; 1.11332E-4
11859.375000; 1.05060E-4
11865.234375; 1.05375E-4
11871.093750; 1.11847E-4
11876.953125; 1.13451E-4
11882.812500; 1.12613E-4
11888.671875; 9.99881E-5
11894.531250; 1.04850E-4
11900.390625; 1.00215E-4
11906.250000; 1.00642E-4
11912.109375; 1.00176E-4
11917.968750; 1.09673E-4
11923.828125; 1.13336E-4
11929.687500; 9.79442E-5
11935.546875; 9.40645E-5
11941.406250; 1.13988E-4
11947.265625; 1.08143E-4
11953.125000; 9.69848E-5
11958.984375; 1.04864E-4
11964.843750; 1.13184E-4
11970.703125; 1.21348E-4
11976.562500; 1.27734E-4
11982.421875; 1.17724E-4
11988.281250; 1.10006E-4
11994.140625; 1.13531E-4
12000.000000; 1.23776E-4
12005.859375; 1.26158E-4
12011.718750; 1.16919E-4
12017.578125; 1.10994E-4
12023.437500; 1.07149E-4
12029.296875; 9.46862E-5
12035.156250; 1.08580E-4
12041.015625; 1.05665E-4
12046.875000; 9.73772E-5
12052.734375; 9.80284E-5
12058.593750; 1.02438E-4
12064.453125; 1.12443E-4
12070.312500; 1.06285E-4
12076.171875; 9.26748E-5
12082.031250; 8.99955E-5
12087.890625; 1.04368E-4
12093.750000; 1.09504E-4
12099.609375; 1.02176E-4
12105.468750; 1.14130E-4
12111.328125; 1.22618E-4
12117.187500; 1.05123E-4
12123.046875; 1.02563E-4
12128.906250; 1.13234E-4
12134.765625; 1.12338E-4
12140.625000; 9.80492E-5
12146.484375; 9.18285E-5
12152.343750; 9.69774E-5
12158.203125; 1.01071E-4
12164.062500; 1.08859E-4
12169.921875; 1.08836E-4
12175.781250; 1.13552E-4
12181.640625; 1.11259E-4
12187.500000; 1.04814E-4
12193.359375; 1.02527E-4
12199.218750; 1.10868E-4
12205.078125; 9.98524E-5
12210.937500; 9.87073E-5
12216.796875; 9.62767E-5
12222.656250; 1.14597E-4
12228.515625; 1.23482E-4
12234.375000; 1.08188E-4
12240.234375; 1.05967E-4
12246.093750; 1.11504E-4
12251.953125; 1.03805E-4
12257.812500; 1.04061E-4
12263.671875; 1.15993E-4
12269.531250; 1.11071E-4
12275.390625; 9.80813E-5
12281.250000; 9.63297E-5
12287.109375; 9.75624E-5
12292.968750; 8.84866E-5
12298.828125; 1.12356E-4
12304.687500; 1.13810E-4
12310.546875; 9.85520E-5
12316.406250; 9.84191E-5
12322.265625; 1.12884E-4
12328.125000; 1.21884E-4
12333.984375; 1.22714E-4
12339.843750; 1.11692E-4
12345.703125; 9.36769E-5
12351.562500; 1.06540E-4
12357.421875; 1.13564E-4
12363.281250; 1.00662E-4
12369.140625; 1.02580E-4
12375.000000; 1.01047E-4
12380.859375; 9.69955E-5
12386.718750; 1.04117E-4
12392.578125; 9.43582E-5
12398.437500; 1.10379E-4
12404.296875; 1.01494E-4
12410.156250; 1.06675E-4
12416.015625; 1.21014E-4
12421.875000; 1.12608E-4
12427.734375; 1.03745E-4
12433.593750; 1.01350E-4
12439.453125; 1.05314E-4
12445.312500; 1.15322E-4
12451.171875; 1.23232E-4
12457.031250; 1.30425E-4
12462.890625; 1.16607E-4
12468.750000; 1.06352E-4
12474.609375; 1.16086E-4
12480.468750; 1.14855E-4
12486.328125; 1.17760E-4
12492.187500; 1.09733E-4
12498.046875; 9.97260E-5
12503.906250; 9.56056E-5
12509.765625; 9.99576E-5
12515.625000; 1.19128E-4
12521.484375; 1.07856E-4
12527.343750; 9.89012E-5
12533.203125; 9.11254E-5
12539.062500; 1.01915E-4
12544.921875; 1.07384E-4
12550.781250; 1.13825E-4
12556.640625; 1.19786E-4
12562.500000; 1.11376E-4
12568.359375; 1.04802E-4
12574.218750; 1.01833E-4
12580.078125; 1.00055E-4
12585.937500; 1.02295E-4
12591.796875; 1.00011E-4
12597.656250; 9.85650E-5
12603.515625; 9.47852E-5
12609.375000; 1.03761E-4
12615.234375; 1.08826E-4
12621.093750; 9.64244E-5
12626.953125; 1.03742E-4
12632.812500; 1.09944E-4
12638.671875; 1.12918E-4
12644.531250; 1.12437E-4
12650.390625; 1.13981E-4
12656.250000; 1.14841E-4
12662.109375; 1.05333E-4
12667.968750; 1.00631E-4
12673.828125; 1.03787E-4
12679.687500; 1.06128E-4
12685.546875; 1.12584E-4
12691.406250; 1.05052E-4
12697.265625; 1.05863E-4
12703.125000; 1.14568E-4
12708.984375; 1.15288E-4
12714.843750; 1.03903E-4
12720.703125; 1.06692E-4
12726.562500; 1.05366E-4
12732.421875; 1.09654E-4
12738.281250; 1.09746E-4
12744.140625; 1.04967E-4
12750.000000; 1.16380E-4
12755.859375; 1.00053E-4
12761.718750; 9.88816E-5
12767.578125; 1.02056E-4
12773.437500; 1.07829E-4
12779.296875; 1.04785E-4
12785.156250; 1.07293E-4
12791.015625; 1.06775E-4
12796.875000; 1.15492E-4
12802.734375; 1.02647E-4
12808.593750; 9.57395E-5
12814.453125; 1.00223E-4
12820.312500; 1.09514E-4
12826.171875; 1.16389E-4
12832.031250; 1.10256E-4
12837.890625; 1.21059E-4
12843.750000; 1.03940E-4
12849.609375; 1.09288E-4
12855.468750; 1.07666E-4
12861.328125; 1.03635E-4
12867.187500; 1.16411E-4
12873.046875; 1.12447E-4
12878.906250; 8.92689E-5
12884.765625; 9.55325E-5
12890.625000; 1.02880E-4
12896.484375; 9.55524E-5
12902.343750; 8.76072E-5
12908.203125; 9.42757E-5
12914.062500; 1.07104E-4
12919.921875; 1.11121E-4
12925.781250; 9.78146E-5
12931.640625; 9.07739E-5
12937.500000; 9.46264E-5
12943.359375; 1.00710E-4
12949.218750; 1.12261E-4
12955.078125; 1.10146E-4
12960.937500; 1.07138E-4
12966.796875; 1.13777E-4
12972.656250; 1.13779E-4
12978.515625; 1.14384E-4
12984.375000; 1.04116E-4
12990.234375; 1.01794E-4
12996.093750; 1.03837E-4
13001.953125; 1.15566E-4
13007.812500; 1.06365E-4
13013.671875; 1.07696E-4
13019.531250; 1.12406E-4
13025.390625; 1.13638E-4
13031.250000; 1.29478E-4
13037.109375; 1.15859E-4
13042.968750; 1.14319E-4
13048.828125; 1.12078E-4
13054.687500; 1.05749E-4
13060.546875; 1.05898E-4
13066.406250; 1.02572E-4
13072.265625; 9.90156E-5
13078.125000; 1.10025E-4
13083.984375; 1.02077E-4
13089.843750; 1.09096E-4
13095.703125; 1.00903E-4
13101.562500; 9.35747E-5
13107.421875; 1.03181E-4
13113.281250; 9.64107E-5
13119.140625; 1.00280E-4
13125.000000; 8.64110E-5
13130.859375; 9.70073E-5
13136.718750; 1.17655E-4
13142.578125; 1.04696E-4
13148.437500; 1.08221E-4
13154.296875; 9.93100E-5
13160.156250; 1.07024E-4
13166.015625; 1.10565E-4
13171.875000; 1.12590E-4
13177.734375; 1.06680E-4
13183.593750; 9.67126E-5
13189.453125; 1.09663E-4
13195.312500; 9.82669E-5
13201.171875; 1.09488E-4
13207.031250; 1.23103E-4
13212.890625; 1.12703E-4
13218.750000; 1.18794E-4
13224.609375; 1.25687E-4
13230.468750; 1.01737E-4
13236.328125; 9.43080E-5
13242.187500; 9.84065E-5
13248.046875; 9.97251E-5
13253.906250; 1.11555E-4
13259.765625; 1.21361E-4
13265.625000; 1.12433E-4
13271.484375; 1.11263E-4
13277.343750; 1.03143E-4
13283.203125; 1.03457E-4
13289.062500; 1.01271E-4
13294.921875; 1.19782E-4
13300.781250; 1.17635E-4
13306.640625; 9.42485E-5
13312.500000; 9.41122E-5
13318.359375; 1.10313E-4
13324.218750; 1.11936E-4
13330.078125; 9.84635E-5
13335.937500; 9.20841E-5
13341.796875; 9.72313E-5
13347.656250; 9.58273E-5
13353.515625; 9.85785E-5
13359.375000; 1.10782E-4
13365.234375; 1.12660E-4
13371.093750; 1.07424E-4
13376.953125; 1.13629E-4
13382.812500; 1.06517E-4
13388.671875; 1.10437E-4
13394.531250; 1.13362E-4
13400.390625; 1.05238E-4
13406.250000; 1.01272E-4
13412.109375; 1.06285E-4
13417.968750; 1.19961E-4
13423.828125; 1.08775E-4
13429.687500; 1.00657E-4
13435.546875; 9.90998E-5
13441.406250; 1.13291E-4
13447.265625; 1.04714E-4
13453.125000; 9.86393E-5
13458.984375; 1.12336E-4
13464.843750; 9.50177E-5
13470.703125; 8.97415E-5
13476.562500; 9.60163E-5
13482.421875; 9.34250E-5
13488.281250; 9.93109E-5
13494.140625; 1.06210E-4
13500.000000; 1.07310E-4
13505.859375; 1.05532E-4
13511.718750; 9.41108E-5
13517.578125; 1.03354E-4
13523.437500; 1.04725E-4
13529.296875; 1.04827E-4
13535.156250; 1.02445E-4
13541.015625; 9.29355E-5
13546.875000; 9.83146E-5
13552.734375; 1.08520E-4
13558.593750; 1.09707E-4
13564.453125; 1.01125E-4
13570.312500; 8.92580E-5
13576.171875; 1.09938E-4
13582.031250; 1.04175E-4
13587.890625; 1.08409E-4
13593.750000; 1.04971E-4
13599.609375; 1.00213E-4
13605.468750; 1.04423E-4
13611.328125; 1.06854E-4
13617.187500; 9.81689E-5
13623.046875; 9.68338E-5
13628.906250; 9.50065E-5
13634.765625; 1.06514E-4
13640.625000; 1.00512E-4
13646.484375; 1.10077E-4
13652.343750; 1.24343E-4
13658.203125; 1.18169E-4
13664.062500; 9.79038E-5
13669.921875; 9.85439E-5
13675.781250; 1.03781E-4
13681.640625; 1.10530E-4
13687.500000; 1.24293E-4
13693.359375; 1.01380E-4
13699.218750; 9.83311E-5
13705.078125; 1.03621E-4
13710.937500; 1.05015E-4
13716.796875; 1.06704E-4
13722.656250; 1.08785E-4
13728.515625; 1.02029E-4
13734.375000; 9.53470E-5
13740.234375; 9.86291E-5
13746.093750; 9.89173E-5
13751.953125; 1.09392E-4
13757.812500; 1.10312E-4
13763.671875; 1.12575E-4
13769.531250; 1.13317E-4
13775.390625; 1.11510E-4
13781.250000; 1.11538E-4
13787.109375; 1.13945E-4
13792.968750; 9.73454E-5
13798.828125; 9.51930E-5
13804.687500; 1.02741E-4
13810.546875; 1.08142E-4
13816.406250; 1.03508E-4
13822.265625; 1.10696E-4
13828.125000; 1.06055E-4
13833.984375; 1.02708E-4
13839.843750; 1.03062E-4
13845.703125; 1.07768E-4
13851.562500; 1.08185E-4
13857.421875; 1.02341E-4
13863.281250; 1.04147E-4
13869.140625; 1.09492E-4
13875.000000; 1.10528E-4
13880.859375; 1.07079E-4
13886.718750; 1.12068E-4
13892.578125; 1.15485E-4
13898.437500; 1.14827E-4
13904.296875; 1.02371E-4
13910.156250; 1.05676E-4
13916.015625; 1.00952E-4
13921.875000; 1.08956E-4
13927.734375; 1.08238E-4
13933.593750; 1.05081E-4
13939.453125; 1.07524E-4
13945.312500; 1.05264E-4
13951.171875; 1.10230E-4
13957.031250; 1.05270E-4
13962.890625; 1.10927E-4
13968.750000; 1.14866E-4
13974.609375; 1.11837E-4
13980.468750; 1.10916E-4
13986.328125; 1.06620E-4
13992.187500; 9.76623E-5
13998.046875; 9.19108E-5
14003.906250; 1.02376E-4
14009.765625; 1.01987E-4
14015.625000; 1.00298E-4
14021.484375; 9.54562E-5
14027.343750; 9.76404E-5
14033.203125; 9.20544E-5
14039.062500; 1.06345E-4
14044.921875; 9.57989E-5
14050.781250; 9.64425E-5
14056.640625; 1.02189E-4
14062.500000; 1.01014E-4
14068.359375; 9.51883E-5
14074.218750; 1.02256E-4
14080.078125; 1.16876E-4
14085.937500; 1.09488E-4
14091.796875; 1.03677E-4
14097.656250; 1.18627E-4
14103.515625; 1.14087E-4
14109.375000; 1.09772E-4
14115.234375; 9.69467E-5
14121.093750; 9.54243E-5
14126.953125; 9.78266E-5
14132.812500; 1.03827E-4
14138.671875; 1.00124E-4
14144.531250; 1.10433E-4
14150.390625; 1.05793E-4
14156.250000; 9.36519E-5
14162.109375; 1.05531E-4
14167.968750; 1.08317E-4
14173.828125; 1.09748E-4
14179.687500; 1.12011E-4
14185.546875; 1.07473E-4
14191.406250; 9.80724E-5
14197.265625; 1.01170E-4
14203.125000; 1.10656E-4
14208.984375; 1.05964E-4
14214.843750; 1.01566E-4
14220.703125; 9.99556E-5
14226.562500; 1.04614E-4
14232.421875; 1.09917E-4
14238.281250; 1.11392E-4
14244.140625; 1.13596E-4
14250.000000; 1.10182E-4
14255.859375; 9.32690E-5
14261.718750; 9.03582E-5
14267.578125; 1.13622E-4
14273.437500; 9.69317E-5
14279.296875; 1.07430E-4
14285.156250; 1.08380E-4
14291.015625; 9.38106E-5
14296.875000; 1.07999E-4
14302.734375; 1.07475E-4
14308.593750; 1.01991E-4
14314.453125; 1.01615E-4
14320.312500; 1.10582E-4
14326.171875; 9.59747E-5
14332.031250; 1.02663E-4
14337.890625; 1.04753E-4
14343.750000; 1.10012E-4
14349.609375; 1.05922E-4
14355.468750; 1.11580E-4
14361.328125; 1.10786E-4
14367.187500; 1.01700E-4
14373.046875; 1.05949E-4
14378.906250; 1.17587E-4
14384.765625; 1.15876E-4
14390.625000; 1.05665E-4
14396.484375; 9.84779E-5
14402.343750; 1.14044E-4
14408.203125; 1.14869E-4
14414.062500; 1.10037E-4
14419.921875; 1.08872E-4
14425.781250; 1.09896E-4
14431.640625; 9.80934E-5
14437.500000; 9.32223E-5
14443.359375; 9.84013E-5
14449.218750; 1.13779E-4
14455.078125; 1.11918E-4
14460.937500; 1.10065E-4
14466.796875; 1.10732E-4
14472.656250; 1.02506E-4
14478.515625; 1.05702E-4
14484.375000; 1.05323E-4
14490.234375; 1.07013E-4
14496.093750; 1.08172E-4
14501.953125; 1.10380E-4
14507.812500; 1.12082E-4
14513.671875; 1.04451E-4
14519.531250; 1.04060E-4
14525.390625; 1.00426E-4
14531.250000; 9.19207E-5
14537.109375; 1.06307E-4
14542.968750; 1.12394E-4
14548.828125; 1.12618E-4
14554.687500; 1.01666E-4
14560.546875; 1.03147E-4
14566.406250; 1.05072E-4
14572.265625; 1.06367E-4
14578.125000; 1.03173E-4
14583.984375; 1.13414E-4
14589.843750; 1.00924E-4
14595.703125; 1.01563E-4
14601.562500; 1.00369E-4
14607.421875; 1.09154E-4
14613.281250; 1.17612E-4
14619.140625; 1.06822E-4
14625.000000; 9.56470E-5
14630.859375; 8.95841E-5
14636.718750; 8.04389E-5
14642.578125; 1.02276E-4
14648.437500; 1.12751E-4
14654.296875; 1.03451E-4
14660.156250; 1.00115E-4
14666.015625; 9.89122E-5
14671.875000; 1.04891E-4
14677.734375; 9.85331E-5
14683.593750; 1.00342E-4
14689.453125; 1.08203E-4
14695.312500; 1.08372E-4
14701.171875; 1.05817E-4
14707.031250; 1.12013E-4
14712.890625; 1.11375E-4
14718.750000; 1.11191E-4
14724.609375; 1.17643E-4
14730.468750; 1.17826E-4
14736.328125; 1.06093E-4
14742.187500; 1.03767E-4
14748.046875; 1.01627E-4
14753.906250; 1.09785E-4
14759.765625; 1.06229E-4
14765.625000; 9.96858E-5
14771.484375; 9.76484E-5
14777.343750; 9.31629E-5
14783.203125; 1.08196E-4
14789.062500; 1.06305E-4
14794.921875; 1.12945E-4
14800.781250; 1.11527E-4
14806.640625; 1.02493E-4
14812.500000; 1.05049E-4
14818.359375; 1.08577E-4
14824.218750; 1.07398E-4
14830.078125; 1.02337E-4
14835.937500; 1.07040E-4
14841.796875; 9.42340E-5
14847.656250; 9.84601E-5
14853.515625; 9.73116E-5
14859.375000; 1.01061E-4
14865.234375; 1.14807E-4
14871.093750; 1.10085E-4
14876.953125; 1.00794E-4
14882.812500; 1.07899E-4
14888.671875; 1.11410E-4
14894.531250; 1.07257E-4
14900.390625; 9.91496E-5
14906.250000; 1.04897E-4
14912.109375; 1.06335E-4
14917.968750; 1.02741E-4
14923.828125; 9.77516E-5
14929.687500; 9.67577E-5
14935.546875; 1.06798E-4
14941.406250; 1.02390E-4
14947.265625; 9.35506E-5
14953.125000; 9.96674E-5
14958.984375; 1.12129E-4
14964.843750; 1.12953E-4
14970.703125; 9.50264E-5
14976.562500; 1.02876E-4
14982.421875; 1.04206E-4
14988.281250; 1.12116E-4
14994.140625; 1.16867E-4
15000.000000; 1.04931E-4
15005.859375; 1.00510E-4
15011.718750; 1.02145E-4
15017.578125; 1.17905E-4
15023.437500; 1.33378E-4
15029.296875; 1.22126E-4
15035.156250; 1.08436E-4
15041.015625; 1.13402E-4
15046.875000; 1.07105E-4
15052.734375; 1.04341E-4
15058.593750; 1.05285E-4
15064.453125; 1.02907E-4
15070.312500; 1.08229E-4
15076.171875; 1.00440E-4
15082.031250; 1.05530E-4
15087.890625; 1.08099E-4
15093.750000; 1.03405E-4
15099.609375; 9.16520E-5
15105.468750; 1.02736E-4
15111.328125; 9.67416E-5
15117.187500; 1.08407E-4
15123.046875; 1.06179E-4
15128.906250; 1.09408E-4
15134.765625; 9.80271E-5
15140.625000; 1.12346E-4
15146.484375; 1.16484E-4
15152.343750; 1.08313E-4
15158.203125; 9.78409E-5
15164.062500; 1.03785E-4
15169.921875; 1.03462E-4
15175.781250; 9.76550E-5
15181.640625; 1.18856E-4
15187.500000; 1.06101E-4
15193.359375; 1.10335E-4
15199.218750; 1.14817E-4
15205.078125; 1.04050E-4
15210.937500; 1.02034E-4
15216.796875; 9.99341E-5
15222.656250; 9.41744E-5
15228.515625; 9.99956E-5
15234.375000; 1.10656E-4
15240.234375; 1.01852E-4
15246.093750; 1.03655E-4
15251.953125; 9.38895E-5
15257.812500; 1.03474E-4
15263.671875; 1.02813E-4
15269.531250; 1.00534E-4
15275.390625; 1.00012E-4
15281.250000; 1.01108E-4
15287.109375; 1.01058E-4
15292.968750; 1.01912E-4
15298.828125; 1.00944E-4
15304.687500; 1.08894E-4
15310.546875; 9.50331E-5
15316.406250; 9.97469E-5
15322.265625; 1.02999E-4
15328.125000; 1.05817E-4
15333.984375; 1.11219E-4
15339.843750; 1.02862E-4
15345.703125; 1.04488E-4
15351.562500; 1.09954E-4
15357.421875; 1.10289E-4
15363.281250; 1.08023E-4
15369.140625; 1.05680E-4
15375.000000; 1.06103E-4
15380.859375; 1.06338E-4
15386.718750; 9.71282E-5
15392.578125; 1.08094E-4
15398.437500; 9.93926E-5
15404.296875; 9.40215E-5
15410.156250; 1.04970E-4
15416.015625; 1.18366E-4
15421.875000; 1.19782E-4
15427.734375; 1.11221E-4
15433.593750; 9.96572E-5
15439.453125; 9.65464E-5
15445.312500; 9.89718E-5
15451.171875; 9.61898E-5
15457.031250; 9.84452E-5
15462.890625; 9.98438E-5
15468.750000; 1.02778E-4
15474.609375; 1.09201E-4
15480.468750; 1.15874E-4
15486.328125; 1.15182E-4
15492.187500; 1.04890E-4
15498.046875; 1.09194E-4
15503.906250; 1.07417E-4
15509.765625; 1.04565E-4
15515.625000; 1.17695E-4
15521.484375; 1.01658E-4
15527.343750; 9.73844E-5
15533.203125; 1.05790E-4
15539.062500; 1.05031E-4
15544.921875; 9.54007E-5
15550.781250; 9.82958E-5
15556.640625; 1.13881E-4
15562.500000; 1.07241E-4
15568.359375; 9.56807E-5
15574.218750; 9.37114E-5
15580.078125; 8.88388E-5
15585.937500; 9.36770E-5
15591.796875; 1.03044E-4
15597.656250; 1.00211E-4
15603.515625; 1.06726E-4
15609.375000; 1.15158E-4
15615.234375; 1.02937E-4
15621.093750; 1.00757E-4
15626.953125; 1.20984E-4
15632.812500; 1.16582E-4
15638.671875; 1.02606E-4
15644.531250; 1.08474E-4
15650.390625; 1.16070E-4
15656.250000; 1.09541E-4
15662.109375; 1.03312E-4
15667.968750; 9.20652E-5
15673.828125; 9.39724E-5
15679.687500; 8.47052E-5
15685.546875; 8.86081E-5
15691.406250; 9.05483E-5
15697.265625; 9.56762E-5
15703.125000; 8.66403E-5
15708.984375; 9.66718E-5
15714.843750; 1.04032E-4
15720.703125; 1.03338E-4
15726.562500; 1.11282E-4
15732.421875; 1.11508E-4
15738.281250; 1.05156E-4
15744.140625; 1.09595E-4
15750.000000; 1.06589E-4
15755.859375; 1.02943E-4
15761.718750; 9.11834E-5
15767.578125; 1.04087E-4
15773.437500; 1.14531E-4
15779.296875; 1.17871E-4
15785.156250; 1.14731E-4
15791.015625; 1.03105E-4
15796.875000; 9.63000E-5
15802.734375; 1.05936E-4
15808.593750; 9.23000E-5
15814.453125; 1.03882E-4
15820.312500; 9.94572E-5
15826.171875; 8.76042E-5
15832.031250; 1.01017E-4
15837.890625; 1.06466E-4
15843.750000; 1.01764E-4
15849.609375; 9.92993E-5
15855.468750; 9.67177E-5
15861.328125; 9.80612E-5
15867.187500; 1.16631E-4
15873.046875; 1.21590E-4
15878.906250; 1.14547E-4
15884.765625; 9.56419E-5
15890.625000; 9.51477E-5
15896.484375; 1.17469E-4
15902.343750; 1.28992E-4
15908.203125; 1.07133E-4
15914.062500; 1.01136E-4
15919.921875; 9.09118E-5
15925.781250; 1.01185E-4
15931.640625; 1.00516E-4
15937.500000; 9.95325E-5
15943.359375; 1.17941E-4
15949.218750; 1.07639E-4
15955.078125; 1.02418E-4
15960.937500; 1.11445E-4
15966.796875; 1.08631E-4
15972.656250; 1.14604E-4
15978.515625; 1.14154E-4
15984.375000; 9.67945E-5
15990.234375; 9.97278E-5
15996.093750; 1.04155E-4
16001.953125; 1.00356E-4
16007.812500; 9.44295E-5
16013.671875; 1.10990E-4
16019.531250; 1.19143E-4
16025.390625; 1.15297E-4
16031.250000; 1.19874E-4
16037.109375; 1.01526E-4
16042.968750; 1.02777E-4
16048.828125; 1.02810E-4
16054.687500; 1.08444E-4
16060.546875; 1.03246E-4
16066.406250; 1.03487E-4
16072.265625; 1.19993E-4
16078.125000; 1.22146E-4
16083.984375; 1.24826E-4
16089.843750; 1.20773E-4
16095.703125; 1.18339E-4
16101.562500; 9.80789E-5
16107.421875; 9.72618E-5
16113.281250; 1.01526E-4
16119.140625; 1.07157E-4
16125.000000; 1.11614E-4
16130.859375; 9.79907E-5
16136.718750; 9.40982E-5
16142.578125; 1.12916E-4
16148.437500; 1.12055E-4
16154.296875; 1.04918E-4
16160.156250; 1.02227E-4
16166.015625; 9.71097E-5
16171.875000; 9.52550E-5
16177.734375; 1.09843E-4
16183.593750; 1.19113E-4
16189.453125; 1.11754E-4
16195.312500; 1.19069E-4
16201.171875; 1.20500E-4
16207.031250; 1.14982E-4
16212.890625; 1.02603E-4
16218.750000; 1.05245E-4
16224.609375; 9.97559E-5
16230.468750; 1.05579E-4
16236.328125; 1.07744E-4
16242.187500; 1.00471E-4
16248.046875; 9.56496E-5
16253.906250; 9.37566E-5
16259.765625; 8.97503E-5
16265.625000; 9.83479E-5
16271.484375; 1.05176E-4
16277.343750; 1.06652E-4
16283.203125; 1.10644E-4
16289.062500; 1.09596E-4
16294.921875; 1.12813E-4
16300.781250; 1.22996E-4
16306.640625; 1.22569E-4
16312.500000; 1.06279E-4
16318.359375; 9.74093E-5
16324.218750; 9.52599E-5
16330.078125; 1.06464E-4
16335.937500; 1.02508E-4
16341.796875; 9.89438E-5
16347.656250; 9.20530E-5
16353.515625; 1.11823E-4
16359.375000; 1.12596E-4
16365.234375; 1.11869E-4
16371.093750; 1.11821E-4
16376.953125; 9.38680E-5
16382.812500; 1.00431E-4
16388.671875; 1.06717E-4
16394.531250; 1.13629E-4
16400.390625; 1.22888E-4
16406.250000; 1.24560E-4
16412.109375; 1.13560E-4
16417.968750; 9.23400E-5
16423.828125; 1.01095E-4
16429.687500; 1.05058E-4
16435.546875; 9.88974E-5
16441.406250; 9.90113E-5
16447.265625; 9.88447E-5
16453.125000; 1.11783E-4
16458.984375; 1.09270E-4
16464.843750; 9.95305E-5
16470.703125; 9.70223E-5
16476.562500; 9.35142E-5
16482.421875; 1.03456E-4
16488.281250; 1.06416E-4
16494.140625; 1.09162E-4
16500.000000; 1.00855E-4
16505.859375; 9.66028E-5
16511.718750; 1.03255E-4
16517.578125; 9.05687E-5
16523.437500; 8.18032E-5
16529.296875; 1.02981E-4
16535.156250; 1.10969E-4
16541.015625; 1.03672E-4
16546.875000; 1.02328E-4
16552.734375; 1.16468E-4
16558.593750; 1.15930E-4
16564.453125; 1.09094E-4
16570.312500; 1.08344E-4
16576.171875; 9.76114E-5
16582.031250; 9.63406E-5
16587.890625; 1.07250E-4
16593.750000; 1.10073E-4
16599.609375; 1.01229E-4
16605.468750; 1.06278E-4
16611.328125; 1.04729E-4
16617.187500; 9.55413E-5
16623.046875; 1.14215E-4
16628.906250; 1.16967E-4
16634.765625; 1.09847E-4
16640.625000; 1.11308E-4
16646.484375; 1.09914E-4
16652.343750; 9.75049E-5
16658.203125; 9.76776E-5
16664.062500; 1.12189E-4
16669.921875; 1.09430E-4
16675.781250; 1.08057E-4
16681.640625; 1.04572E-4
16687.500000; 1.02999E-4
16693.359375; 1.06335E-4
16699.218750; 9.55989E-5
16705.078125; 8.70353E-5
16710.937500; 1.02032E-4
16716.796875; 9.66664E-5
16722.656250; 1.09112E-4
16728.515625; 1.07745E-4
16734.375000; 9.54609E-5
16740.234375; 1.12914E-4
16746.093750; 1.07737E-4
16751.953125; 9.73998E-5
16757.812500; 8.49173E-5
16763.671875; 9.02537E-5
16769.531250; 9.73244E-5
16775.390625; 9.90782E-5
16781.250000; 9.94118E-5
16787.109375; 9.54103E-5
16792.968750; 1.01629E-4
16798.828125; 9.82139E-5
16804.687500; 9.33537E-5
16810.546875; 9.78843E-5
16816.406250; 1.06209E-4
16822.265625; 1.04029E-4
16828.125000; 1.07783E-4
16833.984375; 1.03683E-4
16839.843750; 1.08260E-4
16845.703125; 1.09667E-4
16851.562500; 1.03920E-4
16857.421875; 9.47101E-5
16863.281250; 9.57845E-5
16869.140625; 9.98259E-5
16875.000000; 1.08721E-4
16880.859375; 1.13307E-4
16886.718750; 8.76463E-5
16892.578125; 9.78012E-5
16898.437500; 1.10492E-4
16904.296875; 1.08271E-4
16910.156250; 1.09014E-4
16916.015625; 1.08980E-4
16921.875000; 9.65371E-5
16927.734375; 9.90137E-5
16933.593750; 1.04196E-4
16939.453125; 9.39162E-5
16945.312500; 1.04044E-4
16951.171875; 1.18823E-4
16957.031250; 1.24446E-4
16962.890625; 9.97647E-5
16968.750000; 9.98327E-5
16974.609375; 9.53687E-5
16980.468750; 9.30458E-5
16986.328125; 1.06379E-4
16992.187500; 1.14391E-4
16998.046875; 1.12949E-4
17003.906250; 1.20017E-4
17009.765625; 1.14970E-4
17015.625000; 1.07361E-4
17021.484375; 9.80931E-5
17027.343750; 9.98041E-5
17033.203125; 1.16978E-4
17039.062500; 1.11424E-4
17044.921875; 1.07272E-4
17050.781250; 1.19097E-4
17056.640625; 1.08416E-4
17062.500000; 1.00874E-4
17068.359375; 9.06284E-5
17074.218750; 1.03787E-4
17080.078125; 1.10805E-4
17085.937500; 1.05842E-4
17091.796875; 9.91055E-5
17097.656250; 1.12942E-4
17103.515625; 1.11140E-4
17109.375000; 1.03898E-4
17115.234375; 1.14616E-4
17121.093750; 9.97589E-5
17126.953125; 1.05453E-4
17132.812500; 9.59719E-5
17138.671875; 9.99936E-5
17144.531250; 9.93208E-5
17150.390625; 9.84320E-5
17156.250000; 1.21427E-4
17162.109375; 1.20072E-4
17167.968750; 1.09542E-4
17173.828125; 1.13346E-4
17179.687500; 1.01866E-4
17185.546875; 1.06182E-4
17191.406250; 9.95898E-5
17197.265625; 1.05632E-4
17203.125000; 1.13564E-4
17208.984375; 1.18461E-4
17214.843750; 1.06465E-4
17220.703125; 1.08865E-4
17226.562500; 1.12404E-4
17232.421875; 1.19869E-4
17238.281250; 1.03370E-4
17244.140625; 8.40363E-5
17250.000000; 9.49346E-5
17255.859375; 9.72137E-5
17261.718750; 1.06628E-4
17267.578125; 1.19311E-4
17273.437500; 1.13236E-4
17279.296875; 9.43913E-5
17285.156250; 1.08111E-4
17291.015625; 1.05895E-4
17296.875000; 8.77169E-5
17302.734375; 9.91283E-5
17308.593750; 1.03569E-4
17314.453125; 1.08135E-4
17320.312500; 1.08901E-4
17326.171875; 1.06465E-4
17332.031250; 1.00679E-4
17337.890625; 8.92275E-5
17343.750000; 9.26921E-5
17349.609375; 8.87490E-5
17355.468750; 1.08215E-4
17361.328125; 1.11104E-4
17367.187500; 1.04258E-4
17373.046875; 9.25661E-5
17378.906250; 1.01354E-4
17384.765625; 1.30343E-4
17390.625000; 1.21373E-4
17396.484375; 1.14088E-4
17402.343750; 1.14596E-4
17408.203125; 1.08025E-4
17414.062500; 9.55214E-5
17419.921875; 8.41685E-5
17425.781250; 8.52264E-5
17431.640625; 1.07288E-4
17437.500000; 1.06102E-4
17443.359375; 1.00529E-4
17449.218750; 1.03382E-4
17455.078125; 1.13908E-4
17460.937500; 1.16620E-4
17466.796875; 1.14823E-4
17472.656250; 1.09509E-4
17478.515625; 9.77651E-5
17484.375000; 9.67125E-5
17490.234375; 1.07429E-4
17496.093750; 1.20592E-4
17501.953125; 1.08375E-4
17507.812500; 1.04955E-4
17513.671875; 9.43196E-5
17519.531250; 9.94710E-5
17525.390625; 9.72825E-5
17531.250000; 9.30263E-5
17537.109375; 1.03583E-4
17542.968750; 1.14015E-4
17548.828125; 1.22523E-4
17554.687500; 1.14911E-4
17560.546875; 1.13064E-4
17566.406250; 1.11501E-4
17572.265625; 1.08782E-4
17578.125000; 9.92447E-5
17583.984375; 9.10410E-5
17589.843750; 1.00569E-4
17595.703125; 1.09684E-4
17601.562500; 9.51244E-5
17607.421875; 8.60592E-5
17613.281250; 1.04001E-4
17619.140625; 1.09488E-4
17625.000000; 1.02793E-4
17630.859375; 1.04954E-4
17636.718750; 1.04296E-4
17642.578125; 8.63694E-5
17648.437500; 8.63163E-5
17654.296875; 9.96612E-5
17660.156250; 1.04882E-4
17666.015625; 1.08383E-4
17671.875000; 1.12840E-4
17677.734375; 9.79333E-5
17683.593750; 9.95802E-5
17689.453125; 1.11286E-4
17695.312500; 9.78389E-5
17701.171875; 9.55533E-5
17707.031250; 1.02941E-4
17712.890625; 9.77426E-5
17718.750000; 9.82959E-5
17724.609375; 9.08154E-5
17730.468750; 1.04242E-4
17736.328125; 9.88250E-5
17742.187500; 9.59035E-5
17748.046875; 1.06569E-4
17753.906250; 1.02925E-4
17759.765625; 9.39827E-5
17765.625000; 8.97751E-5
17771.484375; 1.04658E-4
17777.343750; 1.15572E-4
17783.203125; 1.00638E-4
17789.062500; 9.85423E-5
17794.921875; 1.18796E-4
17800.781250; 1.28313E-4
17806.640625; 1.17714E-4
17812.500000; 1.16698E-4
17818.359375; 1.19399E-4
17824.218750; 9.25727E-5
17830.078125; 9.58897E-5
17835.937500; 1.06323E-4
17841.796875; 1.15177E-4
17847.656250; 1.15629E-4
17853.515625; 1.03377E-4
17859.375000; 9.21801E-5
17865.234375; 9.09671E-5
17871.093750; 1.03678E-4
17876.953125; 1.13966E-4
17882.812500; 1.01541E-4
17888.671875; 1.07783E-4
17894.531250; 1.04343E-4
17900.390625; 1.10105E-4
17906.250000; 1.02183E-4
17912.109375; 8.75497E-5
17917.968750; 1.01411E-4
17923.828125; 1.02835E-4
17929.687500; 1.01273E-4
17935.546875; 1.03946E-4
17941.406250; 9.79250E-5
17947.265625; 1.08385E-4
17953.125000; 1.12491E-4
17958.984375; 1.01747E-4
17964.843750; 1.01119E-4
17970.703125; 9.69300E-5
17976.562500; 1.01034E-4
17982.421875; 1.09644E-4
17988.281250; 1.13119E-4
17994.140625; 1.17515E-4
18000.000000; 1.02129E-4
18005.859375; 1.00460E-4
18011.718750; 9.89255E-5
18017.578125; 1.09813E-4
18023.437500; 1.05335E-4
18029.296875; 1.02979E-4
18035.156250; 9.52183E-5
18041.015625; 9.52638E-5
18046.875000; 9.88719E-5
18052.734375; 1.04701E-4
18058.593750; 9.67052E-5
18064.453125; 9.57115E-5
18070.312500; 9.40049E-5
18076.171875; 9.30535E-5
18082.031250; 9.48775E-5
18087.890625; 9.23506E-5
18093.750000; 1.02151E-4
18099.609375; 1.07059E-4
18105.468750; 1.08520E-4
18111.328125; 1.08190E-4
18117.187500; 1.04092E-4
18123.046875; 1.00289E-4
18128.906250; 9.11079E-5
18134.765625; 1.02013E-4
18140.625000; 1.11173E-4
18146.484375; 1.14236E-4
18152.343750; 1.04606E-4
18158.203125; 1.09845E-4
18164.062500; 1.02165E-4
18169.921875; 1.00213E-4
18175.781250; 1.12207E-4
18181.640625; 1.04256E-4
18187.500000; 9.17200E-5
18193.359375; 8.67417E-5
18199.218750; 9.40549E-5
18205.078125; 1.00437E-4
18210.937500; 1.17207E-4
18216.796875; 1.01378E-4
18222.656250; 9.62002E-5
18228.515625; 1.09541E-4
18234.375000; 1.01415E-4
18240.234375; 8.97937E-5
18246.093750; 1.05739E-4
18251.953125; 1.09828E-4
18257.812500; 9.84380E-5
18263.671875; 1.09267E-4
18269.531250; 1.14581E-4
18275.390625; 1.01368E-4
18281.250000; 9.99369E-5
18287.109375; 1.04078E-4
18292.968750; 1.04418E-4
18298.828125; 1.05680E-4
18304.687500; 1.11957E-4
18310.546875; 1.10998E-4
18316.406250; 1.01952E-4
18322.265625; 9.85213E-5
18328.125000; 1.00675E-4
18333.984375; 9.82556E-5
18339.843750; 9.75925E-5
18345.703125; 9.00356E-5
18351.562500; 9.00571E-5
18357.421875; 9.30560E-5
18363.281250; 9.75296E-5
18369.140625; 1.02102E-4
18375.000000; 9.67238E-5
18380.859375; 9.66636E-5
18386.718750; 9.79357E-5
18392.578125; 9.56319E-5
18398.437500; 1.08471E-4
18404.296875; 1.08955E-4
18410.156250; 1.02877E-4
18416.015625; 1.06602E-4
18421.875000; 1.01385E-4
18427.734375; 9.54682E-5
18433.593750; 1.05514E-4
18439.453125; 1.12600E-4
18445.312500; 1.07972E-4
18451.171875; 1.06514E-4
18457.031250; 9.36040E-5
18462.890625; 8.84791E-5
18468.750000; 9.75706E-5
18474.609375; 9.83417E-5
18480.468750; 9.32319E-5
18486.328125; 1.02838E-4
18492.187500; 9.88808E-5
18498.046875; 8.82687E-5
18503.906250; 1.08723E-4
18509.765625; 1.05078E-4
18515.625000; 1.02582E-4
18521.484375; 1.05326E-4
18527.343750; 1.15548E-4
18533.203125; 1.19360E-4
18539.062500; 1.18045E-4
18544.921875; 9.92136E-5
18550.781250; 9.01159E-5
18556.640625; 9.56871E-5
18562.500000; 9.65046E-5
18568.359375; 9.74730E-5
18574.218750; 1.09803E-4
18580.078125; 1.02799E-4
18585.937500; 1.03557E-4
18591.796875; 1.01724E-4
18597.656250; 9.96050E-5
18603.515625; 1.08431E-4
18609.375000; 1.05757E-4
18615.234375; 9.39935E-5
18621.093750; 9.63226E-5
18626.953125; 9.37575E-5
18632.812500; 9.23278E-5
18638.671875; 9.59235E-5
18644.531250; 9.82702E-5
18650.390625; 9.80618E-5
18656.250000; 9.55391E-5
18662.109375; 1.03546E-4
18667.968750; 9.87005E-5
18673.828125; 9.81615E-5
18679.687500; 1.03555E-4
18685.546875; 1.06243E-4
18691.406250; 8.91945E-5
18697.265625; 9.72627E-5
18703.125000; 1.09669E-4
18708.984375; 1.08633E-4
18714.843750; 1.34750E-4
18720.703125; 1.25608E-4
18726.562500; 1.21651E-4
18732.421875; 1.12713E-4
18738.281250; 9.83584E-5
18744.140625; 1.09292E-4
18750.000000; 1.02095E-4
18755.859375; 9.62744E-5
18761.718750; 9.49125E-5
18767.578125; 1.13533E-4
18773.437500; 1.00764E-4
18779.296875; 9.50920E-5
18785.156250; 9.85092E-5
18791.015625; 9.89678E-5
18796.875000; 1.11451E-4
18802.734375; 1.06018E-4
18808.593750; 9.97707E-5
18814.453125; 1.03639E-4
18820.312500; 9.82122E-5
18826.171875; 9.75022E-5
18832.031250; 1.01229E-4
18837.890625; 9.80349E-5
18843.750000; 9.96935E-5
18849.609375; 1.04791E-4
18855.468750; 1.02940E-4
18861.328125; 1.00148E-4
18867.187500; 1.13037E-4
18873.046875; 1.15527E-4
18878.906250; 1.17199E-4
18884.765625; 1.07107E-4
18890.625000; 9.51534E-5
18896.484375; 9.28902E-5
18902.343750; 1.03918E-4
18908.203125; 1.10981E-4
18914.062500; 1.12385E-4
18919.921875; 1.11910E-4
18925.781250; 1.07543E-4
18931.640625; 1.04267E-4
18937.500000; 1.16111E-4
18943.359375; 1.07318E-4
18949.218750; 9.18605E-5
18955.078125; 9.46780E-5
18960.937500; 9.74912E-5
18966.796875; 1.00453E-4
18972.656250; 1.00302E-4
18978.515625; 9.78734E-5
18984.375000; 1.14085E-4
18990.234375; 1.07130E-4
18996.093750; 1.03177E-4
19001.953125; 1.05181E-4
19007.812500; 1.04397E-4
19013.671875; 9.73477E-5
19019.531250; 9.61425E-5
19025.390625; 1.02702E-4
19031.250000; 1.07993E-4
19037.109375; 9.27082E-5
19042.968750; 8.84775E-5
19048.828125; 9.43202E-5
19054.687500; 9.70333E-5
19060.546875; 1.11378E-4
19066.406250; 1.21120E-4
19072.265625; 1.11853E-4
19078.125000; 1.05471E-4
19083.984375; 1.06074E-4
19089.843750; 1.12640E-4
19095.703125; 1.01630E-4
19101.562500; 8.42055E-5
19107.421875; 9.45458E-5
19113.281250; 1.09002E-4
19119.140625; 1.03454E-4
19125.000000; 1.09030E-4
19130.859375; 1.16998E-4
19136.718750; 1.18594E-4
19142.578125; 1.23157E-4
19148.437500; 1.18040E-4
19154.296875; 1.09402E-4
19160.156250; 1.03977E-4
19166.015625; 1.04862E-4
19171.875000; 1.18855E-4
19177.734375; 1.01295E-4
19183.593750; 9.03824E-5
19189.453125; 1.05820E-4
19195.312500; 1.10803E-4
19201.171875; 1.18921E-4
19207.031250; 1.18718E-4
19212.890625; 1.07390E-4
19218.750000; 1.06492E-4
19224.609375; 1.05979E-4
19230.468750; 9.86731E-5
19236.328125; 9.78528E-5
19242.187500; 9.36559E-5
19248.046875; 1.07149E-4
19253.906250; 1.06775E-4
19259.765625; 1.01574E-4
19265.625000; 9.74755E-5
19271.484375; 9.20032E-5
19277.343750; 9.95613E-5
19283.203125; 9.71068E-5
19289.062500; 1.00000E-4
19294.921875; 1.03084E-4
19300.781250; 1.04665E-4
19306.640625; 1.05792E-4
19312.500000; 1.04417E-4
19318.359375; 1.04535E-4
19324.218750; 1.05500E-4
19330.078125; 9.34491E-5
19335.937500; 1.11178E-4
19341.796875; 1.09494E-4
19347.656250; 9.24691E-5
19353.515625; 1.03284E-4
19359.375000; 1.09848E-4
19365.234375; 1.02175E-4
19371.093750; 1.09214E-4
19376.953125; 9.84851E-5
19382.812500; 1.08729E-4
19388.671875; 1.08889E-4
19394.531250; 9.55691E-5
19400.390625; 1.09984E-4
19406.250000; 1.09696E-4
19412.109375; 1.05089E-4
19417.968750; 1.04322E-4
19423.828125; 9.81534E-5
19429.687500; 9.36850E-5
19435.546875; 8.28775E-5
19441.406250; 1.02940E-4
19447.265625; 1.00937E-4
19453.125000; 9.73148E-5
19458.984375; 9.50681E-5
19464.843750; 9.44437E-5
19470.703125; 9.39853E-5
19476.562500; 8.94061E-5
19482.421875; 1.01884E-4
19488.281250; 1.06586E-4
19494.140625; 1.08424E-4
19500.000000; 9.99997E-5
19505.859375; 1.06443E-4
19511.718750; 1.04804E-4
19517.578125; 1.09513E-4
19523.437500; 1.10613E-4
19529.296875; 1.06685E-4
19535.156250; 1.03253E-4
19541.015625; 1.03397E-4
19546.875000; 9.86075E-5
19552.734375; 9.57538E-5
19558.593750; 1.00813E-4
19564.453125; 1.04215E-4
19570.312500; 1.12084E-4
19576.171875; 9.50674E-5
19582.031250; 9.89407E-5
19587.890625; 1.03895E-4
19593.750000; 1.07897E-4
19599.609375; 1.03026E-4
19605.468750; 9.67249E-5
19611.328125; 1.08466E-4
19617.187500; 1.17419E-4
19623.046875; 1.13920E-4
19628.906250; 1.11539E-4
19634.765625; 9.99770E-5
19640.625000; 9.52776E-5
19646.484375; 1.01971E-4
19652.343750; 1.05604E-4
19658.203125; 1.11707E-4
19664.062500; 1.15988E-4
19669.921875; 1.14217E-4
19675.781250; 9.10068E-5
19681.640625; 9.32476E-5
19687.500000; 9.86918E-5
19693.359375; 1.03369E-4
19699.218750; 1.14103E-4
19705.078125; 1.09760E-4
19710.937500; 8.75975E-5
19716.796875; 8.95436E-5
19722.656250; 9.83997E-5
19728.515625; 9.35246E-5
19734.375000; 1.05210E-4
19740.234375; 1.10888E-4
19746.093750; 1.12200E-4
19751.953125; 1.00298E-4
19757.812500; 9.12287E-5
19763.671875; 9.51640E-5
19769.531250; 8.96722E-5
19775.390625; 9.48400E-5
19781.250000; 9.99400E-5
19787.109375; 1.02448E-4
19792.968750; 1.05699E-4
19798.828125; 9.55146E-5
19804.687500; 9.44273E-5
19810.546875; 9.93487E-5
19816.406250; 9.68267E-5
19822.265625; 1.10393E-4
19828.125000; 1.09445E-4
19833.984375; 9.08036E-5
19839.843750; 9.70420E-5
19845.703125; 1.07508E-4
19851.562500; 1.18558E-4
19857.421875; 1.12850E-4
19863.281250; 9.51894E-5
19869.140625; 9.85870E-5
19875.000000; 1.01949E-4
19880.859375; 8.99641E-5
19886.718750; 9.07612E-5
19892.578125; 1.08987E-4
19898.437500; 1.14173E-4
19904.296875; 9.72514E-5
19910.156250; 1.03210E-4
19916.015625; 1.05313E-4
19921.875000; 1.13836E-4
19927.734375; 1.17691E-4
19933.593750; 1.04137E-4
19939.453125; 8.98498E-5
19945.312500; 9.15847E-5
19951.171875; 9.92754E-5
19957.031250; 1.02690E-4
19962.890625; 1.07473E-4
19968.750000; 9.86267E-5
19974.609375; 1.12432E-4
19980.468750; 1.09827E-4
19986.328125; 9.69188E-5
19992.187500; 9.64582E-5
19998.046875; 9.78401E-5
20003.906250; 1.01193E-4
20009.765625; 9.42931E-5
20015.625000; 9.69023E-5
20021.484375; 1.01497E-4
20027.343750; 1.14107E-4
20033.203125; 1.16670E-4
20039.062500; 1.16104E-4
20044.921875; 1.10465E-4
20050.781250; 1.00071E-4
20056.640625; 1.03804E-4
20062.500000; 1.11116E-4
20068.359375; 1.11587E-4
20074.218750; 1.05274E-4
20080.078125; 1.02610E-4
20085.937500; 1.02199E-4
20091.796875; 1.14219E-4
20097.656250; 1.22080E-4
20103.515625; 1.09797E-4
20109.375000; 1.01521E-4
20115.234375; 1.08163E-4
20121.093750; 1.21341E-4
20126.953125; 1.08262E-4
20132.812500; 1.14576E-4
20138.671875; 1.27708E-4
20144.531250; 1.08785E-4
20150.390625; 1.07838E-4
20156.250000; 9.99443E-5
20162.109375; 9.16833E-5
20167.968750; 9.03502E-5
20173.828125; 9.66945E-5
20179.687500; 1.04816E-4
20185.546875; 1.00816E-4
20191.406250; 9.89764E-5
20197.265625; 9.87678E-5
20203.125000; 9.28919E-5
20208.984375; 1.05189E-4
20214.843750; 1.12786E-4
20220.703125; 1.00605E-4
20226.562500; 1.00199E-4
20232.421875; 9.30061E-5
20238.281250; 1.00508E-4
20244.140625; 1.06665E-4
20250.000000; 1.18520E-4
20255.859375; 1.16626E-4
20261.718750; 1.00401E-4
20267.578125; 1.04121E-4
20273.437500; 1.03607E-4
20279.296875; 1.09205E-4
20285.156250; 1.07865E-4
20291.015625; 1.09031E-4
20296.875000; 1.06368E-4
20302.734375; 1.14536E-4
20308.593750; 1.02932E-4
20314.453125; 9.24210E-5
20320.312500; 1.13163E-4
20326.171875; 1.25013E-4
20332.031250; 1.21083E-4
20337.890625; 1.16078E-4
20343.750000; 1.09826E-4
20349.609375; 1.02877E-4
20355.468750; 1.12792E-4
20361.328125; 1.18636E-4
20367.187500; 1.05389E-4
20373.046875; 9.74009E-5
20378.906250; 9.73493E-5
20384.765625; 1.05855E-4
20390.625000; 1.06080E-4
20396.484375; 1.13025E-4
20402.343750; 9.63463E-5
20408.203125; 1.00243E-4
20414.062500; 1.13339E-4
20419.921875; 1.05492E-4
20425.781250; 1.10144E-4
20431.640625; 1.13209E-4
20437.500000; 1.09590E-4
20443.359375; 9.76996E-5
20449.218750; 1.01970E-4
20455.078125; 9.73148E-5
20460.937500; 1.07964E-4
20466.796875; 1.02696E-4
20472.656250; 9.25947E-5
20478.515625; 1.11569E-4
20484.375000; 1.14397E-4
20490.234375; 1.01487E-4
20496.093750; 9.77392E-5
20501.953125; 1.03763E-4
20507.812500; 1.04985E-4
20513.671875; 1.04951E-4
20519.531250; 9.99541E-5
20525.390625; 9.75116E-5
20531.250000; 1.04276E-4
20537.109375; 1.02401E-4
20542.968750; 9.74294E-5
20548.828125; 1.10537E-4
20554.687500; 1.13226E-4
20560.546875; 1.07122E-4
20566.406250; 1.09680E-4
20572.265625; 1.01151E-4
20578.125000; 1.03598E-4
20583.984375; 1.09527E-4
20589.843750; 9.65330E-5
20595.703125; 8.36513E-5
20601.562500; 9.15810E-5
20607.421875; 9.40023E-5
20613.281250; 9.04130E-5
20619.140625; 1.01725E-4
20625.000000; 9.57937E-5
20630.859375; 1.07897E-4
20636.718750; 1.08109E-4
20642.578125; 1.08029E-4
20648.437500; 1.03492E-4
20654.296875; 1.03747E-4
20660.156250; 1.07369E-4
20666.015625; 1.09180E-4
20671.875000; 1.04248E-4
20677.734375; 1.10512E-4
20683.593750; 1.12823E-4
20689.453125; 1.12698E-4
20695.312500; 1.03393E-4
20701.171875; 9.18328E-5
20707.031250; 9.34340E-5
20712.890625; 1.06553E-4
20718.750000; 1.10570E-4
20724.609375; 1.09023E-4
20730.468750; 1.03888E-4
20736.328125; 1.03510E-4
20742.187500; 1.03201E-4
20748.046875; 1.08604E-4
20753.906250; 9.17559E-5
20759.765625; 1.02340E-4
20765.625000; 1.09410E-4
20771.484375; 9.56352E-5
20777.343750; 1.01087E-4
20783.203125; 1.05085E-4
20789.062500; 1.10590E-4
20794.921875; 1.01266E-4
20800.781250; 9.94849E-5
20806.640625; 1.01883E-4
20812.500000; 1.11233E-4
20818.359375; 1.03048E-4
20824.218750; 9.97467E-5
20830.078125; 1.06314E-4
20835.937500; 1.10938E-4
20841.796875; 1.06666E-4
20847.656250; 1.07125E-4
20853.515625; 1.12526E-4
20859.375000; 1.00657E-4
20865.234375; 1.05412E-4
20871.093750; 1.09786E-4
20876.953125; 1.08502E-4
20882.812500; 9.24248E-5
20888.671875; 1.04628E-4
20894.531250; 1.14215E-4
20900.390625; 1.15512E-4
20906.250000; 1.06217E-4
20912.109375; 1.01581E-4
20917.968750; 1.08540E-4
20923.828125; 9.68829E-5
20929.687500; 9.89609E-5
20935.546875; 1.02870E-4
20941.406250; 1.03325E-4
20947.265625; 1.02743E-4
20953.125000; 1.04384E-4
20958.984375; 1.05364E-4
20964.843750; 1.01616E-4
20970.703125; 1.04437E-4
20976.562500; 1.08983E-4
20982.421875; 1.12134E-4
20988.281250; 1.02732E-4
20994.140625; 9.64611E-5
21000.000000; 1.07271E-4
21005.859375; 1.04218E-4
21011.718750; 1.05796E-4
21017.578125; 9.65892E-5
21023.437500; 1.06061E-4
21029.296875; 1.03878E-4
21035.156250; 1.06380E-4
21041.015625; 1.12390E-4
21046.875000; 1.23573E-4
21052.734375; 1.14538E-4
21058.593750; 1.00908E-4
21064.453125; 1.04810E-4
21070.312500; 1.04795E-4
21076.171875; 1.01774E-4
21082.031250; 1.00724E-4
21087.890625; 9.06130E-5
21093.750000; 1.10275E-4
21099.609375; 1.00339E-4
21105.468750; 8.87851E-5
21111.328125; 8.72120E-5
21117.187500; 1.00088E-4
21123.046875; 1.11013E-4
21128.906250; 1.00760E-4
21134.765625; 9.68412E-5
21140.625000; 9.64874E-5
21146.484375; 9.34173E-5
21152.343750; 9.64943E-5
21158.203125; 1.04991E-4
21164.062500; 1.12201E-4
21169.921875; 1.03619E-4
21175.781250; 1.01873E-4
21181.640625; 1.00539E-4
21187.500000; 1.03674E-4
21193.359375; 9.22771E-5
21199.218750; 9.73071E-5
21205.078125; 1.00842E-4
21210.937500; 1.06626E-4
21216.796875; 1.02646E-4
21222.656250; 1.09209E-4
21228.515625; 1.09806E-4
21234.375000; 1.10963E-4
21240.234375; 1.09042E-4
21246.093750; 1.01987E-4
21251.953125; 1.03721E-4
21257.812500; 9.52495E-5
21263.671875; 9.75522E-5
21269.531250; 9.84400E-5
21275.390625; 1.07136E-4
21281.250000; 1.00656E-4
21287.109375; 8.58625E-5
21292.968750; 8.48936E-5
21298.828125; 1.04251E-4
21304.687500; 1.01292E-4
21310.546875; 1.07297E-4
21316.406250; 1.02673E-4
21322.265625; 1.04131E-4
21328.125000; 1.00673E-4
21333.984375; 1.02359E-4
21339.843750; 1.01295E-4
21345.703125; 9.93033E-5
21351.562500; 1.03463E-4
21357.421875; 9.94448E-5
21363.281250; 9.98847E-5
21369.140625; 1.04410E-4
21375.000000; 1.11644E-4
21380.859375; 1.06516E-4
21386.718750; 1.12979E-4
21392.578125; 1.11378E-4
21398.437500; 1.07448E-4
21404.296875; 1.00406E-4
21410.156250; 1.01238E-4
21416.015625; 1.09606E-4
21421.875000; 1.05037E-4
21427.734375; 9.38197E-5
21433.593750; 1.02379E-4
21439.453125; 1.09400E-4
21445.312500; 1.04562E-4
21451.171875; 9.76932E-5
21457.031250; 1.07475E-4
21462.890625; 1.10784E-4
21468.750000; 1.10692E-4
21474.609375; 1.06670E-4
21480.468750; 1.08460E-4
21486.328125; 1.01673E-4
21492.187500; 9.72438E-5
21498.046875; 1.03392E-4
21503.906250; 1.08476E-4
21509.765625; 1.00519E-4
21515.625000; 9.71030E-5
21521.484375; 1.00191E-4
21527.343750; 1.04331E-4
21533.203125; 1.01107E-4
21539.062500; 1.12220E-4
21544.921875; 1.16549E-4
21550.781250; 1.02644E-4
21556.640625; 1.03611E-4
21562.500000; 9.30342E-5
21568.359375; 9.72888E-5
21574.218750; 9.82301E-5
21580.078125; 1.04298E-4
21585.937500; 1.14667E-4
21591.796875; 1.11548E-4
21597.656250; 1.03809E-4
21603.515625; 9.72449E-5
21609.375000; 8.86322E-5
21615.234375; 1.01042E-4
21621.093750; 1.00184E-4
21626.953125; 1.12962E-4
21632.812500; 1.08281E-4
21638.671875; 1.04489E-4
21644.531250; 9.72076E-5
21650.390625; 1.08376E-4
21656.250000; 1.13897E-4
21662.109375; 1.12457E-4
21667.968750; 9.85425E-5
21673.828125; 1.06931E-4
21679.687500; 1.10547E-4
21685.546875; 1.04473E-4
21691.406250; 9.64574E-5
21697.265625; 1.06150E-4
21703.125000; 1.07713E-4
21708.984375; 1.04965E-4
21714.843750; 1.02861E-4
21720.703125; 9.65596E-5
21726.562500; 9.92304E-5
21732.421875; 1.08112E-4
21738.281250; 9.78891E-5
21744.140625; 9.76447E-5
21750.000000; 9.95686E-5
21755.859375; 1.02193E-4
21761.718750; 9.04109E-5
21767.578125; 9.48384E-5
21773.437500; 9.93156E-5
21779.296875; 9.77048E-5
21785.156250; 9.43776E-5
21791.015625; 9.67965E-5
21796.875000; 9.86443E-5
21802.734375; 9.46863E-5
21808.593750; 1.00042E-4
21814.453125; 1.06853E-4
21820.312500; 9.17804E-5
21826.171875; 9.55940E-5
21832.031250; 9.66526E-5
21837.890625; 9.80773E-5
21843.750000; 9.99416E-5
21849.609375; 1.02669E-4
21855.468750; 9.97952E-5
21861.328125; 9.80204E-5
21867.187500; 9.97071E-5
21873.046875; 1.11699E-4
21878.906250; 1.09388E-4
21884.765625; 9.51268E-5
21890.625000; 1.05505E-4
21896.484375; 9.99093E-5
21902.343750; 1.04141E-4
21908.203125; 1.12563E-4
21914.062500; 1.15064E-4
21919.921875; 1.06195E-4
21925.781250; 9.47684E-5
21931.640625; 9.82263E-5
21937.500000; 9.90023E-5
21943.359375; 9.90760E-5
21949.218750; 9.03063E-5
21955.078125; 9.86582E-5
21960.937500; 1.03326E-4
21966.796875; 1.03823E-4
21972.656250; 1.01698E-4
21978.515625; 1.02120E-4
21984.375000; 1.00932E-4
21990.234375; 9.84189E-5
21996.093750; 9.80123E-5
22001.953125; 1.01159E-4
22007.812500; 1.06418E-4
22013.671875; 1.09087E-4
22019.531250; 1.00237E-4
22025.390625; 1.06257E-4
22031.250000; 1.09420E-4
22037.109375; 9.93371E-5
22042.968750; 1.09645E-4
22048.828125; 1.11094E-4
22054.687500; 9.40646E-5
22060.546875; 1.00289E-4
22066.406250; 1.08322E-4
22072.265625; 1.07670E-4
22078.125000; 1.12792E-4
22083.984375; 1.08767E-4
22089.843750; 9.62647E-5
22095.703125; 9.56533E-5
22101.562500; 9.78396E-5
22107.421875; 1.04773E-4
22113.281250; 1.09812E-4
22119.140625; 1.10498E-4
22125.000000; 1.03526E-4
22130.859375; 9.51983E-5
22136.718750; 9.52340E-5
22142.578125; 1.09154E-4
22148.437500; 9.52304E-5
22154.296875; 1.00885E-4
22160.156250; 9.81061E-5
22166.015625; 1.12109E-4
22171.875000; 1.05330E-4
22177.734375; 8.96027E-5
22183.593750; 9.69165E-5
22189.453125; 9.33491E-5
22195.312500; 9.93798E-5
22201.171875; 9.68994E-5
22207.031250; 9.78952E-5
22212.890625; 9.08231E-5
22218.750000; 9.99556E-5
22224.609375; 1.06939E-4
22230.468750; 1.03456E-4
22236.328125; 1.02210E-4
22242.187500; 1.03807E-4
22248.046875; 1.03249E-4
22253.906250; 1.04107E-4
22259.765625; 9.73034E-5
22265.625000; 9.27820E-5
22271.484375; 1.01686E-4
22277.343750; 1.00669E-4
22283.203125; 1.07792E-4
22289.062500; 1.04271E-4
22294.921875; 9.60591E-5
22300.781250; 9.88662E-5
22306.640625; 9.55352E-5
22312.500000; 9.19509E-5
22318.359375; 9.71692E-5
22324.218750; 9.67552E-5
22330.078125; 8.04510E-5
22335.937500; 7.71832E-5
22341.796875; 9.52830E-5
22347.656250; 9.36872E-5
22353.515625; 9.06763E-5
22359.375000; 1.00976E-4
22365.234375; 9.82139E-5
22371.093750; 9.82475E-5
22376.953125; 9.50507E-5
22382.812500; 9.90941E-5
22388.671875; 9.07917E-5
22394.531250; 8.47109E-5
22400.390625; 1.01919E-4
22406.250000; 9.87731E-5
22412.109375; 1.02541E-4
22417.968750; 1.01333E-4
22423.828125; 9.60294E-5
22429.687500; 9.36230E-5
22435.546875; 1.05312E-4
22441.406250; 1.06011E-4
22447.265625; 9.55346E-5
22453.125000; 8.59581E-5
22458.984375; 9.23186E-5
22464.843750; 1.05804E-4
22470.703125; 1.05157E-4
22476.562500; 1.05621E-4
22482.421875; 9.06608E-5
22488.281250; 8.88919E-5
22494.140625; 1.02118E-4
22500.000000; 1.05201E-4
22505.859375; 1.04510E-4
22511.718750; 1.06086E-4
22517.578125; 9.09878E-5
22523.437500; 1.02119E-4
22529.296875; 9.09282E-5
22535.156250; 8.66505E-5
22541.015625; 9.04313E-5
22546.875000; 8.89702E-5
22552.734375; 8.53440E-5
22558.593750; 9.45948E-5
22564.453125; 9.18759E-5
22570.312500; 9.02924E-5
22576.171875; 9.14229E-5
22582.031250; 9.33185E-5
22587.890625; 9.89638E-5
22593.750000; 9.59372E-5
22599.609375; 9.72430E-5
22605.468750; 9.04256E-5
22611.328125; 9.86292E-5
22617.187500; 1.02299E-4
22623.046875; 9.53680E-5
22628.906250; 8.84727E-5
22634.765625; 9.05677E-5
22640.625000; 9.58440E-5
22646.484375; 8.67206E-5
22652.343750; 8.15788E-5
22658.203125; 8.33177E-5
22664.062500; 9.58244E-5
22669.921875; 9.55185E-5
22675.781250; 8.77785E-5
22681.640625; 9.31935E-5
22687.500000; 9.99957E-5
22693.359375; 1.02148E-4
22699.218750; 1.00718E-4
22705.078125; 9.59854E-5
22710.937500; 9.36795E-5
22716.796875; 9.11060E-5
22722.656250; 9.87635E-5
22728.515625; 9.73017E-5
22734.375000; 1.00027E-4
22740.234375; 1.01189E-4
22746.093750; 8.34308E-5
22751.953125; 7.26975E-5
22757.812500; 7.93685E-5
22763.671875; 8.23025E-5
22769.531250; 8.90210E-5
22775.390625; 9.19212E-5
22781.250000; 8.47882E-5
22787.109375; 7.95509E-5
22792.968750; 8.32319E-5
22798.828125; 8.18390E-5
22804.687500; 8.53565E-5
22810.546875; 8.72380E-5
22816.406250; 8.68492E-5
22822.265625; 8.31629E-5
22828.125000; 8.37649E-5
22833.984375; 9.65445E-5
22839.843750; 9.83529E-5
22845.703125; 9.41926E-5
22851.562500; 8.70498E-5
22857.421875; 8.49327E-5
22863.281250; 8.00053E-5
22869.140625; 9.30412E-5
22875.000000; 9.79720E-5
22880.859375; 8.68582E-5
22886.718750; 8.72391E-5
22892.578125; 8.17260E-5
22898.437500; 7.51147E-5
22904.296875; 7.88898E-5
22910.156250; 9.01082E-5
22916.015625; 9.04581E-5
22921.875000; 8.86744E-5
22927.734375; 8.01703E-5
22933.593750; 8.24407E-5
22939.453125; 7.75216E-5
22945.312500; 6.96439E-5
22951.171875; 7.96326E-5
22957.031250; 8.23998E-5
22962.890625; 6.56937E-5
22968.750000; 6.60255E-5
22974.609375; 6.09846E-5
22980.468750; 7.08072E-5
22986.328125; 7.55853E-5
22992.187500; 7.03787E-5
22998.046875; 7.87581E-5
23003.906250; 7.28336E-5
23009.765625; 7.48134E-5
23015.625000; 7.57938E-5
23021.484375; 7.47626E-5
23027.343750; 7.99831E-5
23033.203125; 8.55880E-5
23039.062500; 7.61395E-5
23044.921875; 6.52231E-5
23050.781250; 6.60412E-5
23056.640625; 7.07533E-5
23062.500000; 8.06169E-5
23068.359375; 7.92264E-5
23074.218750; 7.81335E-5
23080.078125; 7.90604E-5
23085.937500; 8.24943E-5
23091.796875; 8.21978E-5
23097.656250; 7.02437E-5
23103.515625; 6.84017E-5
23109.375000; 7.25969E-5
23115.234375; 7.00290E-5
23121.093750; 7.84454E-5
23126.953125; 7.45123E-5
23132.812500; 6.24616E-5
23138.671875; 6.46412E-5
23144.531250; 6.30324E-5
23150.390625; 6.55381E-5
23156.250000; 6.69432E-5
23162.109375; 7.04139E-5
23167.968750; 7.32253E-5
23173.828125; 7.58484E-5
23179.687500; 6.05328E-5
23185.546875; 6.39011E-5
23191.406250; 7.28995E-5
23197.265625; 7.51308E-5
23203.125000; 6.36153E-5
23208.984375; 6.57486E-5
23214.843750; 6.37303E-5
23220.703125; 6.55586E-5
23226.562500; 6.61806E-5
23232.421875; 6.89827E-5
23238.281250; 6.92097E-5
23244.140625; 6.05650E-5
23250.000000; 6.16579E-5
23255.859375; 6.80726E-5
23261.718750; 7.26507E-5
23267.578125; 6.65912E-5
23273.437500; 6.28593E-5
23279.296875; 7.11337E-5
23285.156250; 6.72452E-5
23291.015625; 5.84630E-5
23296.875000; 6.26253E-5
23302.734375; 6.83914E-5
23308.593750; 6.63181E-5
23314.453125; 5.90429E-5
23320.312500; 5.61054E-5
23326.171875; 5.60771E-5
23332.031250; 5.97069E-5
23337.890625; 6.27139E-5
23343.750000; 6.51433E-5
23349.609375; 6.62357E-5
23355.468750; 6.08202E-5
23361.328125; 6.18433E-5
23367.187500; 6.29975E-5
23373.046875; 5.84983E-5
23378.906250; 5.47202E-5
23384.765625; 5.37897E-5
23390.625000; 6.27865E-5
23396.484375; 6.25040E-5
23402.343750; 5.65701E-5
23408.203125; 5.65622E-5
23414.062500; 5.85733E-5
23419.921875; 5.92773E-5
23425.781250; 5.27615E-5
23431.640625; 5.63191E-5
23437.500000; 5.74989E-5
23443.359375; 5.43482E-5
23449.218750; 5.41100E-5
23455.078125; 5.76989E-5
23460.937500; 5.44230E-5
23466.796875; 5.43848E-5
23472.656250; 5.39222E-5
23478.515625; 4.93992E-5
23484.375000; 4.89579E-5
23490.234375; 5.22109E-5
23496.093750; 4.69172E-5
23501.953125; 4.72369E-5
23507.812500; 4.71508E-5
23513.671875; 4.70013E-5
23519.531250; 4.88754E-5
23525.390625; 6.08736E-5
23531.250000; 5.81382E-5
23537.109375; 5.49122E-5
23542.968750; 5.77491E-5
23548.828125; 5.44155E-5
23554.687500; 4.78527E-5
23560.546875; 4.59465E-5
23566.406250; 4.76782E-5
23572.265625; 4.92409E-5
23578.125000; 4.74058E-5
23583.984375; 5.13051E-5
23589.843750; 5.85612E-5
23595.703125; 5.17899E-5
23601.562500; 5.05134E-5
23607.421875; 4.23329E-5
23613.281250; 4.12010E-5
23619.140625; 4.63655E-5
23625.000000; 5.12159E-5
23630.859375; 4.57005E-5
23636.718750; 4.50902E-5
23642.578125; 4.17885E-5
23648.437500; 4.36659E-5
23654.296875; 4.70164E-5
23660.156250; 4.39698E-5
23666.015625; 4.00093E-5
23671.875000; 3.81492E-5
23677.734375; 4.32107E-5
23683.593750; 4.12644E-5
23689.453125; 4.16660E-5
23695.312500; 4.14284E-5
23701.171875; 3.87408E-5
23707.031250; 4.00389E-5
23712.890625; 3.83986E-5
23718.750000; 3.89521E-5
23724.609375; 3.81752E-5
23730.468750; 3.78880E-5
23736.328125; 3.86150E-5
23742.187500; 3.78786E-5
23748.046875; 3.53128E-5
23753.906250; 3.65907E-5
23759.765625; 3.67176E-5
23765.625000; 4.06844E-5
23771.484375; 4.03205E-5
23777.343750; 4.13653E-5
23783.203125; 4.64591E-5
23789.062500; 4.29206E-5
23794.921875; 3.89125E-5
23800.781250; 3.95106E-5
23806.640625; 3.43834E-5
23812.500000; 3.95725E-5
23818.359375; 3.69217E-5
23824.218750; 3.74311E-5
23830.078125; 3.83951E-5
23835.937500; 4.08105E-5
23841.796875; 4.35882E-5
23847.656250; 3.68520E-5
23853.515625; 3.77857E-5
23859.375000; 3.52012E-5
23865.234375; 2.97456E-5
23871.093750; 2.96833E-5
23876.953125; 3.43051E-5
23882.812500; 3.40417E-5
23888.671875; 3.73874E-5
23894.531250; 3.78087E-5
23900.390625; 3.51574E-5
23906.250000; 3.35163E-5
23912.109375; 3.68847E-5
23917.968750; 4.18385E-5
23923.828125; 3.80714E-5
23929.687500; 3.72538E-5
23935.546875; 3.53319E-5
23941.406250; 3.73361E-5
23947.265625; 3.73361E-5
23953.125000; 3.77132E-5
23958.984375; 3.86460E-5
23964.843750; 3.67556E-5
23970.703125; 3.53357E-5
23976.562500; 3.70689E-5
23982.421875; 3.54918E-5
23988.281250; 3.25677E-5
23994.140625; 3.15751E-5
