* Measurement data measured by REW V5.31.3
* Source: PCM: default, no input selected, 2, volume: no control
* Format: 8192-point spectrum using Hann window and exponential averaging 0.97 
* Dated: Mar 9, 2025 12:55:56 PM
* REW Settings:
*  C-weighting compensation: Off
*  Target level: 75.0 dB
* Note: OSDEHA ANODE-OUTPUT; 8192-point spectrum using Hann window and exponential averaging 0.97  Input RMS 23.69 V 23.69 VC, 23.69 VA 23.69 V 22 - 22k UNW 878.9 uV >22k Distortion at 1,000.0 Hz, -12.51 dBFS: Gain: 29.34 dB THD: 0.019 % based on 21 harmonics  [0..22800 Hz] HHD: 0.0016 %  [10 .. 22] N: 0.053 %  [0..22800 Hz] N+D: 6.595 mV A THD+N: 0.057 %  [0..22800 Hz] SNR: 65.5 dB ENOB: 13.1 bits 2nd harmonic 0.019 % -150 deg 3rd harmonic 0.0021 % 17 deg 4th harmonic 0.00054 % 31 deg 5th harmonic 0.00050 % 86 deg 6th harmonic 0.00045 % 132 deg 7th harmonic 0.00045 % 131 deg 8th harmonic 0.00042 % -161 deg 9th harmonic 0.00046 % -127 deg 
* Measurement: OSDEGA A-OUT 23.7
* Smoothing: None
* Frequency Step: 5.859375 Hz
* Start Frequency: 5.859375 Hz
*
* Freq(Hz); V(V)
5.859375; 2.47019E-4
11.718750; 2.57740E-4
17.578125; 2.06309E-4
23.437500; 1.64884E-4
29.296875; 1.68449E-4
35.156250; 1.51740E-4
41.015625; 1.55389E-4
46.875000; 3.80924E-4
52.734375; 3.86157E-4
58.593750; 1.42449E-4
64.453125; 1.33267E-4
70.312500; 1.31764E-4
76.171875; 1.23352E-4
82.031250; 1.42869E-4
87.890625; 1.74574E-4
93.750000; 5.11011E-3
99.609375; 1.13489E-2
105.468750; 6.29269E-3
111.328125; 2.05732E-4
117.187500; 1.31676E-4
123.046875; 1.38170E-4
128.906250; 1.28342E-4
134.765625; 1.20549E-4
140.625000; 1.20725E-4
146.484375; 1.50865E-4
152.343750; 1.55156E-4
158.203125; 1.33325E-4
164.062500; 1.24066E-4
169.921875; 1.16614E-4
175.781250; 1.17820E-4
181.640625; 1.17215E-4
187.500000; 1.24030E-4
193.359375; 5.96962E-4
199.218750; 1.48262E-3
205.078125; 9.10663E-4
210.937500; 1.27016E-4
216.796875; 1.16652E-4
222.656250; 1.05720E-4
228.515625; 9.99123E-5
234.375000; 1.11928E-4
240.234375; 1.13833E-4
246.093750; 1.45427E-4
251.953125; 1.52767E-4
257.812500; 1.12746E-4
263.671875; 1.13744E-4
269.531250; 1.24258E-4
275.390625; 1.16726E-4
281.250000; 1.11511E-4
287.109375; 1.26722E-4
292.968750; 1.42371E-4
298.828125; 2.80264E-4
304.687500; 2.22595E-4
310.546875; 1.26194E-4
316.406250; 1.15809E-4
322.265625; 1.08778E-4
328.125000; 1.09157E-4
333.984375; 1.16915E-4
339.843750; 1.07612E-4
345.703125; 1.32750E-4
351.562500; 1.61328E-4
357.421875; 1.08890E-4
363.281250; 9.86899E-5
369.140625; 1.04293E-4
375.000000; 1.01434E-4
380.859375; 9.90229E-5
386.718750; 1.17493E-4
392.578125; 1.80499E-4
398.437500; 4.57161E-4
404.296875; 3.52753E-4
410.156250; 1.25083E-4
416.015625; 1.12358E-4
421.875000; 9.80793E-5
427.734375; 1.08496E-4
433.593750; 1.21898E-4
439.453125; 1.18150E-4
445.312500; 1.22466E-4
451.171875; 1.31316E-4
457.031250; 1.45613E-4
462.890625; 1.40886E-4
468.750000; 1.15866E-4
474.609375; 1.16274E-4
480.468750; 1.20339E-4
486.328125; 1.21128E-4
492.187500; 1.41899E-4
498.046875; 2.95040E-4
503.906250; 2.41719E-4
509.765625; 1.08646E-4
515.625000; 1.07156E-4
521.484375; 1.09062E-4
527.343750; 1.07632E-4
533.203125; 1.01578E-4
539.062500; 1.14104E-4
544.921875; 1.03665E-4
550.781250; 1.13801E-4
556.640625; 1.04014E-4
562.500000; 1.12842E-4
568.359375; 1.15637E-4
574.218750; 1.13472E-4
580.078125; 1.07519E-4
585.937500; 1.00148E-4
591.796875; 1.03398E-4
597.656250; 1.19482E-4
603.515625; 1.20174E-4
609.375000; 1.07579E-4
615.234375; 1.06402E-4
621.093750; 1.13704E-4
626.953125; 1.14571E-4
632.812500; 1.00135E-4
638.671875; 1.14410E-4
644.531250; 1.15884E-4
650.390625; 1.17799E-4
656.250000; 1.02168E-4
662.109375; 1.00324E-4
667.968750; 1.17132E-4
673.828125; 1.20224E-4
679.687500; 1.17827E-4
685.546875; 1.13381E-4
691.406250; 1.18111E-4
697.265625; 1.94901E-4
703.125000; 2.04336E-4
708.984375; 1.35429E-4
714.843750; 1.28111E-4
720.703125; 1.23760E-4
726.562500; 1.32799E-4
732.421875; 1.20241E-4
738.281250; 1.33863E-4
744.140625; 1.47135E-4
750.000000; 1.59874E-4
755.859375; 1.38013E-4
761.718750; 1.39113E-4
767.578125; 1.69139E-4
773.437500; 1.68172E-4
779.296875; 1.57073E-4
785.156250; 1.68439E-4
791.015625; 1.96032E-4
796.875000; 2.04298E-4
802.734375; 2.43596E-4
808.593750; 2.12415E-4
814.453125; 2.35138E-4
820.312500; 2.53191E-4
826.171875; 2.64694E-4
832.031250; 3.00000E-4
837.890625; 3.31878E-4
843.750000; 3.53326E-4
849.609375; 4.15073E-4
855.468750; 4.39373E-4
861.328125; 5.12250E-4
867.187500; 5.74025E-4
873.046875; 6.56484E-4
878.906250; 7.28742E-4
884.765625; 8.95129E-4
890.625000; 9.89337E-4
896.484375; 1.22278E-3
902.343750; 1.39245E-3
908.203125; 1.73062E-3
914.062500; 2.07518E-3
919.921875; 2.58113E-3
925.781250; 3.22286E-3
931.640625; 4.15273E-3
937.500000; 5.42608E-3
943.359375; 7.31343E-3
949.218750; 1.01827E-2
955.078125; 1.47239E-2
960.937500; 2.25582E-2
966.796875; 3.70546E-2
972.656250; 6.73451E-2
978.515625; 1.43147E-1
984.375000; 4.00779E-1
990.234375; 2.20431E0
996.093750; 1.76345E1
1001.953125; 2.20431E1
1007.812500; 6.29805E0
1013.671875; 6.29789E-1
1019.531250; 1.93787E-1
1025.390625; 8.47800E-2
1031.250000; 4.46324E-2
1037.109375; 2.63634E-2
1042.968750; 1.68699E-2
1048.828125; 1.14598E-2
1054.687500; 8.11888E-3
1060.546875; 5.97593E-3
1066.406250; 4.53300E-3
1072.265625; 3.50318E-3
1078.125000; 2.76260E-3
1083.984375; 2.24490E-3
1089.843750; 1.81095E-3
1095.703125; 1.51863E-3
1101.562500; 1.26834E-3
1107.421875; 1.05556E-3
1113.281250; 9.28714E-4
1119.140625; 7.79378E-4
1125.000000; 6.77440E-4
1130.859375; 6.01562E-4
1136.718750; 5.25347E-4
1142.578125; 4.66270E-4
1148.437500; 4.04763E-4
1154.296875; 3.86569E-4
1160.156250; 3.28186E-4
1166.015625; 3.17000E-4
1171.875000; 2.77854E-4
1177.734375; 2.76100E-4
1183.593750; 2.10603E-4
1189.453125; 2.44340E-4
1195.312500; 2.05351E-4
1201.171875; 2.04172E-4
1207.031250; 1.75231E-4
1212.890625; 1.75147E-4
1218.750000; 1.49638E-4
1224.609375; 1.66061E-4
1230.468750; 1.44287E-4
1236.328125; 1.40292E-4
1242.187500; 1.53381E-4
1248.046875; 1.44454E-4
1253.906250; 1.38763E-4
1259.765625; 1.29054E-4
1265.625000; 1.21095E-4
1271.484375; 1.27639E-4
1277.343750; 1.20572E-4
1283.203125; 1.16545E-4
1289.062500; 1.24233E-4
1294.921875; 1.16965E-4
1300.781250; 1.17779E-4
1306.640625; 1.16488E-4
1312.500000; 1.16419E-4
1318.359375; 1.20299E-4
1324.218750; 1.23401E-4
1330.078125; 1.08533E-4
1335.937500; 1.07417E-4
1341.796875; 1.04335E-4
1347.656250; 1.07353E-4
1353.515625; 1.08314E-4
1359.375000; 1.12591E-4
1365.234375; 1.10797E-4
1371.093750; 1.06218E-4
1376.953125; 1.13363E-4
1382.812500; 1.06485E-4
1388.671875; 1.15488E-4
1394.531250; 1.05337E-4
1400.390625; 1.17224E-4
1406.250000; 1.05950E-4
1412.109375; 9.44805E-5
1417.968750; 9.74799E-5
1423.828125; 9.86701E-5
1429.687500; 1.04300E-4
1435.546875; 1.12228E-4
1441.406250; 1.12792E-4
1447.265625; 1.08827E-4
1453.125000; 1.12105E-4
1458.984375; 1.02873E-4
1464.843750; 9.82711E-5
1470.703125; 1.05073E-4
1476.562500; 1.05815E-4
1482.421875; 9.88596E-5
1488.281250; 1.07692E-4
1494.140625; 1.02088E-4
1500.000000; 1.06858E-4
1505.859375; 1.07989E-4
1511.718750; 1.11759E-4
1517.578125; 1.08060E-4
1523.437500; 1.03026E-4
1529.296875; 9.91584E-5
1535.156250; 9.44008E-5
1541.015625; 9.70405E-5
1546.875000; 1.10556E-4
1552.734375; 1.08401E-4
1558.593750; 1.12257E-4
1564.453125; 9.89854E-5
1570.312500; 9.13869E-5
1576.171875; 9.97647E-5
1582.031250; 1.14959E-4
1587.890625; 1.09639E-4
1593.750000; 1.08551E-4
1599.609375; 1.13043E-4
1605.468750; 1.08570E-4
1611.328125; 1.03863E-4
1617.187500; 1.08204E-4
1623.046875; 1.06671E-4
1628.906250; 1.04280E-4
1634.765625; 1.10196E-4
1640.625000; 1.14401E-4
1646.484375; 1.13616E-4
1652.343750; 1.01204E-4
1658.203125; 9.43948E-5
1664.062500; 9.27057E-5
1669.921875; 1.08537E-4
1675.781250; 1.12689E-4
1681.640625; 9.87152E-5
1687.500000; 9.74827E-5
1693.359375; 1.04036E-4
1699.218750; 1.15301E-4
1705.078125; 1.23508E-4
1710.937500; 1.13929E-4
1716.796875; 1.02552E-4
1722.656250; 9.78836E-5
1728.515625; 9.92661E-5
1734.375000; 1.03656E-4
1740.234375; 9.52689E-5
1746.093750; 1.01168E-4
1751.953125; 1.06446E-4
1757.812500; 1.03707E-4
1763.671875; 1.03588E-4
1769.531250; 1.07851E-4
1775.390625; 1.09727E-4
1781.250000; 1.17825E-4
1787.109375; 1.11192E-4
1792.968750; 1.17275E-4
1798.828125; 1.20091E-4
1804.687500; 1.14919E-4
1810.546875; 1.16545E-4
1816.406250; 1.10367E-4
1822.265625; 1.07694E-4
1828.125000; 1.05820E-4
1833.984375; 1.07748E-4
1839.843750; 9.66456E-5
1845.703125; 1.07183E-4
1851.562500; 1.11110E-4
1857.421875; 1.07180E-4
1863.281250; 9.77135E-5
1869.140625; 1.06927E-4
1875.000000; 1.11605E-4
1880.859375; 1.15083E-4
1886.718750; 1.13118E-4
1892.578125; 1.12773E-4
1898.437500; 1.11893E-4
1904.296875; 1.00920E-4
1910.156250; 1.00297E-4
1916.015625; 1.04497E-4
1921.875000; 1.05451E-4
1927.734375; 1.05785E-4
1933.593750; 1.00917E-4
1939.453125; 1.06618E-4
1945.312500; 1.06479E-4
1951.171875; 1.07131E-4
1957.031250; 1.08636E-4
1962.890625; 1.15109E-4
1968.750000; 1.27534E-4
1974.609375; 1.20091E-4
1980.468750; 1.23854E-4
1986.328125; 1.61025E-4
1992.187500; 1.17844E-3
1998.046875; 4.11002E-3
2003.906250; 3.29587E-3
2009.765625; 4.44411E-4
2015.625000; 1.26888E-4
2021.484375; 1.09549E-4
2027.343750; 1.03409E-4
2033.203125; 1.08051E-4
2039.062500; 1.10791E-4
2044.921875; 1.09222E-4
2050.781250; 1.12402E-4
2056.640625; 1.12730E-4
2062.500000; 1.11772E-4
2068.359375; 1.07944E-4
2074.218750; 1.08106E-4
2080.078125; 1.21951E-4
2085.937500; 1.21574E-4
2091.796875; 1.08123E-4
2097.656250; 1.17017E-4
2103.515625; 1.16204E-4
2109.375000; 1.07813E-4
2115.234375; 9.78072E-5
2121.093750; 9.69833E-5
2126.953125; 1.14685E-4
2132.812500; 1.10866E-4
2138.671875; 9.38920E-5
2144.531250; 1.00692E-4
2150.390625; 1.13558E-4
2156.250000; 1.17616E-4
2162.109375; 1.09987E-4
2167.968750; 1.11889E-4
2173.828125; 1.01780E-4
2179.687500; 9.72977E-5
2185.546875; 9.45975E-5
2191.406250; 1.03666E-4
2197.265625; 1.14664E-4
2203.125000; 1.15250E-4
2208.984375; 1.08895E-4
2214.843750; 1.08499E-4
2220.703125; 1.01414E-4
2226.562500; 1.08496E-4
2232.421875; 1.06181E-4
2238.281250; 1.00947E-4
2244.140625; 1.04690E-4
2250.000000; 1.04872E-4
2255.859375; 1.13986E-4
2261.718750; 1.14082E-4
2267.578125; 1.10490E-4
2273.437500; 1.16396E-4
2279.296875; 1.12801E-4
2285.156250; 9.88366E-5
2291.015625; 9.75887E-5
2296.875000; 1.12582E-4
2302.734375; 1.05053E-4
2308.593750; 1.03048E-4
2314.453125; 9.94153E-5
2320.312500; 1.02186E-4
2326.171875; 1.03172E-4
2332.031250; 1.03491E-4
2337.890625; 1.02346E-4
2343.750000; 1.03525E-4
2349.609375; 1.22443E-4
2355.468750; 1.19960E-4
2361.328125; 1.10745E-4
2367.187500; 1.10402E-4
2373.046875; 1.08334E-4
2378.906250; 1.05966E-4
2384.765625; 9.62886E-5
2390.625000; 9.26400E-5
2396.484375; 1.01010E-4
2402.343750; 1.15956E-4
2408.203125; 1.09769E-4
2414.062500; 1.04939E-4
2419.921875; 1.04501E-4
2425.781250; 1.17749E-4
2431.640625; 1.04249E-4
2437.500000; 1.15701E-4
2443.359375; 1.17241E-4
2449.218750; 1.26211E-4
2455.078125; 1.20872E-4
2460.937500; 1.12219E-4
2466.796875; 1.16314E-4
2472.656250; 1.10975E-4
2478.515625; 1.09533E-4
2484.375000; 1.03724E-4
2490.234375; 1.15631E-4
2496.093750; 9.87860E-5
2501.953125; 9.82476E-5
2507.812500; 1.13717E-4
2513.671875; 1.23302E-4
2519.531250; 1.10793E-4
2525.390625; 1.07213E-4
2531.250000; 1.02470E-4
2537.109375; 1.03939E-4
2542.968750; 1.00735E-4
2548.828125; 1.06535E-4
2554.687500; 1.10583E-4
2560.546875; 1.01836E-4
2566.406250; 1.03441E-4
2572.265625; 9.57457E-5
2578.125000; 1.00397E-4
2583.984375; 1.11704E-4
2589.843750; 9.33116E-5
2595.703125; 9.93738E-5
2601.562500; 1.04328E-4
2607.421875; 1.06290E-4
2613.281250; 1.06619E-4
2619.140625; 1.02662E-4
2625.000000; 1.12101E-4
2630.859375; 1.09809E-4
2636.718750; 1.11761E-4
2642.578125; 9.71730E-5
2648.437500; 1.02689E-4
2654.296875; 1.06201E-4
2660.156250; 1.07212E-4
2666.015625; 9.96459E-5
2671.875000; 9.80503E-5
2677.734375; 1.12426E-4
2683.593750; 1.19873E-4
2689.453125; 1.10857E-4
2695.312500; 1.08302E-4
2701.171875; 1.02793E-4
2707.031250; 9.48800E-5
2712.890625; 9.99884E-5
2718.750000; 1.05812E-4
2724.609375; 1.07834E-4
2730.468750; 1.10425E-4
2736.328125; 1.11222E-4
2742.187500; 1.13220E-4
2748.046875; 1.13979E-4
2753.906250; 1.14161E-4
2759.765625; 1.12302E-4
2765.625000; 1.09721E-4
2771.484375; 9.69091E-5
2777.343750; 1.06005E-4
2783.203125; 1.16866E-4
2789.062500; 1.01589E-4
2794.921875; 1.03625E-4
2800.781250; 1.05772E-4
2806.640625; 1.06663E-4
2812.500000; 1.02423E-4
2818.359375; 1.00385E-4
2824.218750; 1.12444E-4
2830.078125; 1.10210E-4
2835.937500; 1.09015E-4
2841.796875; 1.15446E-4
2847.656250; 1.09651E-4
2853.515625; 1.04996E-4
2859.375000; 1.00986E-4
2865.234375; 1.05509E-4
2871.093750; 1.10753E-4
2876.953125; 1.08791E-4
2882.812500; 1.13043E-4
2888.671875; 1.04174E-4
2894.531250; 1.02850E-4
2900.390625; 1.13180E-4
2906.250000; 1.03341E-4
2912.109375; 1.01027E-4
2917.968750; 1.04204E-4
2923.828125; 1.12957E-4
2929.687500; 1.17494E-4
2935.546875; 1.04412E-4
2941.406250; 1.08701E-4
2947.265625; 1.03627E-4
2953.125000; 1.05703E-4
2958.984375; 1.06090E-4
2964.843750; 1.07345E-4
2970.703125; 1.15146E-4
2976.562500; 1.24033E-4
2982.421875; 1.17737E-4
2988.281250; 1.09545E-4
2994.140625; 2.32854E-4
3000.000000; 4.39123E-4
3005.859375; 2.43707E-4
3011.718750; 1.03560E-4
3017.578125; 1.10475E-4
3023.437500; 1.10325E-4
3029.296875; 1.09603E-4
3035.156250; 1.08675E-4
3041.015625; 9.93530E-5
3046.875000; 1.02337E-4
3052.734375; 9.95886E-5
3058.593750; 1.04246E-4
3064.453125; 1.12267E-4
3070.312500; 1.14566E-4
3076.171875; 1.18059E-4
3082.031250; 1.01793E-4
3087.890625; 1.05911E-4
3093.750000; 1.14819E-4
3099.609375; 1.14960E-4
3105.468750; 9.56972E-5
3111.328125; 9.84361E-5
3117.187500; 1.11112E-4
3123.046875; 1.05231E-4
3128.906250; 1.07154E-4
3134.765625; 1.01607E-4
3140.625000; 1.10626E-4
3146.484375; 1.20342E-4
3152.343750; 1.10039E-4
3158.203125; 1.04944E-4
3164.062500; 9.46909E-5
3169.921875; 1.07029E-4
3175.781250; 1.08735E-4
3181.640625; 1.05512E-4
3187.500000; 1.15298E-4
3193.359375; 9.87303E-5
3199.218750; 1.03733E-4
3205.078125; 1.14506E-4
3210.937500; 1.09296E-4
3216.796875; 9.97644E-5
3222.656250; 1.00940E-4
3228.515625; 1.06525E-4
3234.375000; 1.08086E-4
3240.234375; 1.04179E-4
3246.093750; 1.01890E-4
3251.953125; 1.02831E-4
3257.812500; 1.00759E-4
3263.671875; 1.03564E-4
3269.531250; 1.03895E-4
3275.390625; 1.05482E-4
3281.250000; 1.02616E-4
3287.109375; 9.73904E-5
3292.968750; 9.80527E-5
3298.828125; 1.00509E-4
3304.687500; 1.04103E-4
3310.546875; 1.11353E-4
3316.406250; 1.11290E-4
3322.265625; 1.12508E-4
3328.125000; 1.12498E-4
3333.984375; 1.08025E-4
3339.843750; 1.06491E-4
3345.703125; 9.23956E-5
3351.562500; 9.93699E-5
3357.421875; 9.95899E-5
3363.281250; 1.04246E-4
3369.140625; 1.08228E-4
3375.000000; 1.00982E-4
3380.859375; 1.06191E-4
3386.718750; 1.04990E-4
3392.578125; 1.07065E-4
3398.437500; 1.18616E-4
3404.296875; 1.13529E-4
3410.156250; 1.08554E-4
3416.015625; 1.13288E-4
3421.875000; 1.01674E-4
3427.734375; 9.48998E-5
3433.593750; 9.67659E-5
3439.453125; 1.02363E-4
3445.312500; 1.08210E-4
3451.171875; 1.01996E-4
3457.031250; 1.11348E-4
3462.890625; 1.04202E-4
3468.750000; 1.05668E-4
3474.609375; 1.18031E-4
3480.468750; 1.03242E-4
3486.328125; 1.04507E-4
3492.187500; 1.14559E-4
3498.046875; 1.13878E-4
3503.906250; 1.12772E-4
3509.765625; 1.17266E-4
3515.625000; 1.07386E-4
3521.484375; 9.57193E-5
3527.343750; 9.64098E-5
3533.203125; 1.05173E-4
3539.062500; 1.17369E-4
3544.921875; 1.17034E-4
3550.781250; 1.04678E-4
3556.640625; 1.10482E-4
3562.500000; 1.05018E-4
3568.359375; 1.04881E-4
3574.218750; 1.07128E-4
3580.078125; 1.06390E-4
3585.937500; 1.08949E-4
3591.796875; 1.00654E-4
3597.656250; 1.05055E-4
3603.515625; 1.03904E-4
3609.375000; 9.42490E-5
3615.234375; 1.01040E-4
3621.093750; 1.06280E-4
3626.953125; 1.03950E-4
3632.812500; 9.66800E-5
3638.671875; 1.04581E-4
3644.531250; 1.07125E-4
3650.390625; 1.02333E-4
3656.250000; 1.08610E-4
3662.109375; 1.02794E-4
3667.968750; 9.50490E-5
3673.828125; 1.10809E-4
3679.687500; 1.02900E-4
3685.546875; 1.00095E-4
3691.406250; 9.85893E-5
3697.265625; 9.98667E-5
3703.125000; 9.46737E-5
3708.984375; 1.01939E-4
3714.843750; 9.61947E-5
3720.703125; 1.04262E-4
3726.562500; 1.08118E-4
3732.421875; 1.00636E-4
3738.281250; 9.71520E-5
3744.140625; 1.03272E-4
3750.000000; 1.13957E-4
3755.859375; 1.00083E-4
3761.718750; 1.00211E-4
3767.578125; 1.15827E-4
3773.437500; 1.04517E-4
3779.296875; 9.47950E-5
3785.156250; 1.02838E-4
3791.015625; 1.04440E-4
3796.875000; 9.92117E-5
3802.734375; 9.36066E-5
3808.593750; 1.01265E-4
3814.453125; 1.03408E-4
3820.312500; 1.11937E-4
3826.171875; 1.23823E-4
3832.031250; 1.16873E-4
3837.890625; 1.07325E-4
3843.750000; 1.02125E-4
3849.609375; 1.04836E-4
3855.468750; 1.04317E-4
3861.328125; 1.06666E-4
3867.187500; 1.09841E-4
3873.046875; 1.04570E-4
3878.906250; 1.04293E-4
3884.765625; 1.04330E-4
3890.625000; 1.00014E-4
3896.484375; 9.88026E-5
3902.343750; 1.00458E-4
3908.203125; 1.07844E-4
3914.062500; 1.00428E-4
3919.921875; 1.01481E-4
3925.781250; 1.04054E-4
3931.640625; 1.06832E-4
3937.500000; 1.10501E-4
3943.359375; 1.15815E-4
3949.218750; 1.10609E-4
3955.078125; 1.02746E-4
3960.937500; 1.18029E-4
3966.796875; 1.16369E-4
3972.656250; 1.00480E-4
3978.515625; 1.08284E-4
3984.375000; 1.11828E-4
3990.234375; 9.61782E-5
3996.093750; 1.43741E-4
4001.953125; 1.63115E-4
4007.812500; 1.19710E-4
4013.671875; 9.47174E-5
4019.531250; 9.81051E-5
4025.390625; 1.06414E-4
4031.250000; 1.04412E-4
4037.109375; 1.06640E-4
4042.968750; 1.06852E-4
4048.828125; 1.03366E-4
4054.687500; 1.04164E-4
4060.546875; 1.11924E-4
4066.406250; 1.11454E-4
4072.265625; 1.10186E-4
4078.125000; 1.11576E-4
4083.984375; 1.04252E-4
4089.843750; 1.04159E-4
4095.703125; 1.08236E-4
4101.562500; 1.14102E-4
4107.421875; 1.09849E-4
4113.281250; 9.56639E-5
4119.140625; 9.58398E-5
4125.000000; 9.64793E-5
4130.859375; 1.03018E-4
4136.718750; 1.01251E-4
4142.578125; 9.75624E-5
4148.437500; 1.05206E-4
4154.296875; 1.01143E-4
4160.156250; 9.46629E-5
4166.015625; 1.18773E-4
4171.875000; 1.12166E-4
4177.734375; 1.09435E-4
4183.593750; 1.04240E-4
4189.453125; 1.11618E-4
4195.312500; 1.09534E-4
4201.171875; 1.09703E-4
4207.031250; 1.11427E-4
4212.890625; 1.15959E-4
4218.750000; 1.07483E-4
4224.609375; 9.94041E-5
4230.468750; 1.00874E-4
4236.328125; 1.06802E-4
4242.187500; 9.83704E-5
4248.046875; 1.09432E-4
4253.906250; 1.03920E-4
4259.765625; 1.04949E-4
4265.625000; 1.14517E-4
4271.484375; 1.07184E-4
4277.343750; 1.01940E-4
4283.203125; 1.05592E-4
4289.062500; 1.08459E-4
4294.921875; 1.04586E-4
4300.781250; 9.50576E-5
4306.640625; 1.07292E-4
4312.500000; 1.01062E-4
4318.359375; 1.05095E-4
4324.218750; 1.11656E-4
4330.078125; 1.09671E-4
4335.937500; 9.99354E-5
4341.796875; 1.00591E-4
4347.656250; 1.00216E-4
4353.515625; 1.11797E-4
4359.375000; 9.91258E-5
4365.234375; 9.83883E-5
4371.093750; 1.02990E-4
4376.953125; 9.99241E-5
4382.812500; 1.05691E-4
4388.671875; 1.03153E-4
4394.531250; 1.06298E-4
4400.390625; 1.09997E-4
4406.250000; 1.10074E-4
4412.109375; 1.09084E-4
4417.968750; 1.18700E-4
4423.828125; 1.22362E-4
4429.687500; 1.18906E-4
4435.546875; 1.15699E-4
4441.406250; 1.12969E-4
4447.265625; 1.14240E-4
4453.125000; 1.12052E-4
4458.984375; 1.00747E-4
4464.843750; 1.02121E-4
4470.703125; 1.08724E-4
4476.562500; 1.04730E-4
4482.421875; 1.13891E-4
4488.281250; 1.10909E-4
4494.140625; 1.12126E-4
4500.000000; 1.09167E-4
4505.859375; 9.47439E-5
4511.718750; 1.00840E-4
4517.578125; 1.00482E-4
4523.437500; 1.01938E-4
4529.296875; 1.07901E-4
4535.156250; 1.16469E-4
4541.015625; 1.03384E-4
4546.875000; 1.06084E-4
4552.734375; 1.12338E-4
4558.593750; 1.05618E-4
4564.453125; 1.03674E-4
4570.312500; 9.79592E-5
4576.171875; 9.66367E-5
4582.031250; 1.08585E-4
4587.890625; 1.08632E-4
4593.750000; 1.10701E-4
4599.609375; 1.04609E-4
4605.468750; 1.08813E-4
4611.328125; 1.07791E-4
4617.187500; 1.05139E-4
4623.046875; 1.07003E-4
4628.906250; 1.08068E-4
4634.765625; 1.05383E-4
4640.625000; 1.07821E-4
4646.484375; 1.03117E-4
4652.343750; 9.57027E-5
4658.203125; 9.18585E-5
4664.062500; 1.01478E-4
4669.921875; 1.06254E-4
4675.781250; 9.56635E-5
4681.640625; 1.03804E-4
4687.500000; 1.05329E-4
4693.359375; 1.07505E-4
4699.218750; 1.03633E-4
4705.078125; 9.72982E-5
4710.937500; 1.12108E-4
4716.796875; 1.12626E-4
4722.656250; 1.16081E-4
4728.515625; 1.10194E-4
4734.375000; 1.02976E-4
4740.234375; 9.76651E-5
4746.093750; 9.64590E-5
4751.953125; 9.11249E-5
4757.812500; 1.06469E-4
4763.671875; 1.09322E-4
4769.531250; 1.07957E-4
4775.390625; 1.02730E-4
4781.250000; 9.40132E-5
4787.109375; 1.07465E-4
4792.968750; 1.07375E-4
4798.828125; 1.00284E-4
4804.687500; 1.06917E-4
4810.546875; 1.01567E-4
4816.406250; 1.06845E-4
4822.265625; 9.85468E-5
4828.125000; 9.61302E-5
4833.984375; 1.07784E-4
4839.843750; 1.12402E-4
4845.703125; 1.05665E-4
4851.562500; 9.45705E-5
4857.421875; 1.04218E-4
4863.281250; 1.07003E-4
4869.140625; 1.06628E-4
4875.000000; 9.96844E-5
4880.859375; 9.93148E-5
4886.718750; 9.95470E-5
4892.578125; 1.12157E-4
4898.437500; 1.08465E-4
4904.296875; 1.08545E-4
4910.156250; 1.13614E-4
4916.015625; 1.01767E-4
4921.875000; 1.01040E-4
4927.734375; 1.08066E-4
4933.593750; 1.05553E-4
4939.453125; 9.93944E-5
4945.312500; 1.00336E-4
4951.171875; 1.06026E-4
4957.031250; 1.04224E-4
4962.890625; 1.07500E-4
4968.750000; 1.03170E-4
4974.609375; 9.81451E-5
4980.468750; 1.04528E-4
4986.328125; 1.05682E-4
4992.187500; 1.00919E-4
4998.046875; 1.39002E-4
5003.906250; 1.36415E-4
5009.765625; 1.07576E-4
5015.625000; 1.01268E-4
5021.484375; 9.43013E-5
5027.343750; 1.02166E-4
5033.203125; 1.05727E-4
5039.062500; 9.45814E-5
5044.921875; 1.00219E-4
5050.781250; 1.01575E-4
5056.640625; 9.84146E-5
5062.500000; 9.96648E-5
5068.359375; 1.01022E-4
5074.218750; 9.93085E-5
5080.078125; 1.05031E-4
5085.937500; 1.14873E-4
5091.796875; 1.07073E-4
5097.656250; 1.08694E-4
5103.515625; 1.14111E-4
5109.375000; 1.10595E-4
5115.234375; 1.11496E-4
5121.093750; 1.07823E-4
5126.953125; 1.03947E-4
5132.812500; 9.83788E-5
5138.671875; 9.37930E-5
5144.531250; 9.64960E-5
5150.390625; 1.03820E-4
5156.250000; 1.06912E-4
5162.109375; 1.07318E-4
5167.968750; 1.06255E-4
5173.828125; 1.14986E-4
5179.687500; 1.15128E-4
5185.546875; 1.09966E-4
5191.406250; 1.04221E-4
5197.265625; 1.01978E-4
5203.125000; 9.57087E-5
5208.984375; 1.04443E-4
5214.843750; 1.06517E-4
5220.703125; 1.07536E-4
5226.562500; 1.09549E-4
5232.421875; 9.80566E-5
5238.281250; 9.57855E-5
5244.140625; 9.04492E-5
5250.000000; 8.34356E-5
5255.859375; 9.21419E-5
5261.718750; 1.04625E-4
5267.578125; 1.13144E-4
5273.437500; 1.16827E-4
5279.296875; 1.18991E-4
5285.156250; 1.10462E-4
5291.015625; 1.06095E-4
5296.875000; 1.03021E-4
5302.734375; 9.65774E-5
5308.593750; 9.97360E-5
5314.453125; 1.07043E-4
5320.312500; 1.11504E-4
5326.171875; 1.03353E-4
5332.031250; 1.01178E-4
5337.890625; 1.08733E-4
5343.750000; 1.16296E-4
5349.609375; 1.07593E-4
5355.468750; 1.06140E-4
5361.328125; 1.04698E-4
5367.187500; 1.00567E-4
5373.046875; 1.00355E-4
5378.906250; 9.49310E-5
5384.765625; 9.74010E-5
5390.625000; 1.05014E-4
5396.484375; 1.03624E-4
5402.343750; 9.71570E-5
5408.203125; 9.91652E-5
5414.062500; 1.01878E-4
5419.921875; 1.03466E-4
5425.781250; 1.02271E-4
5431.640625; 1.04670E-4
5437.500000; 1.00248E-4
5443.359375; 1.05765E-4
5449.218750; 1.10030E-4
5455.078125; 1.03221E-4
5460.937500; 9.82540E-5
5466.796875; 1.03204E-4
5472.656250; 1.03393E-4
5478.515625; 9.99102E-5
5484.375000; 9.64225E-5
5490.234375; 9.82717E-5
5496.093750; 9.90095E-5
5501.953125; 1.04508E-4
5507.812500; 1.06664E-4
5513.671875; 1.07977E-4
5519.531250; 1.09818E-4
5525.390625; 1.02707E-4
5531.250000; 9.33875E-5
5537.109375; 9.24366E-5
5542.968750; 9.81626E-5
5548.828125; 9.49069E-5
5554.687500; 9.68701E-5
5560.546875; 1.11110E-4
5566.406250; 1.08832E-4
5572.265625; 1.01488E-4
5578.125000; 1.03476E-4
5583.984375; 1.02336E-4
5589.843750; 1.07593E-4
5595.703125; 1.06293E-4
5601.562500; 1.04956E-4
5607.421875; 1.01241E-4
5613.281250; 1.10061E-4
5619.140625; 1.21712E-4
5625.000000; 1.12241E-4
5630.859375; 1.04196E-4
5636.718750; 9.67278E-5
5642.578125; 1.04035E-4
5648.437500; 1.03080E-4
5654.296875; 1.08544E-4
5660.156250; 1.03697E-4
5666.015625; 1.06241E-4
5671.875000; 1.07358E-4
5677.734375; 1.02007E-4
5683.593750; 1.01428E-4
5689.453125; 9.79927E-5
5695.312500; 1.02182E-4
5701.171875; 1.12064E-4
5707.031250; 1.05762E-4
5712.890625; 9.51676E-5
5718.750000; 1.02916E-4
5724.609375; 1.03533E-4
5730.468750; 1.09878E-4
5736.328125; 1.03546E-4
5742.187500; 9.96241E-5
5748.046875; 9.86641E-5
5753.906250; 9.76586E-5
5759.765625; 9.37182E-5
5765.625000; 9.52069E-5
5771.484375; 9.63672E-5
5777.343750; 1.02409E-4
5783.203125; 1.07870E-4
5789.062500; 9.44872E-5
5794.921875; 8.93663E-5
5800.781250; 8.96156E-5
5806.640625; 8.41700E-5
5812.500000; 9.74662E-5
5818.359375; 1.00878E-4
5824.218750; 9.84502E-5
5830.078125; 1.03421E-4
5835.937500; 9.96864E-5
5841.796875; 9.93784E-5
5847.656250; 1.01003E-4
5853.515625; 1.09066E-4
5859.375000; 1.05718E-4
5865.234375; 1.05378E-4
5871.093750; 1.07472E-4
5876.953125; 1.12723E-4
5882.812500; 1.09338E-4
5888.671875; 1.09537E-4
5894.531250; 1.09585E-4
5900.390625; 1.13592E-4
5906.250000; 1.08212E-4
5912.109375; 1.01132E-4
5917.968750; 1.00499E-4
5923.828125; 1.04167E-4
5929.687500; 1.15055E-4
5935.546875; 1.15323E-4
5941.406250; 9.69786E-5
5947.265625; 9.50902E-5
5953.125000; 9.97311E-5
5958.984375; 1.03233E-4
5964.843750; 1.02925E-4
5970.703125; 1.12429E-4
5976.562500; 1.07289E-4
5982.421875; 1.06112E-4
5988.281250; 1.13962E-4
5994.140625; 1.04535E-4
6000.000000; 1.03052E-4
6005.859375; 9.82704E-5
6011.718750; 1.08967E-4
6017.578125; 1.06015E-4
6023.437500; 1.00194E-4
6029.296875; 9.73819E-5
6035.156250; 9.68343E-5
6041.015625; 1.00561E-4
6046.875000; 1.05932E-4
6052.734375; 1.08628E-4
6058.593750; 1.08278E-4
6064.453125; 1.09129E-4
6070.312500; 9.96797E-5
6076.171875; 1.08773E-4
6082.031250; 1.02719E-4
6087.890625; 1.01240E-4
6093.750000; 1.11123E-4
6099.609375; 1.17564E-4
6105.468750; 1.05300E-4
6111.328125; 9.93973E-5
6117.187500; 1.09659E-4
6123.046875; 1.19159E-4
6128.906250; 1.10560E-4
6134.765625; 9.31825E-5
6140.625000; 1.02004E-4
6146.484375; 1.07483E-4
6152.343750; 1.06725E-4
6158.203125; 1.03331E-4
6164.062500; 1.02657E-4
6169.921875; 9.57545E-5
6175.781250; 1.00933E-4
6181.640625; 1.08458E-4
6187.500000; 1.09426E-4
6193.359375; 1.12972E-4
6199.218750; 1.07684E-4
6205.078125; 1.03867E-4
6210.937500; 1.13441E-4
6216.796875; 1.13264E-4
6222.656250; 1.10670E-4
6228.515625; 9.51249E-5
6234.375000; 9.82484E-5
6240.234375; 1.05034E-4
6246.093750; 1.05691E-4
6251.953125; 1.11403E-4
6257.812500; 1.05598E-4
6263.671875; 1.02358E-4
6269.531250; 9.81574E-5
6275.390625; 9.52119E-5
6281.250000; 9.52734E-5
6287.109375; 9.30531E-5
6292.968750; 1.01910E-4
6298.828125; 1.05597E-4
6304.687500; 1.02042E-4
6310.546875; 1.08069E-4
6316.406250; 9.78373E-5
6322.265625; 9.39781E-5
6328.125000; 1.02008E-4
6333.984375; 9.98390E-5
6339.843750; 1.01176E-4
6345.703125; 1.06683E-4
6351.562500; 1.03827E-4
6357.421875; 1.02828E-4
6363.281250; 1.04328E-4
6369.140625; 1.09916E-4
6375.000000; 1.03265E-4
6380.859375; 1.07179E-4
6386.718750; 1.08935E-4
6392.578125; 1.05070E-4
6398.437500; 1.08152E-4
6404.296875; 1.06143E-4
6410.156250; 9.99611E-5
6416.015625; 1.02884E-4
6421.875000; 1.00272E-4
6427.734375; 1.10810E-4
6433.593750; 1.22005E-4
6439.453125; 1.07871E-4
6445.312500; 1.06710E-4
6451.171875; 1.07865E-4
6457.031250; 9.60716E-5
6462.890625; 9.36311E-5
6468.750000; 1.13193E-4
6474.609375; 1.01060E-4
6480.468750; 1.01207E-4
6486.328125; 1.10475E-4
6492.187500; 1.14818E-4
6498.046875; 1.13593E-4
6503.906250; 1.12927E-4
6509.765625; 1.03148E-4
6515.625000; 9.90181E-5
6521.484375; 1.01934E-4
6527.343750; 9.50197E-5
6533.203125; 9.91564E-5
6539.062500; 1.05809E-4
6544.921875; 1.07390E-4
6550.781250; 1.06721E-4
6556.640625; 1.06119E-4
6562.500000; 9.74936E-5
6568.359375; 1.01857E-4
6574.218750; 1.10761E-4
6580.078125; 9.70718E-5
6585.937500; 9.78095E-5
6591.796875; 9.38128E-5
6597.656250; 9.01980E-5
6603.515625; 8.99503E-5
6609.375000; 1.16603E-4
6615.234375; 1.11150E-4
6621.093750; 1.06906E-4
6626.953125; 1.16895E-4
6632.812500; 1.15297E-4
6638.671875; 1.06969E-4
6644.531250; 1.15082E-4
6650.390625; 9.82996E-5
6656.250000; 9.93984E-5
6662.109375; 1.01833E-4
6667.968750; 9.92601E-5
6673.828125; 1.04891E-4
6679.687500; 1.07896E-4
6685.546875; 1.17533E-4
6691.406250; 1.12992E-4
6697.265625; 1.04874E-4
6703.125000; 9.40353E-5
6708.984375; 8.64376E-5
6714.843750; 9.73485E-5
6720.703125; 1.02737E-4
6726.562500; 1.10320E-4
6732.421875; 1.13266E-4
6738.281250; 9.87770E-5
6744.140625; 9.98169E-5
6750.000000; 1.04884E-4
6755.859375; 1.09911E-4
6761.718750; 9.64400E-5
6767.578125; 9.32640E-5
6773.437500; 1.05307E-4
6779.296875; 1.02312E-4
6785.156250; 1.08408E-4
6791.015625; 1.09221E-4
6796.875000; 1.03300E-4
6802.734375; 1.13301E-4
6808.593750; 1.12303E-4
6814.453125; 1.03090E-4
6820.312500; 1.17987E-4
6826.171875; 1.07895E-4
6832.031250; 1.06980E-4
6837.890625; 1.04529E-4
6843.750000; 1.03940E-4
6849.609375; 1.10964E-4
6855.468750; 1.01849E-4
6861.328125; 9.40868E-5
6867.187500; 1.03691E-4
6873.046875; 1.03393E-4
6878.906250; 1.08734E-4
6884.765625; 1.14922E-4
6890.625000; 1.03398E-4
6896.484375; 9.97533E-5
6902.343750; 9.37490E-5
6908.203125; 9.57697E-5
6914.062500; 1.01903E-4
6919.921875; 1.08507E-4
6925.781250; 1.06439E-4
6931.640625; 1.04546E-4
6937.500000; 1.04192E-4
6943.359375; 1.06554E-4
6949.218750; 1.02909E-4
6955.078125; 1.11081E-4
6960.937500; 9.84024E-5
6966.796875; 1.06538E-4
6972.656250; 1.06026E-4
6978.515625; 9.99781E-5
6984.375000; 1.09581E-4
6990.234375; 1.13731E-4
6996.093750; 1.10486E-4
7001.953125; 1.05679E-4
7007.812500; 9.90119E-5
7013.671875; 1.03303E-4
7019.531250; 1.00205E-4
7025.390625; 1.07327E-4
7031.250000; 1.04984E-4
7037.109375; 1.09797E-4
7042.968750; 9.75429E-5
7048.828125; 9.84878E-5
7054.687500; 9.28699E-5
7060.546875; 1.01643E-4
7066.406250; 1.08629E-4
7072.265625; 1.05661E-4
7078.125000; 1.02129E-4
7083.984375; 1.04675E-4
7089.843750; 9.78456E-5
7095.703125; 9.50727E-5
7101.562500; 1.11143E-4
7107.421875; 1.04562E-4
7113.281250; 9.89943E-5
7119.140625; 1.06175E-4
7125.000000; 9.99957E-5
7130.859375; 1.00319E-4
7136.718750; 9.96129E-5
7142.578125; 9.85348E-5
7148.437500; 1.07783E-4
7154.296875; 9.75922E-5
7160.156250; 9.81066E-5
7166.015625; 1.14969E-4
7171.875000; 1.04903E-4
7177.734375; 1.04470E-4
7183.593750; 1.00666E-4
7189.453125; 1.00111E-4
7195.312500; 9.50749E-5
7201.171875; 1.03511E-4
7207.031250; 1.00135E-4
7212.890625; 9.52791E-5
7218.750000; 1.05888E-4
7224.609375; 1.05073E-4
7230.468750; 1.07521E-4
7236.328125; 1.15532E-4
7242.187500; 9.87982E-5
7248.046875; 9.29407E-5
7253.906250; 1.01380E-4
7259.765625; 1.03834E-4
7265.625000; 9.52097E-5
7271.484375; 9.71002E-5
7277.343750; 1.04693E-4
7283.203125; 1.11453E-4
7289.062500; 1.08011E-4
7294.921875; 9.05736E-5
7300.781250; 9.98670E-5
7306.640625; 1.04859E-4
7312.500000; 1.01089E-4
7318.359375; 9.77522E-5
7324.218750; 1.03083E-4
7330.078125; 1.06009E-4
7335.937500; 1.12099E-4
7341.796875; 1.04635E-4
7347.656250; 8.95798E-5
7353.515625; 1.00958E-4
7359.375000; 9.78285E-5
7365.234375; 9.24275E-5
7371.093750; 1.00488E-4
7376.953125; 1.01814E-4
7382.812500; 9.14229E-5
7388.671875; 1.00234E-4
7394.531250; 1.07234E-4
7400.390625; 1.01074E-4
7406.250000; 1.02349E-4
7412.109375; 1.04377E-4
7417.968750; 9.27637E-5
7423.828125; 9.20629E-5
7429.687500; 9.70008E-5
7435.546875; 9.63353E-5
7441.406250; 9.57609E-5
7447.265625; 1.00229E-4
7453.125000; 9.79790E-5
7458.984375; 9.55823E-5
7464.843750; 9.79953E-5
7470.703125; 9.93536E-5
7476.562500; 9.79361E-5
7482.421875; 1.03572E-4
7488.281250; 1.03948E-4
7494.140625; 9.23018E-5
7500.000000; 9.37009E-5
7505.859375; 9.59362E-5
7511.718750; 1.01135E-4
7517.578125; 1.03992E-4
7523.437500; 1.15359E-4
7529.296875; 1.17755E-4
7535.156250; 1.11819E-4
7541.015625; 1.02542E-4
7546.875000; 9.58938E-5
7552.734375; 9.93727E-5
7558.593750; 9.35228E-5
7564.453125; 1.03197E-4
7570.312500; 9.49858E-5
7576.171875; 9.26434E-5
7582.031250; 1.05099E-4
7587.890625; 9.55173E-5
7593.750000; 1.01496E-4
7599.609375; 1.01531E-4
7605.468750; 9.34039E-5
7611.328125; 9.67822E-5
7617.187500; 1.05045E-4
7623.046875; 1.10016E-4
7628.906250; 1.10004E-4
7634.765625; 9.94067E-5
7640.625000; 1.06289E-4
7646.484375; 1.07695E-4
7652.343750; 1.04215E-4
7658.203125; 9.70166E-5
7664.062500; 9.98435E-5
7669.921875; 9.63694E-5
7675.781250; 1.00628E-4
7681.640625; 1.04675E-4
7687.500000; 1.13421E-4
7693.359375; 1.18472E-4
7699.218750; 1.03247E-4
7705.078125; 9.71811E-5
7710.937500; 1.03819E-4
7716.796875; 1.16259E-4
7722.656250; 1.15283E-4
7728.515625; 1.10450E-4
7734.375000; 1.06396E-4
7740.234375; 1.01786E-4
7746.093750; 1.03956E-4
7751.953125; 1.10846E-4
7757.812500; 1.09432E-4
7763.671875; 1.05577E-4
7769.531250; 1.02556E-4
7775.390625; 1.05369E-4
7781.250000; 1.06141E-4
7787.109375; 1.09563E-4
7792.968750; 1.02356E-4
7798.828125; 1.02416E-4
7804.687500; 1.17469E-4
7810.546875; 1.12688E-4
7816.406250; 1.12786E-4
7822.265625; 1.10151E-4
7828.125000; 1.03750E-4
7833.984375; 1.13354E-4
7839.843750; 1.13078E-4
7845.703125; 9.49085E-5
7851.562500; 9.65836E-5
7857.421875; 1.07972E-4
7863.281250; 1.13147E-4
7869.140625; 1.11553E-4
7875.000000; 1.08334E-4
7880.859375; 1.04865E-4
7886.718750; 1.01736E-4
7892.578125; 1.05362E-4
7898.437500; 1.09281E-4
7904.296875; 1.05109E-4
7910.156250; 9.76559E-5
7916.015625; 9.43741E-5
7921.875000; 1.01573E-4
7927.734375; 1.11100E-4
7933.593750; 1.05383E-4
7939.453125; 9.99663E-5
7945.312500; 1.09279E-4
7951.171875; 1.08908E-4
7957.031250; 1.04769E-4
7962.890625; 1.10788E-4
7968.750000; 1.05770E-4
7974.609375; 9.90678E-5
7980.468750; 9.74515E-5
7986.328125; 9.53486E-5
7992.187500; 1.10636E-4
7998.046875; 1.05105E-4
8003.906250; 8.75809E-5
8009.765625; 9.55097E-5
8015.625000; 1.05564E-4
8021.484375; 1.05197E-4
8027.343750; 9.23665E-5
8033.203125; 9.77045E-5
8039.062500; 1.06925E-4
8044.921875; 1.03841E-4
8050.781250; 1.10188E-4
8056.640625; 1.06258E-4
8062.500000; 1.07965E-4
8068.359375; 1.04627E-4
8074.218750; 9.98348E-5
8080.078125; 9.89091E-5
8085.937500; 9.88461E-5
8091.796875; 1.04052E-4
8097.656250; 1.05409E-4
8103.515625; 9.84165E-5
8109.375000; 8.91486E-5
8115.234375; 1.01226E-4
8121.093750; 1.06083E-4
8126.953125; 1.14188E-4
8132.812500; 1.19773E-4
8138.671875; 1.08746E-4
8144.531250; 9.46400E-5
8150.390625; 1.01618E-4
8156.250000; 1.12493E-4
8162.109375; 1.08819E-4
8167.968750; 1.01437E-4
8173.828125; 1.03987E-4
8179.687500; 1.08898E-4
8185.546875; 1.01902E-4
8191.406250; 1.07576E-4
8197.265625; 1.06533E-4
8203.125000; 1.00459E-4
8208.984375; 9.98219E-5
8214.843750; 1.02003E-4
8220.703125; 1.01548E-4
8226.562500; 1.05144E-4
8232.421875; 1.12297E-4
8238.281250; 1.21742E-4
8244.140625; 1.16001E-4
8250.000000; 1.09693E-4
8255.859375; 1.07045E-4
8261.718750; 1.06722E-4
8267.578125; 1.06766E-4
8273.437500; 9.88849E-5
8279.296875; 9.57179E-5
8285.156250; 1.06294E-4
8291.015625; 9.77567E-5
8296.875000; 1.02320E-4
8302.734375; 1.09772E-4
8308.593750; 1.04693E-4
8314.453125; 1.10291E-4
8320.312500; 1.09407E-4
8326.171875; 1.06437E-4
8332.031250; 1.04193E-4
8337.890625; 9.86504E-5
8343.750000; 1.02646E-4
8349.609375; 9.96578E-5
8355.468750; 1.02122E-4
8361.328125; 9.72786E-5
8367.187500; 9.33770E-5
8373.046875; 9.31448E-5
8378.906250; 1.06021E-4
8384.765625; 1.01915E-4
8390.625000; 1.00441E-4
8396.484375; 1.03460E-4
8402.343750; 1.03543E-4
8408.203125; 1.01268E-4
8414.062500; 9.63143E-5
8419.921875; 9.88082E-5
8425.781250; 9.89072E-5
8431.640625; 1.06642E-4
8437.500000; 1.07115E-4
8443.359375; 1.12198E-4
8449.218750; 1.10590E-4
8455.078125; 1.08377E-4
8460.937500; 1.09153E-4
8466.796875; 1.08427E-4
8472.656250; 1.03275E-4
8478.515625; 9.35827E-5
8484.375000; 1.03753E-4
8490.234375; 9.72403E-5
8496.093750; 9.79034E-5
8501.953125; 1.05476E-4
8507.812500; 1.03517E-4
8513.671875; 1.05773E-4
8519.531250; 9.60896E-5
8525.390625; 1.00523E-4
8531.250000; 1.00525E-4
8537.109375; 1.00833E-4
8542.968750; 1.07110E-4
8548.828125; 1.06767E-4
8554.687500; 9.82284E-5
8560.546875; 1.08051E-4
8566.406250; 1.12511E-4
8572.265625; 1.17216E-4
8578.125000; 1.15739E-4
8583.984375; 1.16116E-4
8589.843750; 1.09084E-4
8595.703125; 9.84983E-5
8601.562500; 9.91532E-5
8607.421875; 1.05045E-4
8613.281250; 1.03683E-4
8619.140625; 9.70691E-5
8625.000000; 1.01375E-4
8630.859375; 1.02044E-4
8636.718750; 9.87816E-5
8642.578125; 9.68079E-5
8648.437500; 9.88812E-5
8654.296875; 1.04817E-4
8660.156250; 1.10619E-4
8666.015625; 1.10783E-4
8671.875000; 1.03996E-4
8677.734375; 9.99219E-5
8683.593750; 1.01166E-4
8689.453125; 1.01187E-4
8695.312500; 1.03021E-4
8701.171875; 1.05504E-4
8707.031250; 1.13084E-4
8712.890625; 1.07012E-4
8718.750000; 1.08207E-4
8724.609375; 1.04320E-4
8730.468750; 1.06955E-4
8736.328125; 1.03758E-4
8742.187500; 1.01887E-4
8748.046875; 1.06898E-4
8753.906250; 1.02345E-4
8759.765625; 1.01577E-4
8765.625000; 1.04027E-4
8771.484375; 1.01876E-4
8777.343750; 1.04837E-4
8783.203125; 1.08660E-4
8789.062500; 1.01137E-4
8794.921875; 1.01080E-4
8800.781250; 1.08641E-4
8806.640625; 9.88936E-5
8812.500000; 1.07788E-4
8818.359375; 1.09806E-4
8824.218750; 1.16447E-4
8830.078125; 1.14828E-4
8835.937500; 1.11516E-4
8841.796875; 1.14379E-4
8847.656250; 1.05387E-4
8853.515625; 9.85116E-5
8859.375000; 1.01849E-4
8865.234375; 1.03785E-4
8871.093750; 1.12690E-4
8876.953125; 1.10707E-4
8882.812500; 9.98576E-5
8888.671875; 1.02810E-4
8894.531250; 9.95380E-5
8900.390625; 1.06975E-4
8906.250000; 1.22301E-4
8912.109375; 1.13960E-4
8917.968750; 1.04876E-4
8923.828125; 9.20179E-5
8929.687500; 9.74015E-5
8935.546875; 1.03135E-4
8941.406250; 1.02842E-4
8947.265625; 1.00687E-4
8953.125000; 9.44034E-5
8958.984375; 9.57803E-5
8964.843750; 9.89634E-5
8970.703125; 9.75872E-5
8976.562500; 1.11278E-4
8982.421875; 1.08764E-4
8988.281250; 9.59192E-5
8994.140625; 1.08838E-4
9000.000000; 1.19238E-4
9005.859375; 1.05208E-4
9011.718750; 1.07043E-4
9017.578125; 9.66129E-5
9023.437500; 1.04081E-4
9029.296875; 9.80061E-5
9035.156250; 9.92080E-5
9041.015625; 9.36864E-5
9046.875000; 1.06518E-4
9052.734375; 1.09355E-4
9058.593750; 1.01790E-4
9064.453125; 1.00983E-4
9070.312500; 9.77136E-5
9076.171875; 9.31410E-5
9082.031250; 1.04629E-4
9087.890625; 1.01518E-4
9093.750000; 9.81346E-5
9099.609375; 1.02311E-4
9105.468750; 1.05125E-4
9111.328125; 1.05134E-4
9117.187500; 1.10652E-4
9123.046875; 1.11494E-4
9128.906250; 9.86465E-5
9134.765625; 1.02731E-4
9140.625000; 1.02404E-4
9146.484375; 1.05810E-4
9152.343750; 1.00924E-4
9158.203125; 1.11670E-4
9164.062500; 1.06859E-4
9169.921875; 9.93866E-5
9175.781250; 9.81086E-5
9181.640625; 9.87592E-5
9187.500000; 9.76590E-5
9193.359375; 9.50175E-5
9199.218750; 9.91099E-5
9205.078125; 1.02789E-4
9210.937500; 9.88595E-5
9216.796875; 9.52893E-5
9222.656250; 9.89884E-5
9228.515625; 1.05849E-4
9234.375000; 1.05923E-4
9240.234375; 1.13063E-4
9246.093750; 1.19072E-4
9251.953125; 1.16126E-4
9257.812500; 1.11183E-4
9263.671875; 1.08173E-4
9269.531250; 1.04256E-4
9275.390625; 9.98215E-5
9281.250000; 9.74291E-5
9287.109375; 1.08352E-4
9292.968750; 1.08674E-4
9298.828125; 1.04924E-4
9304.687500; 1.04373E-4
9310.546875; 1.07410E-4
9316.406250; 1.10563E-4
9322.265625; 1.00825E-4
9328.125000; 1.01120E-4
9333.984375; 1.07792E-4
9339.843750; 1.16194E-4
9345.703125; 1.18436E-4
9351.562500; 1.17433E-4
9357.421875; 1.06139E-4
9363.281250; 9.92714E-5
9369.140625; 9.81316E-5
9375.000000; 1.00147E-4
9380.859375; 1.04166E-4
9386.718750; 1.08739E-4
9392.578125; 1.12271E-4
9398.437500; 1.13967E-4
9404.296875; 1.08210E-4
9410.156250; 1.09734E-4
9416.015625; 1.05641E-4
9421.875000; 1.00118E-4
9427.734375; 1.09462E-4
9433.593750; 1.16206E-4
9439.453125; 1.08694E-4
9445.312500; 1.03971E-4
9451.171875; 1.06398E-4
9457.031250; 1.03904E-4
9462.890625; 1.07537E-4
9468.750000; 1.14538E-4
9474.609375; 1.04467E-4
9480.468750; 1.01926E-4
9486.328125; 1.02713E-4
9492.187500; 1.03529E-4
9498.046875; 1.12050E-4
9503.906250; 1.10209E-4
9509.765625; 1.03166E-4
9515.625000; 1.08322E-4
9521.484375; 9.84687E-5
9527.343750; 9.78628E-5
9533.203125; 9.91831E-5
9539.062500; 9.74163E-5
9544.921875; 1.05177E-4
9550.781250; 1.09512E-4
9556.640625; 1.07568E-4
9562.500000; 9.97728E-5
9568.359375; 1.00849E-4
9574.218750; 1.07446E-4
9580.078125; 1.04266E-4
9585.937500; 9.44445E-5
9591.796875; 1.01656E-4
9597.656250; 9.55267E-5
9603.515625; 9.60523E-5
9609.375000; 1.01543E-4
9615.234375; 1.06352E-4
9621.093750; 1.09806E-4
9626.953125; 1.10636E-4
9632.812500; 1.10953E-4
9638.671875; 1.12151E-4
9644.531250; 1.05278E-4
9650.390625; 9.88747E-5
9656.250000; 9.97251E-5
9662.109375; 1.11832E-4
9667.968750; 1.12160E-4
9673.828125; 1.07380E-4
9679.687500; 1.04932E-4
9685.546875; 1.00660E-4
9691.406250; 1.03032E-4
9697.265625; 1.04036E-4
9703.125000; 9.64247E-5
9708.984375; 1.03983E-4
9714.843750; 1.05382E-4
9720.703125; 1.01135E-4
9726.562500; 1.04815E-4
9732.421875; 1.07770E-4
9738.281250; 1.00416E-4
9744.140625; 1.13763E-4
9750.000000; 1.18591E-4
9755.859375; 1.04856E-4
9761.718750; 9.55154E-5
9767.578125; 9.59155E-5
9773.437500; 9.92696E-5
9779.296875; 1.03080E-4
9785.156250; 1.12892E-4
9791.015625; 1.16305E-4
9796.875000; 1.03422E-4
9802.734375; 9.60072E-5
9808.593750; 1.00868E-4
9814.453125; 1.03846E-4
9820.312500; 9.43081E-5
9826.171875; 9.39616E-5
9832.031250; 1.05899E-4
9837.890625; 1.06340E-4
9843.750000; 1.01097E-4
9849.609375; 1.06951E-4
9855.468750; 1.17731E-4
9861.328125; 1.17636E-4
9867.187500; 1.09223E-4
9873.046875; 1.05662E-4
9878.906250; 1.03157E-4
9884.765625; 1.15392E-4
9890.625000; 1.10722E-4
9896.484375; 1.03216E-4
9902.343750; 1.08877E-4
9908.203125; 1.07779E-4
9914.062500; 9.97987E-5
9919.921875; 9.91957E-5
9925.781250; 1.00768E-4
9931.640625; 1.02181E-4
9937.500000; 1.03005E-4
9943.359375; 1.03252E-4
9949.218750; 1.15158E-4
9955.078125; 1.18632E-4
9960.937500; 1.03113E-4
9966.796875; 9.99214E-5
9972.656250; 9.80002E-5
9978.515625; 9.42194E-5
9984.375000; 9.56999E-5
9990.234375; 1.03039E-4
9996.093750; 1.12476E-4
10001.953125; 1.09797E-4
10007.812500; 1.03135E-4
10013.671875; 1.05336E-4
10019.531250; 9.11556E-5
10025.390625; 1.00315E-4
10031.250000; 1.04289E-4
10037.109375; 9.97208E-5
10042.968750; 1.04424E-4
10048.828125; 1.05971E-4
10054.687500; 1.10671E-4
10060.546875; 1.02561E-4
10066.406250; 1.11200E-4
10072.265625; 1.18864E-4
10078.125000; 1.01534E-4
10083.984375; 1.04012E-4
10089.843750; 1.01197E-4
10095.703125; 1.01417E-4
10101.562500; 9.84086E-5
10107.421875; 1.07658E-4
10113.281250; 1.09170E-4
10119.140625; 1.09400E-4
10125.000000; 1.03771E-4
10130.859375; 1.10960E-4
10136.718750; 9.67908E-5
10142.578125; 9.16219E-5
10148.437500; 9.55484E-5
10154.296875; 1.05079E-4
10160.156250; 9.90120E-5
10166.015625; 9.70650E-5
10171.875000; 1.01653E-4
10177.734375; 1.13485E-4
10183.593750; 1.13212E-4
10189.453125; 1.07358E-4
10195.312500; 1.03633E-4
10201.171875; 1.00238E-4
10207.031250; 1.03094E-4
10212.890625; 1.02150E-4
10218.750000; 9.46403E-5
10224.609375; 9.59111E-5
10230.468750; 9.78612E-5
10236.328125; 1.04833E-4
10242.187500; 1.07629E-4
10248.046875; 1.05148E-4
10253.906250; 1.03426E-4
10259.765625; 9.99308E-5
10265.625000; 1.04153E-4
10271.484375; 1.01935E-4
10277.343750; 9.96980E-5
10283.203125; 1.04303E-4
10289.062500; 1.11223E-4
10294.921875; 9.65296E-5
10300.781250; 9.75056E-5
10306.640625; 9.86660E-5
10312.500000; 9.15303E-5
10318.359375; 9.22390E-5
10324.218750; 9.51066E-5
10330.078125; 9.97732E-5
10335.937500; 1.13191E-4
10341.796875; 1.08760E-4
10347.656250; 1.02468E-4
10353.515625; 1.09150E-4
10359.375000; 9.88266E-5
10365.234375; 1.05490E-4
10371.093750; 1.01697E-4
10376.953125; 9.40333E-5
10382.812500; 9.64494E-5
10388.671875; 1.04745E-4
10394.531250; 1.00198E-4
10400.390625; 1.02085E-4
10406.250000; 1.13663E-4
10412.109375; 1.10794E-4
10417.968750; 9.95788E-5
10423.828125; 8.57525E-5
10429.687500; 9.16695E-5
10435.546875; 9.59603E-5
10441.406250; 9.13171E-5
10447.265625; 9.60464E-5
10453.125000; 1.03930E-4
10458.984375; 9.87091E-5
10464.843750; 9.40737E-5
10470.703125; 1.04133E-4
10476.562500; 1.05417E-4
10482.421875; 1.00205E-4
10488.281250; 9.57086E-5
10494.140625; 9.74701E-5
10500.000000; 1.04945E-4
10505.859375; 1.08563E-4
10511.718750; 1.07031E-4
10517.578125; 1.01398E-4
10523.437500; 1.02658E-4
10529.296875; 1.08050E-4
10535.156250; 1.06202E-4
10541.015625; 1.01178E-4
10546.875000; 1.04600E-4
10552.734375; 9.92149E-5
10558.593750; 1.04626E-4
10564.453125; 1.09267E-4
10570.312500; 1.01790E-4
10576.171875; 9.60275E-5
10582.031250; 1.01915E-4
10587.890625; 1.03929E-4
10593.750000; 9.76102E-5
10599.609375; 1.13899E-4
10605.468750; 1.10857E-4
10611.328125; 1.05271E-4
10617.187500; 9.51564E-5
10623.046875; 1.03108E-4
10628.906250; 1.06295E-4
10634.765625; 1.06444E-4
10640.625000; 9.66495E-5
10646.484375; 9.74101E-5
10652.343750; 1.00481E-4
10658.203125; 1.00349E-4
10664.062500; 9.71385E-5
10669.921875; 9.23067E-5
10675.781250; 9.09886E-5
10681.640625; 9.97392E-5
10687.500000; 1.02687E-4
10693.359375; 9.55015E-5
10699.218750; 9.86275E-5
10705.078125; 1.11316E-4
10710.937500; 1.03251E-4
10716.796875; 1.01499E-4
10722.656250; 1.01185E-4
10728.515625; 1.02587E-4
10734.375000; 1.04153E-4
10740.234375; 1.09890E-4
10746.093750; 1.07822E-4
10751.953125; 1.03567E-4
10757.812500; 9.57861E-5
10763.671875; 9.62933E-5
10769.531250; 9.17508E-5
10775.390625; 8.79245E-5
10781.250000; 8.29054E-5
10787.109375; 8.46410E-5
10792.968750; 1.02042E-4
10798.828125; 9.29784E-5
10804.687500; 9.40659E-5
10810.546875; 1.00353E-4
10816.406250; 1.05343E-4
10822.265625; 1.04391E-4
10828.125000; 1.02782E-4
10833.984375; 9.84468E-5
10839.843750; 1.01098E-4
10845.703125; 9.73922E-5
10851.562500; 9.53677E-5
10857.421875; 8.54487E-5
10863.281250; 9.86079E-5
10869.140625; 1.01757E-4
10875.000000; 9.71610E-5
10880.859375; 9.74544E-5
10886.718750; 9.81324E-5
10892.578125; 1.00879E-4
10898.437500; 1.10447E-4
10904.296875; 1.02919E-4
10910.156250; 1.03889E-4
10916.015625; 9.75084E-5
10921.875000; 9.69670E-5
10927.734375; 1.01623E-4
10933.593750; 1.04934E-4
10939.453125; 1.03790E-4
10945.312500; 9.37528E-5
10951.171875; 1.03836E-4
10957.031250; 1.08974E-4
10962.890625; 1.03841E-4
10968.750000; 1.11378E-4
10974.609375; 1.08858E-4
10980.468750; 1.07822E-4
10986.328125; 1.10543E-4
10992.187500; 1.03379E-4
10998.046875; 1.06878E-4
11003.906250; 1.08231E-4
11009.765625; 1.07047E-4
11015.625000; 9.62116E-5
11021.484375; 8.84749E-5
11027.343750; 9.67324E-5
11033.203125; 1.07228E-4
11039.062500; 1.07656E-4
11044.921875; 8.92823E-5
11050.781250; 9.29326E-5
11056.640625; 1.05320E-4
11062.500000; 9.86734E-5
11068.359375; 9.34783E-5
11074.218750; 9.67321E-5
11080.078125; 1.07799E-4
11085.937500; 1.07931E-4
11091.796875; 9.55874E-5
11097.656250; 9.84729E-5
11103.515625; 1.06721E-4
11109.375000; 1.10550E-4
11115.234375; 1.00162E-4
11121.093750; 9.38551E-5
11126.953125; 9.39809E-5
11132.812500; 9.50159E-5
11138.671875; 9.79473E-5
11144.531250; 9.94010E-5
11150.390625; 9.97751E-5
11156.250000; 1.01119E-4
11162.109375; 1.06844E-4
11167.968750; 1.05069E-4
11173.828125; 9.12559E-5
11179.687500; 9.69914E-5
11185.546875; 1.05786E-4
11191.406250; 9.77524E-5
11197.265625; 9.80217E-5
11203.125000; 9.38785E-5
11208.984375; 9.73640E-5
11214.843750; 9.86315E-5
11220.703125; 1.05596E-4
11226.562500; 1.01506E-4
11232.421875; 9.97747E-5
11238.281250; 9.87467E-5
11244.140625; 9.18658E-5
11250.000000; 9.28210E-5
11255.859375; 9.92410E-5
11261.718750; 1.05458E-4
11267.578125; 1.06544E-4
11273.437500; 1.01451E-4
11279.296875; 1.05113E-4
11285.156250; 9.94888E-5
11291.015625; 1.09411E-4
11296.875000; 1.02624E-4
11302.734375; 9.69362E-5
11308.593750; 9.84419E-5
11314.453125; 1.00105E-4
11320.312500; 9.13232E-5
11326.171875; 1.07198E-4
11332.031250; 1.10077E-4
11337.890625; 1.04377E-4
11343.750000; 1.09356E-4
11349.609375; 1.05581E-4
11355.468750; 9.80372E-5
11361.328125; 9.83549E-5
11367.187500; 1.03281E-4
11373.046875; 1.08531E-4
11378.906250; 1.03834E-4
11384.765625; 9.49363E-5
11390.625000; 9.35726E-5
11396.484375; 9.54455E-5
11402.343750; 9.63463E-5
11408.203125; 9.72822E-5
11414.062500; 1.04086E-4
11419.921875; 1.08569E-4
11425.781250; 1.06911E-4
11431.640625; 9.87723E-5
11437.500000; 1.03433E-4
11443.359375; 9.94841E-5
11449.218750; 1.11270E-4
11455.078125; 1.05068E-4
11460.937500; 1.01321E-4
11466.796875; 9.90423E-5
11472.656250; 9.88659E-5
11478.515625; 1.02467E-4
11484.375000; 1.05983E-4
11490.234375; 1.00674E-4
11496.093750; 9.46748E-5
11501.953125; 9.92672E-5
11507.812500; 1.01223E-4
11513.671875; 9.66983E-5
11519.531250; 1.06263E-4
11525.390625; 1.09241E-4
11531.250000; 9.87576E-5
11537.109375; 9.68372E-5
11542.968750; 1.00767E-4
11548.828125; 1.15062E-4
11554.687500; 1.17474E-4
11560.546875; 1.15649E-4
11566.406250; 1.04380E-4
11572.265625; 1.02489E-4
11578.125000; 9.20754E-5
11583.984375; 9.97913E-5
11589.843750; 1.00018E-4
11595.703125; 1.01021E-4
11601.562500; 1.08875E-4
11607.421875; 1.07949E-4
11613.281250; 1.04793E-4
11619.140625; 1.05792E-4
11625.000000; 9.88430E-5
11630.859375; 9.55920E-5
11636.718750; 1.16988E-4
11642.578125; 1.16672E-4
11648.437500; 1.12023E-4
11654.296875; 1.03714E-4
11660.156250; 1.00605E-4
11666.015625; 1.04041E-4
11671.875000; 1.07919E-4
11677.734375; 1.11243E-4
11683.593750; 1.07474E-4
11689.453125; 9.54464E-5
11695.312500; 9.86418E-5
11701.171875; 1.02944E-4
11707.031250; 1.03843E-4
11712.890625; 1.06046E-4
11718.750000; 1.03569E-4
11724.609375; 1.09688E-4
11730.468750; 1.06716E-4
11736.328125; 9.90307E-5
11742.187500; 1.02098E-4
11748.046875; 9.70700E-5
11753.906250; 9.82484E-5
11759.765625; 9.21946E-5
11765.625000; 9.34568E-5
11771.484375; 1.02362E-4
11777.343750; 1.04688E-4
11783.203125; 1.07501E-4
11789.062500; 9.76861E-5
11794.921875; 1.05685E-4
11800.781250; 1.07557E-4
11806.640625; 1.09658E-4
11812.500000; 1.15386E-4
11818.359375; 1.07137E-4
11824.218750; 9.97022E-5
11830.078125; 1.07508E-4
11835.937500; 1.06680E-4
11841.796875; 1.05682E-4
11847.656250; 9.83825E-5
11853.515625; 9.57047E-5
11859.375000; 1.00752E-4
11865.234375; 1.00154E-4
11871.093750; 1.01180E-4
11876.953125; 9.44983E-5
11882.812500; 1.10547E-4
11888.671875; 1.03832E-4
11894.531250; 9.23666E-5
11900.390625; 9.47775E-5
11906.250000; 1.02471E-4
11912.109375; 1.09361E-4
11917.968750; 1.06205E-4
11923.828125; 1.13718E-4
11929.687500; 1.17991E-4
11935.546875; 9.74881E-5
11941.406250; 9.74626E-5
11947.265625; 1.05391E-4
11953.125000; 1.11090E-4
11958.984375; 9.80829E-5
11964.843750; 9.57407E-5
11970.703125; 9.68163E-5
11976.562500; 9.75283E-5
11982.421875; 9.07432E-5
11988.281250; 9.64499E-5
11994.140625; 1.01440E-4
12000.000000; 1.02460E-4
12005.859375; 9.82158E-5
12011.718750; 1.04479E-4
12017.578125; 9.35481E-5
12023.437500; 1.00139E-4
12029.296875; 1.08498E-4
12035.156250; 1.00631E-4
12041.015625; 1.05442E-4
12046.875000; 1.09768E-4
12052.734375; 1.04763E-4
12058.593750; 9.98824E-5
12064.453125; 1.02637E-4
12070.312500; 1.06305E-4
12076.171875; 1.02825E-4
12082.031250; 9.93165E-5
12087.890625; 1.02233E-4
12093.750000; 1.04770E-4
12099.609375; 1.04247E-4
12105.468750; 9.64657E-5
12111.328125; 9.22095E-5
12117.187500; 1.01519E-4
12123.046875; 1.00162E-4
12128.906250; 9.78972E-5
12134.765625; 1.00498E-4
12140.625000; 1.04214E-4
12146.484375; 1.04439E-4
12152.343750; 1.08951E-4
12158.203125; 1.03772E-4
12164.062500; 8.94481E-5
12169.921875; 1.07877E-4
12175.781250; 1.09258E-4
12181.640625; 1.01727E-4
12187.500000; 9.63723E-5
12193.359375; 9.73714E-5
12199.218750; 9.94022E-5
12205.078125; 1.09233E-4
12210.937500; 1.11597E-4
12216.796875; 1.03991E-4
12222.656250; 1.04570E-4
12228.515625; 9.91182E-5
12234.375000; 9.29198E-5
12240.234375; 9.36576E-5
12246.093750; 1.00971E-4
12251.953125; 1.01492E-4
12257.812500; 1.02973E-4
12263.671875; 9.72708E-5
12269.531250; 1.02046E-4
12275.390625; 1.15452E-4
12281.250000; 1.00137E-4
12287.109375; 1.00871E-4
12292.968750; 1.01235E-4
12298.828125; 1.01764E-4
12304.687500; 9.67730E-5
12310.546875; 9.88843E-5
12316.406250; 9.63363E-5
12322.265625; 8.84643E-5
12328.125000; 1.03379E-4
12333.984375; 9.43395E-5
12339.843750; 9.66353E-5
12345.703125; 1.09813E-4
12351.562500; 1.07029E-4
12357.421875; 9.78863E-5
12363.281250; 1.08785E-4
12369.140625; 1.04051E-4
12375.000000; 1.04191E-4
12380.859375; 1.03885E-4
12386.718750; 9.69253E-5
12392.578125; 8.93570E-5
12398.437500; 9.01763E-5
12404.296875; 9.77123E-5
12410.156250; 1.07346E-4
12416.015625; 1.00136E-4
12421.875000; 9.52539E-5
12427.734375; 9.54128E-5
12433.593750; 9.71776E-5
12439.453125; 9.62681E-5
12445.312500; 9.27359E-5
12451.171875; 1.01229E-4
12457.031250; 1.05114E-4
12462.890625; 1.06926E-4
12468.750000; 9.81616E-5
12474.609375; 1.07022E-4
12480.468750; 1.03356E-4
12486.328125; 1.06183E-4
12492.187500; 1.00616E-4
12498.046875; 9.72460E-5
12503.906250; 1.05572E-4
12509.765625; 1.10209E-4
12515.625000; 1.05376E-4
12521.484375; 1.02013E-4
12527.343750; 1.04225E-4
12533.203125; 1.02719E-4
12539.062500; 9.32542E-5
12544.921875; 1.01534E-4
12550.781250; 1.04625E-4
12556.640625; 9.57813E-5
12562.500000; 1.07925E-4
12568.359375; 1.05592E-4
12574.218750; 1.00910E-4
12580.078125; 1.00920E-4
12585.937500; 1.01559E-4
12591.796875; 1.11842E-4
12597.656250; 1.05249E-4
12603.515625; 9.49519E-5
12609.375000; 9.42209E-5
12615.234375; 1.08932E-4
12621.093750; 1.07151E-4
12626.953125; 1.00225E-4
12632.812500; 1.06597E-4
12638.671875; 9.53597E-5
12644.531250; 8.89476E-5
12650.390625; 1.09019E-4
12656.250000; 1.08010E-4
12662.109375; 1.07024E-4
12667.968750; 1.06116E-4
12673.828125; 9.51137E-5
12679.687500; 9.79841E-5
12685.546875; 9.43740E-5
12691.406250; 9.95225E-5
12697.265625; 1.06433E-4
12703.125000; 1.07281E-4
12708.984375; 9.52685E-5
12714.843750; 9.91852E-5
12720.703125; 1.07634E-4
12726.562500; 1.00150E-4
12732.421875; 8.71997E-5
12738.281250; 8.96431E-5
12744.140625; 9.90711E-5
12750.000000; 1.08464E-4
12755.859375; 1.04389E-4
12761.718750; 1.00521E-4
12767.578125; 1.05072E-4
12773.437500; 9.90033E-5
12779.296875; 9.95408E-5
12785.156250; 9.68364E-5
12791.015625; 1.00462E-4
12796.875000; 1.00705E-4
12802.734375; 9.74363E-5
12808.593750; 1.00603E-4
12814.453125; 1.06641E-4
12820.312500; 1.03599E-4
12826.171875; 1.11186E-4
12832.031250; 1.01849E-4
12837.890625; 1.07441E-4
12843.750000; 1.08984E-4
12849.609375; 1.13751E-4
12855.468750; 1.21804E-4
12861.328125; 1.11408E-4
12867.187500; 9.77402E-5
12873.046875; 1.00198E-4
12878.906250; 1.04980E-4
12884.765625; 9.45935E-5
12890.625000; 1.01183E-4
12896.484375; 9.74224E-5
12902.343750; 9.84399E-5
12908.203125; 9.57390E-5
12914.062500; 9.67415E-5
12919.921875; 9.63860E-5
12925.781250; 1.06356E-4
12931.640625; 1.04840E-4
12937.500000; 9.93549E-5
12943.359375; 1.09712E-4
12949.218750; 1.09085E-4
12955.078125; 9.84829E-5
12960.937500; 9.37502E-5
12966.796875; 1.05670E-4
12972.656250; 1.10714E-4
12978.515625; 9.67689E-5
12984.375000; 9.79015E-5
12990.234375; 9.39547E-5
12996.093750; 9.51080E-5
13001.953125; 1.11040E-4
13007.812500; 1.13225E-4
13013.671875; 1.01406E-4
13019.531250; 1.10007E-4
13025.390625; 9.92546E-5
13031.250000; 1.02983E-4
13037.109375; 1.08229E-4
13042.968750; 9.87371E-5
13048.828125; 1.03274E-4
13054.687500; 1.06279E-4
13060.546875; 9.33865E-5
13066.406250; 9.00053E-5
13072.265625; 1.04255E-4
13078.125000; 1.00857E-4
13083.984375; 1.03763E-4
13089.843750; 1.09962E-4
13095.703125; 9.96713E-5
13101.562500; 9.43288E-5
13107.421875; 1.02952E-4
13113.281250; 9.93846E-5
13119.140625; 9.67408E-5
13125.000000; 9.60135E-5
13130.859375; 9.63770E-5
13136.718750; 1.00673E-4
13142.578125; 1.01087E-4
13148.437500; 1.05004E-4
13154.296875; 1.14485E-4
13160.156250; 1.16772E-4
13166.015625; 1.01522E-4
13171.875000; 9.91731E-5
13177.734375; 1.04237E-4
13183.593750; 1.00651E-4
13189.453125; 8.86245E-5
13195.312500; 8.88431E-5
13201.171875; 9.49698E-5
13207.031250; 9.34879E-5
13212.890625; 1.00319E-4
13218.750000; 9.71193E-5
13224.609375; 1.01842E-4
13230.468750; 1.03377E-4
13236.328125; 1.00164E-4
13242.187500; 1.08132E-4
13248.046875; 1.04343E-4
13253.906250; 9.23051E-5
13259.765625; 9.38572E-5
13265.625000; 8.72582E-5
13271.484375; 9.68517E-5
13277.343750; 1.06106E-4
13283.203125; 1.03293E-4
13289.062500; 1.09050E-4
13294.921875; 1.05076E-4
13300.781250; 9.11596E-5
13306.640625; 9.58270E-5
13312.500000; 1.01209E-4
13318.359375; 9.45631E-5
13324.218750; 1.02810E-4
13330.078125; 1.07673E-4
13335.937500; 1.00555E-4
13341.796875; 1.00744E-4
13347.656250; 1.11319E-4
13353.515625; 1.12117E-4
13359.375000; 1.05194E-4
13365.234375; 1.00732E-4
13371.093750; 9.61827E-5
13376.953125; 9.91858E-5
13382.812500; 9.56241E-5
13388.671875; 9.58599E-5
13394.531250; 9.55646E-5
13400.390625; 1.04900E-4
13406.250000; 1.07326E-4
13412.109375; 1.10715E-4
13417.968750; 1.00182E-4
13423.828125; 9.29883E-5
13429.687500; 1.02151E-4
13435.546875; 1.10991E-4
13441.406250; 9.93942E-5
13447.265625; 8.91671E-5
13453.125000; 9.91456E-5
13458.984375; 1.03933E-4
13464.843750; 1.03778E-4
13470.703125; 1.00889E-4
13476.562500; 1.08303E-4
13482.421875; 9.99433E-5
13488.281250; 1.03945E-4
13494.140625; 9.93931E-5
13500.000000; 1.09766E-4
13505.859375; 1.12764E-4
13511.718750; 1.09007E-4
13517.578125; 9.64914E-5
13523.437500; 1.00496E-4
13529.296875; 1.06454E-4
13535.156250; 1.05743E-4
13541.015625; 1.02838E-4
13546.875000; 1.09664E-4
13552.734375; 9.38226E-5
13558.593750; 1.00481E-4
13564.453125; 9.45038E-5
13570.312500; 9.31516E-5
13576.171875; 1.00245E-4
13582.031250; 1.10791E-4
13587.890625; 1.00207E-4
13593.750000; 1.02195E-4
13599.609375; 1.13662E-4
13605.468750; 1.09362E-4
13611.328125; 9.83828E-5
13617.187500; 1.02425E-4
13623.046875; 1.07038E-4
13628.906250; 9.76636E-5
13634.765625; 9.48052E-5
13640.625000; 1.02849E-4
13646.484375; 9.50855E-5
13652.343750; 1.06955E-4
13658.203125; 9.93883E-5
13664.062500; 1.05460E-4
13669.921875; 1.02697E-4
13675.781250; 9.83623E-5
13681.640625; 9.27863E-5
13687.500000; 9.66658E-5
13693.359375; 1.06269E-4
13699.218750; 9.74136E-5
13705.078125; 9.23189E-5
13710.937500; 8.90417E-5
13716.796875; 1.04579E-4
13722.656250; 1.05266E-4
13728.515625; 9.70808E-5
13734.375000; 9.50605E-5
13740.234375; 1.03987E-4
13746.093750; 1.00360E-4
13751.953125; 1.04629E-4
13757.812500; 1.01991E-4
13763.671875; 1.01483E-4
13769.531250; 1.02479E-4
13775.390625; 9.98900E-5
13781.250000; 9.68106E-5
13787.109375; 9.86569E-5
13792.968750; 1.00323E-4
13798.828125; 9.36083E-5
13804.687500; 9.13261E-5
13810.546875; 1.01416E-4
13816.406250; 9.72883E-5
13822.265625; 9.71200E-5
13828.125000; 9.59712E-5
13833.984375; 1.03561E-4
13839.843750; 9.69969E-5
13845.703125; 8.71155E-5
13851.562500; 9.85106E-5
13857.421875; 1.08923E-4
13863.281250; 1.14707E-4
13869.140625; 9.78526E-5
13875.000000; 1.02381E-4
13880.859375; 1.03755E-4
13886.718750; 1.02076E-4
13892.578125; 9.93519E-5
13898.437500; 1.07269E-4
13904.296875; 9.89577E-5
13910.156250; 8.49615E-5
13916.015625; 9.24697E-5
13921.875000; 1.03688E-4
13927.734375; 1.04964E-4
13933.593750; 1.09521E-4
13939.453125; 1.07919E-4
13945.312500; 1.11912E-4
13951.171875; 1.00546E-4
13957.031250; 9.93430E-5
13962.890625; 9.84791E-5
13968.750000; 9.37198E-5
13974.609375; 9.15738E-5
13980.468750; 9.79210E-5
13986.328125; 1.00425E-4
13992.187500; 9.81444E-5
13998.046875; 1.03651E-4
14003.906250; 1.03826E-4
14009.765625; 1.19495E-4
14015.625000; 1.15443E-4
14021.484375; 1.00423E-4
14027.343750; 9.71311E-5
14033.203125; 1.00087E-4
14039.062500; 9.88809E-5
14044.921875; 1.08490E-4
14050.781250; 9.96908E-5
14056.640625; 1.03480E-4
14062.500000; 1.04300E-4
14068.359375; 9.53012E-5
14074.218750; 1.01469E-4
14080.078125; 9.08502E-5
14085.937500; 9.87602E-5
14091.796875; 1.04776E-4
14097.656250; 9.70531E-5
14103.515625; 9.63065E-5
14109.375000; 9.75437E-5
14115.234375; 1.06401E-4
14121.093750; 1.09035E-4
14126.953125; 9.45198E-5
14132.812500; 1.03266E-4
14138.671875; 1.00202E-4
14144.531250; 9.35643E-5
14150.390625; 1.06798E-4
14156.250000; 1.10387E-4
14162.109375; 9.57538E-5
14167.968750; 9.11282E-5
14173.828125; 9.36538E-5
14179.687500; 9.57377E-5
14185.546875; 9.97575E-5
14191.406250; 9.60563E-5
14197.265625; 1.03428E-4
14203.125000; 1.03577E-4
14208.984375; 9.81615E-5
14214.843750; 9.63929E-5
14220.703125; 1.06806E-4
14226.562500; 1.05311E-4
14232.421875; 9.52448E-5
14238.281250; 9.50303E-5
14244.140625; 1.09716E-4
14250.000000; 1.06016E-4
14255.859375; 1.00072E-4
14261.718750; 1.00959E-4
14267.578125; 9.84335E-5
14273.437500; 9.65536E-5
14279.296875; 9.72577E-5
14285.156250; 9.76012E-5
14291.015625; 9.35613E-5
14296.875000; 9.36033E-5
14302.734375; 9.62309E-5
14308.593750; 9.04098E-5
14314.453125; 9.00521E-5
14320.312500; 1.01748E-4
14326.171875; 1.01051E-4
14332.031250; 9.93572E-5
14337.890625; 9.11622E-5
14343.750000; 1.03322E-4
14349.609375; 9.49561E-5
14355.468750; 1.00662E-4
14361.328125; 9.83975E-5
14367.187500; 9.78184E-5
14373.046875; 9.53095E-5
14378.906250; 9.21080E-5
14384.765625; 9.91703E-5
14390.625000; 1.09968E-4
14396.484375; 1.06796E-4
14402.343750; 9.08236E-5
14408.203125; 9.47369E-5
14414.062500; 1.04396E-4
14419.921875; 9.08138E-5
14425.781250; 9.40680E-5
14431.640625; 1.06382E-4
14437.500000; 1.03020E-4
14443.359375; 1.02172E-4
14449.218750; 9.99587E-5
14455.078125; 1.01985E-4
14460.937500; 9.52267E-5
14466.796875; 9.13104E-5
14472.656250; 9.80225E-5
14478.515625; 9.67101E-5
14484.375000; 9.64810E-5
14490.234375; 1.00875E-4
14496.093750; 9.79505E-5
14501.953125; 9.64252E-5
14507.812500; 8.95503E-5
14513.671875; 1.01535E-4
14519.531250; 1.04208E-4
14525.390625; 1.01003E-4
14531.250000; 1.05496E-4
14537.109375; 8.66358E-5
14542.968750; 8.55394E-5
14548.828125; 1.08138E-4
14554.687500; 1.17355E-4
14560.546875; 1.12765E-4
14566.406250; 1.01070E-4
14572.265625; 9.64626E-5
14578.125000; 9.72333E-5
14583.984375; 9.46547E-5
14589.843750; 9.68149E-5
14595.703125; 1.11998E-4
14601.562500; 9.79721E-5
14607.421875; 9.75959E-5
14613.281250; 9.98540E-5
14619.140625; 9.76770E-5
14625.000000; 1.03447E-4
14630.859375; 9.48604E-5
14636.718750; 9.45049E-5
14642.578125; 1.03639E-4
14648.437500; 1.04766E-4
14654.296875; 9.15754E-5
14660.156250; 1.04833E-4
14666.015625; 1.12931E-4
14671.875000; 1.03404E-4
14677.734375; 1.06650E-4
14683.593750; 1.03313E-4
14689.453125; 9.69064E-5
14695.312500; 1.08625E-4
14701.171875; 9.41334E-5
14707.031250; 9.56201E-5
14712.890625; 9.93170E-5
14718.750000; 1.07972E-4
14724.609375; 1.00284E-4
14730.468750; 1.01551E-4
14736.328125; 1.04097E-4
14742.187500; 1.01108E-4
14748.046875; 9.40383E-5
14753.906250; 9.69192E-5
14759.765625; 1.01491E-4
14765.625000; 9.29205E-5
14771.484375; 9.64082E-5
14777.343750; 9.08109E-5
14783.203125; 1.06318E-4
14789.062500; 1.06570E-4
14794.921875; 1.12061E-4
14800.781250; 1.06559E-4
14806.640625; 1.05510E-4
14812.500000; 1.00868E-4
14818.359375; 9.87322E-5
14824.218750; 9.26605E-5
14830.078125; 9.80288E-5
14835.937500; 1.00233E-4
14841.796875; 1.02257E-4
14847.656250; 9.93741E-5
14853.515625; 9.04659E-5
14859.375000; 9.81739E-5
14865.234375; 1.15005E-4
14871.093750; 1.10034E-4
14876.953125; 9.20532E-5
14882.812500; 9.36951E-5
14888.671875; 9.70981E-5
14894.531250; 9.18032E-5
14900.390625; 9.29324E-5
14906.250000; 9.04920E-5
14912.109375; 9.60283E-5
14917.968750; 9.53240E-5
14923.828125; 1.00131E-4
14929.687500; 9.82731E-5
14935.546875; 9.76242E-5
14941.406250; 1.02011E-4
14947.265625; 1.04210E-4
14953.125000; 1.04547E-4
14958.984375; 1.05661E-4
14964.843750; 9.83814E-5
14970.703125; 9.42349E-5
14976.562500; 9.86672E-5
14982.421875; 1.02566E-4
14988.281250; 1.03263E-4
14994.140625; 9.94046E-5
15000.000000; 9.22467E-5
15005.859375; 1.05939E-4
15011.718750; 1.04934E-4
15017.578125; 1.08559E-4
15023.437500; 1.04644E-4
15029.296875; 9.69742E-5
15035.156250; 9.68273E-5
15041.015625; 9.50399E-5
15046.875000; 1.01761E-4
15052.734375; 9.87731E-5
15058.593750; 9.75418E-5
15064.453125; 1.01189E-4
15070.312500; 1.01975E-4
15076.171875; 9.29323E-5
15082.031250; 9.92656E-5
15087.890625; 1.02934E-4
15093.750000; 9.77015E-5
15099.609375; 9.55215E-5
15105.468750; 9.96026E-5
15111.328125; 1.07128E-4
15117.187500; 1.01558E-4
15123.046875; 9.32685E-5
15128.906250; 9.93596E-5
15134.765625; 9.64826E-5
15140.625000; 9.52729E-5
15146.484375; 9.83517E-5
15152.343750; 9.78457E-5
15158.203125; 9.60633E-5
15164.062500; 9.77480E-5
15169.921875; 1.08829E-4
15175.781250; 1.16163E-4
15181.640625; 1.08976E-4
15187.500000; 1.12799E-4
15193.359375; 1.03704E-4
15199.218750; 9.72531E-5
15205.078125; 1.06226E-4
15210.937500; 1.04178E-4
15216.796875; 1.01352E-4
15222.656250; 1.01986E-4
15228.515625; 1.04997E-4
15234.375000; 1.02067E-4
15240.234375; 1.13581E-4
15246.093750; 1.09271E-4
15251.953125; 9.88769E-5
15257.812500; 1.02975E-4
15263.671875; 1.04581E-4
15269.531250; 1.01001E-4
15275.390625; 1.04142E-4
15281.250000; 1.04389E-4
15287.109375; 1.04346E-4
15292.968750; 8.80600E-5
15298.828125; 9.91763E-5
15304.687500; 9.81923E-5
15310.546875; 9.38027E-5
15316.406250; 9.27138E-5
15322.265625; 9.06810E-5
15328.125000; 9.49669E-5
15333.984375; 1.02270E-4
15339.843750; 1.09932E-4
15345.703125; 1.03328E-4
15351.562500; 9.56428E-5
15357.421875; 9.64176E-5
15363.281250; 9.82607E-5
15369.140625; 9.19866E-5
15375.000000; 9.62301E-5
15380.859375; 1.00529E-4
15386.718750; 9.17668E-5
15392.578125; 1.05708E-4
15398.437500; 1.15518E-4
15404.296875; 1.17003E-4
15410.156250; 1.15796E-4
15416.015625; 1.14700E-4
15421.875000; 9.41797E-5
15427.734375; 9.39099E-5
15433.593750; 9.74173E-5
15439.453125; 9.82325E-5
15445.312500; 1.08754E-4
15451.171875; 1.06934E-4
15457.031250; 9.07763E-5
15462.890625; 9.75620E-5
15468.750000; 1.03433E-4
15474.609375; 9.39768E-5
15480.468750; 9.48364E-5
15486.328125; 9.65443E-5
15492.187500; 9.88062E-5
15498.046875; 9.69052E-5
15503.906250; 9.53629E-5
15509.765625; 9.63642E-5
15515.625000; 9.79485E-5
15521.484375; 9.39729E-5
15527.343750; 9.86926E-5
15533.203125; 1.02679E-4
15539.062500; 9.73442E-5
15544.921875; 9.05726E-5
15550.781250; 9.73541E-5
15556.640625; 1.10465E-4
15562.500000; 1.00932E-4
15568.359375; 9.85894E-5
15574.218750; 9.47159E-5
15580.078125; 1.01562E-4
15585.937500; 9.62053E-5
15591.796875; 1.00899E-4
15597.656250; 1.03922E-4
15603.515625; 9.89618E-5
15609.375000; 9.89023E-5
15615.234375; 9.87787E-5
15621.093750; 1.03758E-4
15626.953125; 1.09546E-4
15632.812500; 1.06598E-4
15638.671875; 1.10012E-4
15644.531250; 1.07355E-4
15650.390625; 9.87142E-5
15656.250000; 9.27893E-5
15662.109375; 9.64336E-5
15667.968750; 1.01289E-4
15673.828125; 1.01575E-4
15679.687500; 9.92330E-5
15685.546875; 9.69408E-5
15691.406250; 9.13961E-5
15697.265625; 9.17301E-5
15703.125000; 8.69785E-5
15708.984375; 9.24923E-5
15714.843750; 1.02393E-4
15720.703125; 9.31040E-5
15726.562500; 1.01899E-4
15732.421875; 9.52643E-5
15738.281250; 8.77068E-5
15744.140625; 9.32934E-5
15750.000000; 9.70995E-5
15755.859375; 9.62352E-5
15761.718750; 9.61961E-5
15767.578125; 9.82634E-5
15773.437500; 9.82621E-5
15779.296875; 9.45402E-5
15785.156250; 1.03326E-4
15791.015625; 1.06065E-4
15796.875000; 1.08076E-4
15802.734375; 1.00220E-4
15808.593750; 1.05268E-4
15814.453125; 9.81067E-5
15820.312500; 9.32718E-5
15826.171875; 8.92013E-5
15832.031250; 9.78183E-5
15837.890625; 9.80513E-5
15843.750000; 1.02012E-4
15849.609375; 9.84907E-5
15855.468750; 9.07756E-5
15861.328125; 9.59726E-5
15867.187500; 1.07440E-4
15873.046875; 1.02418E-4
15878.906250; 1.08018E-4
15884.765625; 1.03213E-4
15890.625000; 1.05176E-4
15896.484375; 9.35902E-5
15902.343750; 9.21890E-5
15908.203125; 9.44389E-5
15914.062500; 1.02830E-4
15919.921875; 9.96501E-5
15925.781250; 1.04689E-4
15931.640625; 1.02408E-4
15937.500000; 9.78213E-5
15943.359375; 9.67118E-5
15949.218750; 9.72955E-5
15955.078125; 9.59108E-5
15960.937500; 9.69539E-5
15966.796875; 1.04593E-4
15972.656250; 1.06304E-4
15978.515625; 9.43926E-5
15984.375000; 1.07293E-4
15990.234375; 1.02506E-4
15996.093750; 1.01224E-4
16001.953125; 9.42614E-5
16007.812500; 1.02927E-4
16013.671875; 1.02370E-4
16019.531250; 8.48016E-5
16025.390625; 9.60065E-5
16031.250000; 1.07597E-4
16037.109375; 1.12253E-4
16042.968750; 1.11707E-4
16048.828125; 1.10982E-4
16054.687500; 1.00292E-4
16060.546875; 1.00316E-4
16066.406250; 1.01354E-4
16072.265625; 1.09130E-4
16078.125000; 1.02410E-4
16083.984375; 9.15894E-5
16089.843750; 9.03273E-5
16095.703125; 8.81366E-5
16101.562500; 8.71396E-5
16107.421875; 9.28021E-5
16113.281250; 9.92662E-5
16119.140625; 9.37464E-5
16125.000000; 8.84590E-5
16130.859375; 1.00759E-4
16136.718750; 1.09023E-4
16142.578125; 1.03260E-4
16148.437500; 1.05119E-4
16154.296875; 1.02562E-4
16160.156250; 9.46047E-5
16166.015625; 9.43834E-5
16171.875000; 1.04780E-4
16177.734375; 1.06613E-4
16183.593750; 1.02514E-4
16189.453125; 9.06621E-5
16195.312500; 9.76875E-5
16201.171875; 9.69513E-5
16207.031250; 1.00614E-4
16212.890625; 1.08976E-4
16218.750000; 1.06080E-4
16224.609375; 9.92366E-5
16230.468750; 1.12269E-4
16236.328125; 1.08513E-4
16242.187500; 9.71649E-5
16248.046875; 9.30209E-5
16253.906250; 9.50833E-5
16259.765625; 9.75686E-5
16265.625000; 1.04784E-4
16271.484375; 1.02265E-4
16277.343750; 1.00161E-4
16283.203125; 1.09609E-4
16289.062500; 1.10937E-4
16294.921875; 1.08364E-4
16300.781250; 1.02885E-4
16306.640625; 1.01964E-4
16312.500000; 9.78378E-5
16318.359375; 9.19130E-5
16324.218750; 1.01365E-4
16330.078125; 9.63656E-5
16335.937500; 9.45749E-5
16341.796875; 9.51919E-5
16347.656250; 8.72105E-5
16353.515625; 9.19333E-5
16359.375000; 9.45988E-5
16365.234375; 1.00274E-4
16371.093750; 9.78499E-5
16376.953125; 9.10327E-5
16382.812500; 9.40395E-5
16388.671875; 8.92337E-5
16394.531250; 8.95676E-5
16400.390625; 9.80687E-5
16406.250000; 1.04900E-4
16412.109375; 1.01755E-4
16417.968750; 9.57894E-5
16423.828125; 8.95447E-5
16429.687500; 9.84412E-5
16435.546875; 9.40517E-5
16441.406250; 9.31905E-5
16447.265625; 1.03704E-4
16453.125000; 1.12688E-4
16458.984375; 1.06738E-4
16464.843750; 1.05595E-4
16470.703125; 9.45453E-5
16476.562500; 9.71212E-5
16482.421875; 9.89557E-5
16488.281250; 1.07958E-4
16494.140625; 1.04618E-4
16500.000000; 9.47769E-5
16505.859375; 9.22248E-5
16511.718750; 8.82308E-5
16517.578125; 9.95116E-5
16523.437500; 1.03380E-4
16529.296875; 9.36381E-5
16535.156250; 9.48781E-5
16541.015625; 9.02068E-5
16546.875000; 9.79130E-5
16552.734375; 9.62410E-5
16558.593750; 1.00151E-4
16564.453125; 1.04750E-4
16570.312500; 1.00475E-4
16576.171875; 1.00030E-4
16582.031250; 1.00807E-4
16587.890625; 1.03045E-4
16593.750000; 8.98887E-5
16599.609375; 9.59648E-5
16605.468750; 8.30729E-5
16611.328125; 1.00420E-4
16617.187500; 1.03848E-4
16623.046875; 9.40213E-5
16628.906250; 8.58222E-5
16634.765625; 8.85016E-5
16640.625000; 9.93427E-5
16646.484375; 1.10867E-4
16652.343750; 1.07960E-4
16658.203125; 1.00867E-4
16664.062500; 9.48333E-5
16669.921875; 9.58064E-5
16675.781250; 1.00640E-4
16681.640625; 1.00709E-4
16687.500000; 9.76204E-5
16693.359375; 9.86885E-5
16699.218750; 1.07314E-4
16705.078125; 1.09985E-4
16710.937500; 1.01202E-4
16716.796875; 1.02873E-4
16722.656250; 9.91574E-5
16728.515625; 9.78007E-5
16734.375000; 9.98782E-5
16740.234375; 9.35223E-5
16746.093750; 9.26943E-5
16751.953125; 1.02885E-4
16757.812500; 1.07892E-4
16763.671875; 1.03024E-4
16769.531250; 1.00603E-4
16775.390625; 1.02727E-4
16781.250000; 1.07973E-4
16787.109375; 1.21718E-4
16792.968750; 1.09593E-4
16798.828125; 1.00963E-4
16804.687500; 1.02461E-4
16810.546875; 9.80274E-5
16816.406250; 1.00005E-4
16822.265625; 1.08871E-4
16828.125000; 1.01161E-4
16833.984375; 9.28953E-5
16839.843750; 1.05326E-4
16845.703125; 1.09685E-4
16851.562500; 1.06525E-4
16857.421875; 9.68514E-5
16863.281250; 9.49845E-5
16869.140625; 8.77469E-5
16875.000000; 9.48386E-5
16880.859375; 1.02239E-4
16886.718750; 9.66545E-5
16892.578125; 8.89735E-5
16898.437500; 9.45348E-5
16904.296875; 9.21022E-5
16910.156250; 9.22916E-5
16916.015625; 9.61938E-5
16921.875000; 9.70110E-5
16927.734375; 1.04689E-4
16933.593750; 1.05808E-4
16939.453125; 9.90583E-5
16945.312500; 9.77444E-5
16951.171875; 1.03221E-4
16957.031250; 1.11887E-4
16962.890625; 1.11479E-4
16968.750000; 1.00969E-4
16974.609375; 1.01533E-4
16980.468750; 1.05165E-4
16986.328125; 1.02184E-4
16992.187500; 9.69501E-5
16998.046875; 9.99316E-5
17003.906250; 8.76850E-5
17009.765625; 9.65308E-5
17015.625000; 1.02195E-4
17021.484375; 1.03787E-4
17027.343750; 1.04509E-4
17033.203125; 9.70374E-5
17039.062500; 9.86761E-5
17044.921875; 9.35927E-5
17050.781250; 9.87317E-5
17056.640625; 1.00546E-4
17062.500000; 9.76144E-5
17068.359375; 1.04213E-4
17074.218750; 9.63833E-5
17080.078125; 9.99012E-5
17085.937500; 1.00639E-4
17091.796875; 1.05752E-4
17097.656250; 1.02906E-4
17103.515625; 9.14510E-5
17109.375000; 1.02318E-4
17115.234375; 1.01709E-4
17121.093750; 9.88271E-5
17126.953125; 9.41105E-5
17132.812500; 9.65141E-5
17138.671875; 9.83961E-5
17144.531250; 1.01588E-4
17150.390625; 9.80096E-5
17156.250000; 1.02040E-4
17162.109375; 1.02131E-4
17167.968750; 1.07933E-4
17173.828125; 1.05444E-4
17179.687500; 9.01708E-5
17185.546875; 9.39155E-5
17191.406250; 9.16294E-5
17197.265625; 9.31890E-5
17203.125000; 1.01421E-4
17208.984375; 1.09317E-4
17214.843750; 1.16353E-4
17220.703125; 1.11559E-4
17226.562500; 1.05986E-4
17232.421875; 1.03248E-4
17238.281250; 9.33828E-5
17244.140625; 9.63865E-5
17250.000000; 8.62447E-5
17255.859375; 9.26222E-5
17261.718750; 1.01188E-4
17267.578125; 9.61066E-5
17273.437500; 9.53521E-5
17279.296875; 1.02486E-4
17285.156250; 9.21492E-5
17291.015625; 9.66024E-5
17296.875000; 1.04309E-4
17302.734375; 1.01566E-4
17308.593750; 1.08765E-4
17314.453125; 1.15909E-4
17320.312500; 1.05416E-4
17326.171875; 9.03027E-5
17332.031250; 9.95864E-5
17337.890625; 9.40039E-5
17343.750000; 8.78523E-5
17349.609375; 9.39836E-5
17355.468750; 1.21057E-4
17361.328125; 1.00690E-4
17367.187500; 9.91302E-5
17373.046875; 1.05695E-4
17378.906250; 9.82754E-5
17384.765625; 9.26338E-5
17390.625000; 9.67266E-5
17396.484375; 1.02247E-4
17402.343750; 1.03640E-4
17408.203125; 1.12540E-4
17414.062500; 1.03965E-4
17419.921875; 9.77930E-5
17425.781250; 9.86023E-5
17431.640625; 1.05412E-4
17437.500000; 1.10668E-4
17443.359375; 1.05280E-4
17449.218750; 9.53825E-5
17455.078125; 8.95695E-5
17460.937500; 9.57151E-5
17466.796875; 9.37386E-5
17472.656250; 9.31668E-5
17478.515625; 9.69906E-5
17484.375000; 1.03457E-4
17490.234375; 9.79404E-5
17496.093750; 9.05559E-5
17501.953125; 8.86592E-5
17507.812500; 9.26689E-5
17513.671875; 9.32411E-5
17519.531250; 1.01019E-4
17525.390625; 1.06563E-4
17531.250000; 1.01127E-4
17537.109375; 1.00321E-4
17542.968750; 1.06465E-4
17548.828125; 1.01976E-4
17554.687500; 9.75480E-5
17560.546875; 9.86562E-5
17566.406250; 9.17646E-5
17572.265625; 9.62745E-5
17578.125000; 1.14077E-4
17583.984375; 1.10166E-4
17589.843750; 1.06811E-4
17595.703125; 1.02199E-4
17601.562500; 9.41351E-5
17607.421875; 9.25048E-5
17613.281250; 9.32042E-5
17619.140625; 9.15909E-5
17625.000000; 8.70106E-5
17630.859375; 9.03666E-5
17636.718750; 9.26191E-5
17642.578125; 1.05039E-4
17648.437500; 9.73131E-5
17654.296875; 9.84233E-5
17660.156250; 9.35469E-5
17666.015625; 9.20645E-5
17671.875000; 8.68628E-5
17677.734375; 9.23735E-5
17683.593750; 9.49502E-5
17689.453125; 9.81776E-5
17695.312500; 1.00297E-4
17701.171875; 9.06798E-5
17707.031250; 1.09380E-4
17712.890625; 1.06740E-4
17718.750000; 9.40135E-5
17724.609375; 9.88856E-5
17730.468750; 9.40001E-5
17736.328125; 8.29550E-5
17742.187500; 8.90910E-5
17748.046875; 9.35108E-5
17753.906250; 9.96261E-5
17759.765625; 9.71643E-5
17765.625000; 9.64597E-5
17771.484375; 9.92244E-5
17777.343750; 1.05245E-4
17783.203125; 1.09158E-4
17789.062500; 1.05720E-4
17794.921875; 1.01176E-4
17800.781250; 9.92931E-5
17806.640625; 9.13215E-5
17812.500000; 9.59318E-5
17818.359375; 9.60072E-5
17824.218750; 9.65813E-5
17830.078125; 1.04543E-4
17835.937500; 1.02571E-4
17841.796875; 9.53970E-5
17847.656250; 9.62110E-5
17853.515625; 1.04306E-4
17859.375000; 1.01559E-4
17865.234375; 9.75706E-5
17871.093750; 1.02527E-4
17876.953125; 1.01716E-4
17882.812500; 9.73087E-5
17888.671875; 9.02883E-5
17894.531250; 9.18244E-5
17900.390625; 9.31230E-5
17906.250000; 1.02271E-4
17912.109375; 1.01034E-4
17917.968750; 9.66222E-5
17923.828125; 1.01487E-4
17929.687500; 1.00347E-4
17935.546875; 1.02513E-4
17941.406250; 9.61334E-5
17947.265625; 9.57421E-5
17953.125000; 9.67023E-5
17958.984375; 1.05132E-4
17964.843750; 1.13412E-4
17970.703125; 1.10265E-4
17976.562500; 1.05629E-4
17982.421875; 9.70700E-5
17988.281250; 1.01895E-4
17994.140625; 1.00833E-4
18000.000000; 9.60725E-5
18005.859375; 9.80493E-5
18011.718750; 1.20834E-4
18017.578125; 1.08561E-4
18023.437500; 1.05128E-4
18029.296875; 9.79278E-5
18035.156250; 1.02227E-4
18041.015625; 9.89732E-5
18046.875000; 9.42603E-5
18052.734375; 1.00694E-4
18058.593750; 1.00883E-4
18064.453125; 1.01210E-4
18070.312500; 1.04549E-4
18076.171875; 9.89416E-5
18082.031250; 9.14684E-5
18087.890625; 8.94866E-5
18093.750000; 1.06462E-4
18099.609375; 1.09311E-4
18105.468750; 9.44940E-5
18111.328125; 9.61206E-5
18117.187500; 9.54827E-5
18123.046875; 8.74704E-5
18128.906250; 9.13754E-5
18134.765625; 9.24661E-5
18140.625000; 9.46379E-5
18146.484375; 9.02534E-5
18152.343750; 8.86987E-5
18158.203125; 8.89458E-5
18164.062500; 9.61905E-5
18169.921875; 9.82804E-5
18175.781250; 9.92570E-5
18181.640625; 1.05702E-4
18187.500000; 9.79290E-5
18193.359375; 9.77231E-5
18199.218750; 9.70284E-5
18205.078125; 9.81702E-5
18210.937500; 9.94730E-5
18216.796875; 9.80346E-5
18222.656250; 9.65979E-5
18228.515625; 1.05539E-4
18234.375000; 1.05617E-4
18240.234375; 1.06322E-4
18246.093750; 1.02240E-4
18251.953125; 9.52920E-5
18257.812500; 9.70893E-5
18263.671875; 9.53455E-5
18269.531250; 8.80125E-5
18275.390625; 8.64853E-5
18281.250000; 9.46572E-5
18287.109375; 9.91404E-5
18292.968750; 1.01833E-4
18298.828125; 9.89494E-5
18304.687500; 9.47543E-5
18310.546875; 9.36185E-5
18316.406250; 9.51179E-5
18322.265625; 1.02769E-4
18328.125000; 1.04276E-4
18333.984375; 9.71910E-5
18339.843750; 9.12397E-5
18345.703125; 9.41659E-5
18351.562500; 9.52017E-5
18357.421875; 9.55051E-5
18363.281250; 9.50865E-5
18369.140625; 1.03760E-4
18375.000000; 1.01133E-4
18380.859375; 9.99687E-5
18386.718750; 1.05501E-4
18392.578125; 9.69935E-5
18398.437500; 9.09825E-5
18404.296875; 9.55135E-5
18410.156250; 8.88166E-5
18416.015625; 8.70294E-5
18421.875000; 8.90799E-5
18427.734375; 9.73125E-5
18433.593750; 9.17062E-5
18439.453125; 9.70164E-5
18445.312500; 9.64230E-5
18451.171875; 9.53056E-5
18457.031250; 9.56881E-5
18462.890625; 8.93028E-5
18468.750000; 8.78674E-5
18474.609375; 8.61992E-5
18480.468750; 9.41587E-5
18486.328125; 1.00345E-4
18492.187500; 9.50995E-5
18498.046875; 9.74257E-5
18503.906250; 9.13651E-5
18509.765625; 9.08039E-5
18515.625000; 8.32978E-5
18521.484375; 9.55937E-5
18527.343750; 1.00566E-4
18533.203125; 9.84079E-5
18539.062500; 1.02549E-4
18544.921875; 9.66045E-5
18550.781250; 1.06370E-4
18556.640625; 1.04744E-4
18562.500000; 1.04591E-4
18568.359375; 1.04994E-4
18574.218750; 1.01246E-4
18580.078125; 1.01984E-4
18585.937500; 9.11338E-5
18591.796875; 9.17170E-5
18597.656250; 9.45203E-5
18603.515625; 8.87303E-5
18609.375000; 9.42656E-5
18615.234375; 9.40332E-5
18621.093750; 9.35466E-5
18626.953125; 9.27352E-5
18632.812500; 8.91915E-5
18638.671875; 9.35269E-5
18644.531250; 9.10487E-5
18650.390625; 8.55301E-5
18656.250000; 9.38901E-5
18662.109375; 9.69578E-5
18667.968750; 9.61575E-5
18673.828125; 9.45250E-5
18679.687500; 9.98842E-5
18685.546875; 8.42934E-5
18691.406250; 9.59074E-5
18697.265625; 1.04161E-4
18703.125000; 9.86973E-5
18708.984375; 8.97306E-5
18714.843750; 9.62433E-5
18720.703125; 9.18214E-5
18726.562500; 9.27843E-5
18732.421875; 9.50660E-5
18738.281250; 9.27758E-5
18744.140625; 9.93081E-5
18750.000000; 9.80177E-5
18755.859375; 9.10930E-5
18761.718750; 9.35019E-5
18767.578125; 1.00831E-4
18773.437500; 1.04986E-4
18779.296875; 1.01349E-4
18785.156250; 9.16846E-5
18791.015625; 9.39559E-5
18796.875000; 9.79166E-5
18802.734375; 9.39662E-5
18808.593750; 9.68922E-5
18814.453125; 9.02228E-5
18820.312500; 9.01279E-5
18826.171875; 9.13533E-5
18832.031250; 9.85929E-5
18837.890625; 9.14076E-5
18843.750000; 1.00547E-4
18849.609375; 1.13444E-4
18855.468750; 1.10028E-4
18861.328125; 9.95610E-5
18867.187500; 1.00668E-4
18873.046875; 9.46072E-5
18878.906250; 9.57436E-5
18884.765625; 9.49530E-5
18890.625000; 1.04524E-4
18896.484375; 1.13064E-4
18902.343750; 1.09478E-4
18908.203125; 9.33041E-5
18914.062500; 8.47837E-5
18919.921875; 9.50042E-5
18925.781250; 1.03486E-4
18931.640625; 1.04485E-4
18937.500000; 1.02902E-4
18943.359375; 9.73695E-5
18949.218750; 9.58198E-5
18955.078125; 9.51020E-5
18960.937500; 9.90689E-5
18966.796875; 9.51729E-5
18972.656250; 9.21686E-5
18978.515625; 9.86647E-5
18984.375000; 1.06654E-4
18990.234375; 1.05801E-4
18996.093750; 9.96502E-5
19001.953125; 9.68954E-5
19007.812500; 9.97136E-5
19013.671875; 1.02735E-4
19019.531250; 1.06134E-4
19025.390625; 1.06156E-4
19031.250000; 1.03997E-4
19037.109375; 1.00845E-4
19042.968750; 1.03753E-4
19048.828125; 9.66728E-5
19054.687500; 1.02990E-4
19060.546875; 9.89193E-5
19066.406250; 8.82204E-5
19072.265625; 9.82268E-5
19078.125000; 1.04672E-4
19083.984375; 1.08361E-4
19089.843750; 1.07441E-4
19095.703125; 9.64346E-5
19101.562500; 9.07384E-5
19107.421875; 9.65855E-5
19113.281250; 1.01188E-4
19119.140625; 9.58840E-5
19125.000000; 1.00842E-4
19130.859375; 1.01138E-4
19136.718750; 9.36048E-5
19142.578125; 9.08880E-5
19148.437500; 9.52880E-5
19154.296875; 9.52763E-5
19160.156250; 9.71525E-5
19166.015625; 9.44672E-5
19171.875000; 1.06810E-4
19177.734375; 1.12428E-4
19183.593750; 1.01809E-4
19189.453125; 1.07997E-4
19195.312500; 9.28160E-5
19201.171875; 8.78557E-5
19207.031250; 9.15637E-5
19212.890625; 9.71811E-5
19218.750000; 9.70908E-5
19224.609375; 9.04229E-5
19230.468750; 9.81635E-5
19236.328125; 1.04579E-4
19242.187500; 1.05379E-4
19248.046875; 9.83047E-5
19253.906250; 9.41333E-5
19259.765625; 9.48048E-5
19265.625000; 9.76985E-5
19271.484375; 9.31532E-5
19277.343750; 8.84511E-5
19283.203125; 9.65018E-5
19289.062500; 9.72054E-5
19294.921875; 9.58973E-5
19300.781250; 9.80503E-5
19306.640625; 9.84474E-5
19312.500000; 8.95657E-5
19318.359375; 9.21838E-5
19324.218750; 9.16679E-5
19330.078125; 1.00686E-4
19335.937500; 1.00354E-4
19341.796875; 9.48591E-5
19347.656250; 1.01737E-4
19353.515625; 9.59490E-5
19359.375000; 9.13779E-5
19365.234375; 1.05818E-4
19371.093750; 1.07243E-4
19376.953125; 9.94679E-5
19382.812500; 9.55561E-5
19388.671875; 9.44924E-5
19394.531250; 9.74029E-5
19400.390625; 9.31912E-5
19406.250000; 9.35971E-5
19412.109375; 9.86547E-5
19417.968750; 1.01220E-4
19423.828125; 9.72497E-5
19429.687500; 9.66970E-5
19435.546875; 9.57352E-5
19441.406250; 1.01147E-4
19447.265625; 9.69672E-5
19453.125000; 9.55915E-5
19458.984375; 9.05680E-5
19464.843750; 8.94697E-5
19470.703125; 9.85504E-5
19476.562500; 1.10745E-4
19482.421875; 1.00930E-4
19488.281250; 9.85927E-5
19494.140625; 1.09279E-4
19500.000000; 1.08010E-4
19505.859375; 9.74987E-5
19511.718750; 8.82780E-5
19517.578125; 1.04082E-4
19523.437500; 1.05714E-4
19529.296875; 9.40127E-5
19535.156250; 1.00282E-4
19541.015625; 1.08242E-4
19546.875000; 1.09624E-4
19552.734375; 9.92388E-5
19558.593750; 1.01952E-4
19564.453125; 1.13422E-4
19570.312500; 1.07859E-4
19576.171875; 9.47287E-5
19582.031250; 9.06842E-5
19587.890625; 9.47212E-5
19593.750000; 1.03110E-4
19599.609375; 1.06799E-4
19605.468750; 1.02570E-4
19611.328125; 1.04213E-4
19617.187500; 9.18458E-5
19623.046875; 9.68383E-5
19628.906250; 1.00855E-4
19634.765625; 1.01233E-4
19640.625000; 9.69071E-5
19646.484375; 9.53819E-5
19652.343750; 1.05128E-4
19658.203125; 9.68509E-5
19664.062500; 9.27273E-5
19669.921875; 9.92706E-5
19675.781250; 9.86305E-5
19681.640625; 9.08021E-5
19687.500000; 9.51707E-5
19693.359375; 9.82477E-5
19699.218750; 9.07538E-5
19705.078125; 1.00255E-4
19710.937500; 1.09736E-4
19716.796875; 9.08723E-5
19722.656250; 8.44885E-5
19728.515625; 8.86382E-5
19734.375000; 1.03701E-4
19740.234375; 1.01889E-4
19746.093750; 9.57131E-5
19751.953125; 9.58879E-5
19757.812500; 9.47401E-5
19763.671875; 9.66579E-5
19769.531250; 9.46696E-5
19775.390625; 1.00784E-4
19781.250000; 9.72825E-5
19787.109375; 8.92315E-5
19792.968750; 1.00385E-4
19798.828125; 1.00864E-4
19804.687500; 9.45158E-5
19810.546875; 9.45967E-5
19816.406250; 9.83672E-5
19822.265625; 1.00355E-4
19828.125000; 1.00187E-4
19833.984375; 1.01605E-4
19839.843750; 9.03144E-5
19845.703125; 9.49672E-5
19851.562500; 1.10171E-4
19857.421875; 1.15841E-4
19863.281250; 1.04986E-4
19869.140625; 8.96811E-5
19875.000000; 9.47016E-5
19880.859375; 9.69727E-5
19886.718750; 9.77254E-5
19892.578125; 1.01261E-4
19898.437500; 9.70922E-5
19904.296875; 9.58927E-5
19910.156250; 8.96932E-5
19916.015625; 8.93278E-5
19921.875000; 9.66013E-5
19927.734375; 1.06352E-4
19933.593750; 9.20472E-5
19939.453125; 8.72256E-5
19945.312500; 9.34486E-5
19951.171875; 1.02030E-4
19957.031250; 1.05623E-4
19962.890625; 9.90338E-5
19968.750000; 9.40586E-5
19974.609375; 8.48509E-5
19980.468750; 8.35836E-5
19986.328125; 9.57962E-5
19992.187500; 1.08638E-4
19998.046875; 1.09202E-4
20003.906250; 1.05228E-4
20009.765625; 9.56537E-5
20015.625000; 1.02819E-4
20021.484375; 1.00757E-4
20027.343750; 9.61917E-5
20033.203125; 1.00909E-4
20039.062500; 1.13198E-4
20044.921875; 1.03755E-4
20050.781250; 9.60593E-5
20056.640625; 9.65784E-5
20062.500000; 9.28153E-5
20068.359375; 9.87275E-5
20074.218750; 9.66845E-5
20080.078125; 9.68528E-5
20085.937500; 1.03084E-4
20091.796875; 1.00241E-4
20097.656250; 9.43391E-5
20103.515625; 9.94713E-5
20109.375000; 9.21024E-5
20115.234375; 9.24524E-5
20121.093750; 8.80070E-5
20126.953125; 8.94111E-5
20132.812500; 9.80073E-5
20138.671875; 1.02881E-4
20144.531250; 1.07555E-4
20150.390625; 8.55257E-5
20156.250000; 8.11664E-5
20162.109375; 9.22261E-5
20167.968750; 9.41166E-5
20173.828125; 9.31401E-5
20179.687500; 8.74337E-5
20185.546875; 9.25457E-5
20191.406250; 9.92455E-5
20197.265625; 9.87011E-5
20203.125000; 9.95485E-5
20208.984375; 1.01396E-4
20214.843750; 9.71596E-5
20220.703125; 9.89571E-5
20226.562500; 9.14183E-5
20232.421875; 8.94811E-5
20238.281250; 1.05113E-4
20244.140625; 1.00518E-4
20250.000000; 9.92989E-5
20255.859375; 9.55560E-5
20261.718750; 9.99543E-5
20267.578125; 1.14634E-4
20273.437500; 1.19925E-4
20279.296875; 1.06211E-4
20285.156250; 9.31448E-5
20291.015625; 9.51696E-5
20296.875000; 8.82304E-5
20302.734375; 9.33887E-5
20308.593750; 9.64850E-5
20314.453125; 8.95731E-5
20320.312500; 9.35495E-5
20326.171875; 9.58137E-5
20332.031250; 8.90572E-5
20337.890625; 9.14361E-5
20343.750000; 9.28556E-5
20349.609375; 9.82122E-5
20355.468750; 9.62925E-5
20361.328125; 1.00024E-4
20367.187500; 1.10087E-4
20373.046875; 1.06185E-4
20378.906250; 9.66584E-5
20384.765625; 9.89828E-5
20390.625000; 1.01768E-4
20396.484375; 9.25657E-5
20402.343750; 9.67569E-5
20408.203125; 9.84746E-5
20414.062500; 9.44975E-5
20419.921875; 9.91195E-5
20425.781250; 1.00896E-4
20431.640625; 8.96850E-5
20437.500000; 9.60436E-5
20443.359375; 1.01033E-4
20449.218750; 9.74308E-5
20455.078125; 1.01794E-4
20460.937500; 9.84240E-5
20466.796875; 8.93170E-5
20472.656250; 9.19127E-5
20478.515625; 9.43708E-5
20484.375000; 9.64400E-5
20490.234375; 1.06751E-4
20496.093750; 9.91139E-5
20501.953125; 9.79436E-5
20507.812500; 1.04969E-4
20513.671875; 9.47494E-5
20519.531250; 9.98391E-5
20525.390625; 1.15967E-4
20531.250000; 1.00750E-4
20537.109375; 9.40327E-5
20542.968750; 9.44252E-5
20548.828125; 9.99972E-5
20554.687500; 1.06814E-4
20560.546875; 1.01095E-4
20566.406250; 8.54552E-5
20572.265625; 1.00563E-4
20578.125000; 9.79914E-5
20583.984375; 9.37393E-5
20589.843750; 1.03409E-4
20595.703125; 9.21604E-5
20601.562500; 8.87306E-5
20607.421875; 9.35479E-5
20613.281250; 9.24256E-5
20619.140625; 9.53346E-5
20625.000000; 9.49508E-5
20630.859375; 8.50515E-5
20636.718750; 1.01557E-4
20642.578125; 1.01379E-4
20648.437500; 9.26230E-5
20654.296875; 8.92841E-5
20660.156250; 8.60012E-5
20666.015625; 8.87830E-5
20671.875000; 8.49384E-5
20677.734375; 8.45468E-5
20683.593750; 9.31903E-5
20689.453125; 8.52865E-5
20695.312500; 9.25555E-5
20701.171875; 9.42553E-5
20707.031250; 1.00240E-4
20712.890625; 9.97757E-5
20718.750000; 9.91032E-5
20724.609375; 9.48844E-5
20730.468750; 8.64182E-5
20736.328125; 9.53444E-5
20742.187500; 1.04065E-4
20748.046875; 9.63188E-5
20753.906250; 8.83451E-5
20759.765625; 9.77011E-5
20765.625000; 9.38167E-5
20771.484375; 1.05836E-4
20777.343750; 1.03355E-4
20783.203125; 1.02524E-4
20789.062500; 9.54602E-5
20794.921875; 9.66928E-5
20800.781250; 9.50407E-5
20806.640625; 8.39795E-5
20812.500000; 9.42222E-5
20818.359375; 1.02973E-4
20824.218750; 9.24926E-5
20830.078125; 9.26292E-5
20835.937500; 9.63703E-5
20841.796875; 9.78977E-5
20847.656250; 9.45787E-5
20853.515625; 1.01831E-4
20859.375000; 9.71055E-5
20865.234375; 1.02460E-4
20871.093750; 1.06372E-4
20876.953125; 9.76213E-5
20882.812500; 9.92472E-5
20888.671875; 9.80062E-5
20894.531250; 9.86930E-5
20900.390625; 9.59625E-5
20906.250000; 9.14221E-5
20912.109375; 9.75889E-5
20917.968750; 9.97594E-5
20923.828125; 9.52783E-5
20929.687500; 9.67149E-5
20935.546875; 9.80018E-5
20941.406250; 9.38473E-5
20947.265625; 8.95855E-5
20953.125000; 1.00663E-4
20958.984375; 1.04229E-4
20964.843750; 9.32305E-5
20970.703125; 9.34575E-5
20976.562500; 1.01353E-4
20982.421875; 9.61584E-5
20988.281250; 9.60812E-5
20994.140625; 9.58927E-5
21000.000000; 1.01716E-4
21005.859375; 1.01255E-4
21011.718750; 9.88127E-5
21017.578125; 1.06050E-4
21023.437500; 1.02631E-4
21029.296875; 1.01906E-4
21035.156250; 9.90246E-5
21041.015625; 8.57264E-5
21046.875000; 9.75707E-5
21052.734375; 1.02853E-4
21058.593750; 1.03099E-4
21064.453125; 1.08205E-4
21070.312500; 1.14080E-4
21076.171875; 1.04251E-4
21082.031250; 9.51197E-5
21087.890625; 9.08264E-5
21093.750000; 9.76224E-5
21099.609375; 1.06781E-4
21105.468750; 1.00498E-4
21111.328125; 8.89201E-5
21117.187500; 9.43636E-5
21123.046875; 9.46712E-5
21128.906250; 9.11130E-5
21134.765625; 9.37485E-5
21140.625000; 9.45527E-5
21146.484375; 9.26107E-5
21152.343750; 1.03149E-4
21158.203125; 1.04470E-4
21164.062500; 9.90290E-5
21169.921875; 1.03781E-4
21175.781250; 1.03963E-4
21181.640625; 9.40194E-5
21187.500000; 9.40451E-5
21193.359375; 9.64629E-5
21199.218750; 8.92041E-5
21205.078125; 9.34888E-5
21210.937500; 1.00164E-4
21216.796875; 1.03066E-4
21222.656250; 9.08499E-5
21228.515625; 8.79548E-5
21234.375000; 9.85270E-5
21240.234375; 9.71816E-5
21246.093750; 9.36074E-5
21251.953125; 8.85180E-5
21257.812500; 9.42242E-5
21263.671875; 9.73666E-5
21269.531250; 8.97072E-5
21275.390625; 8.93428E-5
21281.250000; 8.98418E-5
21287.109375; 9.46527E-5
21292.968750; 1.00826E-4
21298.828125; 8.88920E-5
21304.687500; 9.41884E-5
21310.546875; 9.78270E-5
21316.406250; 9.64775E-5
21322.265625; 9.51597E-5
21328.125000; 9.75292E-5
21333.984375; 1.01652E-4
21339.843750; 9.69039E-5
21345.703125; 9.53396E-5
21351.562500; 1.02884E-4
21357.421875; 1.04224E-4
21363.281250; 1.06506E-4
21369.140625; 9.98589E-5
21375.000000; 8.77838E-5
21380.859375; 9.08435E-5
21386.718750; 9.12294E-5
21392.578125; 8.70222E-5
21398.437500; 8.70085E-5
21404.296875; 9.31287E-5
21410.156250; 9.77134E-5
21416.015625; 1.06834E-4
21421.875000; 1.00972E-4
21427.734375; 1.02971E-4
21433.593750; 1.04332E-4
21439.453125; 9.70778E-5
21445.312500; 9.47475E-5
21451.171875; 9.17925E-5
21457.031250; 9.39665E-5
21462.890625; 1.09318E-4
21468.750000; 1.00316E-4
21474.609375; 9.75938E-5
21480.468750; 9.76841E-5
21486.328125; 9.79847E-5
21492.187500; 9.50103E-5
21498.046875; 8.45214E-5
21503.906250; 9.12103E-5
21509.765625; 8.13981E-5
21515.625000; 9.56685E-5
21521.484375; 1.14654E-4
21527.343750; 1.15795E-4
21533.203125; 1.02199E-4
21539.062500; 9.70562E-5
21544.921875; 1.03355E-4
21550.781250; 9.71876E-5
21556.640625; 8.64466E-5
21562.500000; 9.79768E-5
21568.359375; 9.57120E-5
21574.218750; 9.94954E-5
21580.078125; 1.05053E-4
21585.937500; 1.07393E-4
21591.796875; 9.73617E-5
21597.656250; 9.41325E-5
21603.515625; 8.60758E-5
21609.375000; 8.87793E-5
21615.234375; 9.61604E-5
21621.093750; 9.59276E-5
21626.953125; 9.72229E-5
21632.812500; 9.50236E-5
21638.671875; 9.63491E-5
21644.531250; 9.44945E-5
21650.390625; 9.39212E-5
21656.250000; 1.04159E-4
21662.109375; 9.61367E-5
21667.968750; 9.74383E-5
21673.828125; 8.77977E-5
21679.687500; 8.87312E-5
21685.546875; 9.96148E-5
21691.406250; 1.07835E-4
21697.265625; 1.06419E-4
21703.125000; 9.97392E-5
21708.984375; 1.00805E-4
21714.843750; 1.02367E-4
21720.703125; 9.77469E-5
21726.562500; 9.40892E-5
21732.421875; 8.97890E-5
21738.281250; 9.49184E-5
21744.140625; 9.16831E-5
21750.000000; 9.54401E-5
21755.859375; 1.00031E-4
21761.718750; 1.00488E-4
21767.578125; 1.03433E-4
21773.437500; 9.24896E-5
21779.296875; 9.33599E-5
21785.156250; 9.86548E-5
21791.015625; 8.91981E-5
21796.875000; 8.76931E-5
21802.734375; 9.57685E-5
21808.593750; 1.01978E-4
21814.453125; 8.64985E-5
21820.312500; 7.86683E-5
21826.171875; 9.05663E-5
21832.031250; 1.02208E-4
21837.890625; 1.07280E-4
21843.750000; 1.02667E-4
21849.609375; 9.16281E-5
21855.468750; 9.36223E-5
21861.328125; 1.04742E-4
21867.187500; 1.02885E-4
21873.046875; 9.56551E-5
21878.906250; 1.01216E-4
21884.765625; 9.51121E-5
21890.625000; 8.92362E-5
21896.484375; 9.80989E-5
21902.343750; 1.04911E-4
21908.203125; 9.53068E-5
21914.062500; 8.81592E-5
21919.921875; 8.44533E-5
21925.781250; 8.85323E-5
21931.640625; 9.54043E-5
21937.500000; 9.09460E-5
21943.359375; 9.79868E-5
21949.218750; 9.35093E-5
21955.078125; 9.30437E-5
21960.937500; 9.87804E-5
21966.796875; 9.12677E-5
21972.656250; 9.16640E-5
21978.515625; 9.16591E-5
21984.375000; 9.32280E-5
21990.234375; 9.50742E-5
21996.093750; 9.58825E-5
22001.953125; 9.66406E-5
22007.812500; 1.00398E-4
22013.671875; 9.72636E-5
22019.531250; 8.62895E-5
22025.390625; 9.16409E-5
22031.250000; 9.34614E-5
22037.109375; 1.01941E-4
22042.968750; 9.07842E-5
22048.828125; 9.38432E-5
22054.687500; 1.01324E-4
22060.546875; 9.15706E-5
22066.406250; 9.37412E-5
22072.265625; 9.53094E-5
22078.125000; 9.62228E-5
22083.984375; 1.00101E-4
22089.843750; 1.07866E-4
22095.703125; 9.84065E-5
22101.562500; 9.56000E-5
22107.421875; 1.00923E-4
22113.281250; 1.00359E-4
22119.140625; 9.45314E-5
22125.000000; 9.42286E-5
22130.859375; 9.47694E-5
22136.718750; 9.17933E-5
22142.578125; 9.57731E-5
22148.437500; 9.06184E-5
22154.296875; 9.80298E-5
22160.156250; 9.98017E-5
22166.015625; 1.00361E-4
22171.875000; 9.31612E-5
22177.734375; 9.53238E-5
22183.593750; 9.54938E-5
22189.453125; 9.64663E-5
22195.312500; 1.00408E-4
22201.171875; 9.75541E-5
22207.031250; 9.03928E-5
22212.890625; 8.98277E-5
22218.750000; 9.39675E-5
22224.609375; 8.72938E-5
22230.468750; 8.87232E-5
22236.328125; 9.02439E-5
22242.187500; 8.93511E-5
22248.046875; 9.25183E-5
22253.906250; 8.47099E-5
22259.765625; 9.10150E-5
22265.625000; 9.36070E-5
22271.484375; 9.04853E-5
22277.343750; 8.98166E-5
22283.203125; 9.06607E-5
22289.062500; 1.00852E-4
22294.921875; 9.57283E-5
22300.781250; 8.25260E-5
22306.640625; 8.81895E-5
22312.500000; 8.56339E-5
22318.359375; 8.81133E-5
22324.218750; 8.33956E-5
22330.078125; 8.36721E-5
22335.937500; 9.27067E-5
22341.796875; 8.62386E-5
22347.656250; 8.95109E-5
22353.515625; 9.66456E-5
22359.375000; 9.01294E-5
22365.234375; 8.55310E-5
22371.093750; 8.66588E-5
22376.953125; 8.43282E-5
22382.812500; 9.23873E-5
22388.671875; 9.05727E-5
22394.531250; 7.96072E-5
22400.390625; 8.49347E-5
22406.250000; 8.51009E-5
22412.109375; 8.57740E-5
22417.968750; 9.62605E-5
22423.828125; 9.12523E-5
22429.687500; 9.37114E-5
22435.546875; 9.75932E-5
22441.406250; 9.62614E-5
22447.265625; 9.76977E-5
22453.125000; 8.85437E-5
22458.984375; 8.20826E-5
22464.843750; 9.71363E-5
22470.703125; 1.01404E-4
22476.562500; 8.47984E-5
22482.421875; 8.98861E-5
22488.281250; 9.30082E-5
22494.140625; 8.70376E-5
22500.000000; 7.57551E-5
22505.859375; 7.93637E-5
22511.718750; 8.52639E-5
22517.578125; 9.59563E-5
22523.437500; 1.03802E-4
22529.296875; 8.98190E-5
22535.156250; 9.01847E-5
22541.015625; 8.23263E-5
22546.875000; 8.44218E-5
22552.734375; 9.00078E-5
22558.593750; 8.76333E-5
22564.453125; 8.92220E-5
22570.312500; 8.72348E-5
22576.171875; 7.94270E-5
22582.031250; 8.35597E-5
22587.890625; 8.36222E-5
22593.750000; 7.73888E-5
22599.609375; 8.33970E-5
22605.468750; 8.27466E-5
22611.328125; 7.44257E-5
22617.187500; 7.95802E-5
22623.046875; 8.02260E-5
22628.906250; 7.99824E-5
22634.765625; 8.11238E-5
22640.625000; 7.68586E-5
22646.484375; 9.56092E-5
22652.343750; 9.65024E-5
22658.203125; 8.45194E-5
22664.062500; 8.88419E-5
22669.921875; 9.32048E-5
22675.781250; 7.73034E-5
22681.640625; 8.10025E-5
22687.500000; 8.58713E-5
22693.359375; 8.78456E-5
22699.218750; 9.10535E-5
22705.078125; 7.82051E-5
22710.937500; 7.98395E-5
22716.796875; 8.23436E-5
22722.656250; 8.55201E-5
22728.515625; 7.68011E-5
22734.375000; 8.24995E-5
22740.234375; 7.62341E-5
22746.093750; 8.06784E-5
22751.953125; 7.85372E-5
22757.812500; 7.53175E-5
22763.671875; 7.84072E-5
22769.531250; 8.15570E-5
22775.390625; 8.46193E-5
22781.250000; 7.96395E-5
22787.109375; 7.87171E-5
22792.968750; 7.77871E-5
22798.828125; 7.97992E-5
22804.687500; 8.30540E-5
22810.546875; 8.58438E-5
22816.406250; 8.29393E-5
22822.265625; 7.75224E-5
22828.125000; 7.23782E-5
22833.984375; 7.92440E-5
22839.843750; 7.25530E-5
22845.703125; 8.00915E-5
22851.562500; 8.25901E-5
22857.421875; 8.59259E-5
22863.281250; 8.12653E-5
22869.140625; 7.87100E-5
22875.000000; 8.47569E-5
22880.859375; 8.95913E-5
22886.718750; 8.11844E-5
22892.578125; 8.14461E-5
22898.437500; 7.39868E-5
22904.296875; 7.91821E-5
22910.156250; 7.13675E-5
22916.015625; 7.57811E-5
22921.875000; 6.79112E-5
22927.734375; 7.10867E-5
22933.593750; 7.95392E-5
22939.453125; 7.41844E-5
22945.312500; 7.85803E-5
22951.171875; 7.85799E-5
22957.031250; 6.39272E-5
22962.890625; 6.54314E-5
22968.750000; 7.24460E-5
22974.609375; 7.56291E-5
22980.468750; 8.05159E-5
22986.328125; 7.94479E-5
22992.187500; 7.53993E-5
22998.046875; 6.88071E-5
23003.906250; 6.85473E-5
23009.765625; 6.68229E-5
23015.625000; 7.50266E-5
23021.484375; 8.20153E-5
23027.343750; 8.09369E-5
23033.203125; 7.40909E-5
23039.062500; 7.21023E-5
23044.921875; 6.72959E-5
23050.781250; 7.10547E-5
23056.640625; 6.65154E-5
23062.500000; 6.26874E-5
23068.359375; 6.80838E-5
23074.218750; 6.83623E-5
23080.078125; 6.60178E-5
23085.937500; 7.19096E-5
23091.796875; 6.71985E-5
23097.656250; 6.70024E-5
23103.515625; 6.82567E-5
23109.375000; 6.41181E-5
23115.234375; 6.30838E-5
23121.093750; 6.81571E-5
23126.953125; 6.74773E-5
23132.812500; 6.53516E-5
23138.671875; 6.01228E-5
23144.531250; 6.21205E-5
23150.390625; 6.38321E-5
23156.250000; 7.02429E-5
23162.109375; 7.23922E-5
23167.968750; 6.14535E-5
23173.828125; 6.62045E-5
23179.687500; 6.80421E-5
23185.546875; 6.16532E-5
23191.406250; 6.39611E-5
23197.265625; 6.05019E-5
23203.125000; 6.47146E-5
23208.984375; 6.68232E-5
23214.843750; 6.16420E-5
23220.703125; 5.56182E-5
23226.562500; 6.31968E-5
23232.421875; 6.86784E-5
23238.281250; 6.52231E-5
23244.140625; 6.18394E-5
23250.000000; 6.09236E-5
23255.859375; 5.92154E-5
23261.718750; 5.32905E-5
23267.578125; 5.92853E-5
23273.437500; 5.58595E-5
23279.296875; 5.09986E-5
23285.156250; 5.88785E-5
23291.015625; 6.36829E-5
23296.875000; 6.28442E-5
23302.734375; 6.42652E-5
23308.593750; 5.63033E-5
23314.453125; 5.16351E-5
23320.312500; 5.51854E-5
23326.171875; 5.33213E-5
23332.031250; 5.25929E-5
23337.890625; 5.44696E-5
23343.750000; 5.44089E-5
23349.609375; 5.49240E-5
23355.468750; 4.58531E-5
23361.328125; 5.03512E-5
23367.187500; 5.30741E-5
23373.046875; 4.91501E-5
23378.906250; 5.11432E-5
23384.765625; 5.38921E-5
23390.625000; 5.55931E-5
23396.484375; 5.07110E-5
23402.343750; 4.88210E-5
23408.203125; 4.83036E-5
23414.062500; 4.86233E-5
23419.921875; 5.30464E-5
23425.781250; 5.76836E-5
23431.640625; 5.15646E-5
23437.500000; 5.11564E-5
23443.359375; 5.51060E-5
23449.218750; 5.04489E-5
23455.078125; 4.74305E-5
23460.937500; 4.72637E-5
23466.796875; 4.97995E-5
23472.656250; 5.25975E-5
23478.515625; 5.13959E-5
23484.375000; 5.20820E-5
23490.234375; 4.65799E-5
23496.093750; 4.78500E-5
23501.953125; 5.08644E-5
23507.812500; 4.73813E-5
23513.671875; 4.55303E-5
23519.531250; 6.07241E-5
23525.390625; 7.09159E-5
23531.250000; 5.14405E-5
23537.109375; 5.17894E-5
23542.968750; 5.15771E-5
23548.828125; 4.69957E-5
23554.687500; 4.08180E-5
23560.546875; 4.18618E-5
23566.406250; 4.16832E-5
23572.265625; 4.36978E-5
23578.125000; 4.30530E-5
23583.984375; 4.04662E-5
23589.843750; 4.61753E-5
23595.703125; 4.54477E-5
23601.562500; 3.97383E-5
23607.421875; 4.46148E-5
23613.281250; 4.25036E-5
23619.140625; 4.53763E-5
23625.000000; 4.31583E-5
23630.859375; 4.37884E-5
23636.718750; 4.46534E-5
23642.578125; 4.73321E-5
23648.437500; 4.65523E-5
23654.296875; 4.37759E-5
23660.156250; 4.50020E-5
23666.015625; 3.84571E-5
23671.875000; 4.36774E-5
23677.734375; 4.37414E-5
23683.593750; 3.93582E-5
23689.453125; 3.87932E-5
23695.312500; 4.26141E-5
23701.171875; 4.01066E-5
23707.031250; 3.76866E-5
23712.890625; 3.78799E-5
23718.750000; 3.64338E-5
23724.609375; 3.37199E-5
23730.468750; 3.59619E-5
23736.328125; 3.59493E-5
23742.187500; 3.79192E-5
23748.046875; 3.64917E-5
23753.906250; 3.41112E-5
23759.765625; 3.48463E-5
23765.625000; 3.50005E-5
23771.484375; 3.25322E-5
23777.343750; 3.49396E-5
23783.203125; 3.47137E-5
23789.062500; 3.54239E-5
23794.921875; 3.68297E-5
23800.781250; 3.79907E-5
23806.640625; 4.05813E-5
23812.500000; 3.66573E-5
23818.359375; 3.45665E-5
23824.218750; 3.61166E-5
23830.078125; 3.51193E-5
23835.937500; 3.20204E-5
23841.796875; 3.17029E-5
23847.656250; 3.72133E-5
23853.515625; 3.75163E-5
23859.375000; 3.68117E-5
23865.234375; 3.55092E-5
23871.093750; 3.66117E-5
23876.953125; 3.76952E-5
23882.812500; 3.64643E-5
23888.671875; 3.52533E-5
23894.531250; 3.29785E-5
23900.390625; 3.08691E-5
23906.250000; 3.13389E-5
23912.109375; 3.17709E-5
23917.968750; 3.38473E-5
23923.828125; 3.52436E-5
23929.687500; 3.46051E-5
23935.546875; 3.64401E-5
23941.406250; 3.71395E-5
23947.265625; 3.56962E-5
23953.125000; 3.60728E-5
23958.984375; 3.42289E-5
23964.843750; 3.24764E-5
23970.703125; 3.10543E-5
23976.562500; 2.92766E-5
23982.421875; 2.91229E-5
23988.281250; 3.11696E-5
23994.140625; 3.16910E-5
