* Measurement data measured by REW V5.31.3
* Source: PCM: default, no input selected, 2, volume: no control
* Format: 8192-point spectrum using Hann window and exponential averaging 0.97 
* Dated: Mar 9, 2025 12:45:45 PM
* REW Settings:
*  C-weighting compensation: Off
*  Target level: 75.0 dB
* Note: OSDEHA ANODE-OUTPUT; 8192-point spectrum using Hann window and exponential averaging 0.97  Input RMS 10.00 V 10.00 VC, 10.00 VA 10.00 V 22 - 22k UNW 874.9 uV >22k Distortion at 1,000.0 Hz, -20.00 dBFS: Gain: 29.35 dB THD: 0.0099 % based on 21 harmonics  [0..22800 Hz] HHD: 0.0036 %  [10 .. 22] N: 0.13 %  [0..22800 Hz] N+D: 4.282 mV A THD+N: 0.13 %  [0..22800 Hz] SNR: 58.0 dB ENOB: 13.2 bits 2nd harmonic 0.0088 % -147 deg 3rd harmonic 0.0012 % 109 deg 4th harmonic 0.00098 % 153 deg 5th harmonic 0.0011 % 107 deg 6th harmonic 0.0011 % -108 deg 7th harmonic 0.0011 % -112 deg 8th harmonic 0.00098 % 101 deg 9th harmonic 0.0010 % -150 deg 
* Measurement: OSDEHA A-OUT 10V
* Smoothing: None
* Frequency Step: 5.859375 Hz
* Start Frequency: 5.859375 Hz
*
* Freq(Hz); V(V)
5.859375; 7.73582E-4
11.718750; 4.22867E-4
17.578125; 2.47942E-4
23.437500; 1.77863E-4
29.296875; 1.66355E-4
35.156250; 1.59179E-4
41.015625; 1.70006E-4
46.875000; 3.91351E-4
52.734375; 3.98230E-4
58.593750; 1.56495E-4
64.453125; 1.26956E-4
70.312500; 1.38764E-4
76.171875; 1.37346E-4
82.031250; 1.44813E-4
87.890625; 1.84129E-4
93.750000; 5.07202E-3
99.609375; 1.12588E-2
105.468750; 6.21575E-3
111.328125; 1.81323E-4
117.187500; 1.29462E-4
123.046875; 1.29449E-4
128.906250; 1.37008E-4
134.765625; 1.27925E-4
140.625000; 1.13337E-4
146.484375; 1.32732E-4
152.343750; 1.49966E-4
158.203125; 1.27210E-4
164.062500; 1.20125E-4
169.921875; 1.16997E-4
175.781250; 1.22689E-4
181.640625; 1.13379E-4
187.500000; 1.04932E-4
193.359375; 6.78173E-4
199.218750; 1.64760E-3
205.078125; 1.00604E-3
210.937500; 1.30178E-4
216.796875; 1.13018E-4
222.656250; 1.12826E-4
228.515625; 1.05439E-4
234.375000; 1.04357E-4
240.234375; 1.09081E-4
246.093750; 1.33483E-4
251.953125; 1.59871E-4
257.812500; 1.24666E-4
263.671875; 1.27422E-4
269.531250; 1.21368E-4
275.390625; 1.13794E-4
281.250000; 1.03878E-4
287.109375; 9.85202E-5
292.968750; 1.20143E-4
298.828125; 2.27752E-4
304.687500; 1.77253E-4
310.546875; 1.05694E-4
316.406250; 1.05988E-4
322.265625; 1.02512E-4
328.125000; 9.62939E-5
333.984375; 1.04184E-4
339.843750; 1.05911E-4
345.703125; 1.35359E-4
351.562500; 1.68745E-4
357.421875; 1.15725E-4
363.281250; 1.01182E-4
369.140625; 1.04314E-4
375.000000; 1.22356E-4
380.859375; 1.18936E-4
386.718750; 1.22320E-4
392.578125; 2.08347E-4
398.437500; 5.24312E-4
404.296875; 3.83402E-4
410.156250; 1.24015E-4
416.015625; 1.13964E-4
421.875000; 1.01883E-4
427.734375; 1.06790E-4
433.593750; 1.16332E-4
439.453125; 1.26521E-4
445.312500; 1.43009E-4
451.171875; 1.41920E-4
457.031250; 1.00637E-4
462.890625; 1.01577E-4
468.750000; 1.09118E-4
474.609375; 1.17106E-4
480.468750; 1.09344E-4
486.328125; 1.09957E-4
492.187500; 1.57212E-4
498.046875; 3.39003E-4
503.906250; 2.68763E-4
509.765625; 1.11589E-4
515.625000; 1.09777E-4
521.484375; 1.05645E-4
527.343750; 1.03199E-4
533.203125; 1.03727E-4
539.062500; 1.07704E-4
544.921875; 1.13007E-4
550.781250; 1.10931E-4
556.640625; 9.79026E-5
562.500000; 1.09839E-4
568.359375; 1.08219E-4
574.218750; 1.09631E-4
580.078125; 1.08091E-4
585.937500; 1.06725E-4
591.796875; 1.18212E-4
597.656250; 1.16819E-4
603.515625; 1.18314E-4
609.375000; 1.08798E-4
615.234375; 1.00745E-4
621.093750; 1.04595E-4
626.953125; 1.15251E-4
632.812500; 1.06483E-4
638.671875; 9.72310E-5
644.531250; 1.00374E-4
650.390625; 1.24739E-4
656.250000; 1.14925E-4
662.109375; 1.05718E-4
667.968750; 1.00197E-4
673.828125; 1.07012E-4
679.687500; 1.03894E-4
685.546875; 1.10241E-4
691.406250; 1.11380E-4
697.265625; 2.21459E-4
703.125000; 2.08664E-4
708.984375; 1.13862E-4
714.843750; 1.11703E-4
720.703125; 1.09839E-4
726.562500; 1.08151E-4
732.421875; 1.08574E-4
738.281250; 1.00911E-4
744.140625; 1.21601E-4
750.000000; 1.24882E-4
755.859375; 1.21137E-4
761.718750; 1.12744E-4
767.578125; 9.97537E-5
773.437500; 1.11673E-4
779.296875; 1.27407E-4
785.156250; 1.20421E-4
791.015625; 1.18178E-4
796.875000; 1.83526E-4
802.734375; 1.98308E-4
808.593750; 1.34953E-4
814.453125; 1.50460E-4
820.312500; 1.42787E-4
826.171875; 1.49441E-4
832.031250; 1.64145E-4
837.890625; 1.60909E-4
843.750000; 1.97943E-4
849.609375; 1.89409E-4
855.468750; 2.21390E-4
861.328125; 2.35498E-4
867.187500; 2.44424E-4
873.046875; 3.04610E-4
878.906250; 3.26232E-4
884.765625; 3.70659E-4
890.625000; 4.36763E-4
896.484375; 5.30019E-4
902.343750; 6.07658E-4
908.203125; 7.42849E-4
914.062500; 8.82986E-4
919.921875; 1.08173E-3
925.781250; 1.37575E-3
931.640625; 1.74217E-3
937.500000; 2.30565E-3
943.359375; 3.06901E-3
949.218750; 4.30288E-3
955.078125; 6.21634E-3
960.937500; 9.52558E-3
966.796875; 1.56244E-2
972.656250; 2.84295E-2
978.515625; 6.03809E-2
984.375000; 1.69118E-1
990.234375; 9.30057E-1
996.093750; 7.44053E0
1001.953125; 9.30065E0
1007.812500; 2.65732E0
1013.671875; 2.65731E-1
1019.531250; 8.17641E-2
1025.390625; 3.57897E-2
1031.250000; 1.88111E-2
1037.109375; 1.11387E-2
1042.968750; 7.10068E-3
1048.828125; 4.84556E-3
1054.687500; 3.42709E-3
1060.546875; 2.53152E-3
1066.406250; 1.90392E-3
1072.265625; 1.48355E-3
1078.125000; 1.16660E-3
1083.984375; 9.52693E-4
1089.843750; 7.75063E-4
1095.703125; 6.46885E-4
1101.562500; 5.35917E-4
1107.421875; 4.64556E-4
1113.281250; 4.06422E-4
1119.140625; 3.29727E-4
1125.000000; 3.07060E-4
1130.859375; 2.76676E-4
1136.718750; 2.42930E-4
1142.578125; 2.09440E-4
1148.437500; 2.08676E-4
1154.296875; 1.99824E-4
1160.156250; 1.77953E-4
1166.015625; 1.50954E-4
1171.875000; 1.48074E-4
1177.734375; 1.37838E-4
1183.593750; 1.42331E-4
1189.453125; 1.15018E-4
1195.312500; 1.28109E-4
1201.171875; 1.48948E-4
1207.031250; 1.29430E-4
1212.890625; 1.16201E-4
1218.750000; 1.00974E-4
1224.609375; 1.18244E-4
1230.468750; 1.14681E-4
1236.328125; 1.21880E-4
1242.187500; 1.13096E-4
1248.046875; 1.13353E-4
1253.906250; 1.23249E-4
1259.765625; 1.07697E-4
1265.625000; 1.15513E-4
1271.484375; 1.09719E-4
1277.343750; 1.00425E-4
1283.203125; 9.45287E-5
1289.062500; 1.04010E-4
1294.921875; 1.09268E-4
1300.781250; 1.05815E-4
1306.640625; 1.02732E-4
1312.500000; 1.02839E-4
1318.359375; 1.09871E-4
1324.218750; 1.16614E-4
1330.078125; 1.15807E-4
1335.937500; 1.10897E-4
1341.796875; 1.11699E-4
1347.656250; 1.13850E-4
1353.515625; 1.17658E-4
1359.375000; 1.13705E-4
1365.234375; 1.18090E-4
1371.093750; 1.12478E-4
1376.953125; 1.09981E-4
1382.812500; 9.42599E-5
1388.671875; 1.03857E-4
1394.531250; 1.23819E-4
1400.390625; 1.29474E-4
1406.250000; 1.14617E-4
1412.109375; 1.13801E-4
1417.968750; 1.04645E-4
1423.828125; 9.98229E-5
1429.687500; 1.02304E-4
1435.546875; 1.08210E-4
1441.406250; 1.02031E-4
1447.265625; 1.12088E-4
1453.125000; 1.11959E-4
1458.984375; 1.05739E-4
1464.843750; 1.13373E-4
1470.703125; 1.05920E-4
1476.562500; 1.04079E-4
1482.421875; 9.30749E-5
1488.281250; 9.69525E-5
1494.140625; 1.11483E-4
1500.000000; 9.98618E-5
1505.859375; 1.04499E-4
1511.718750; 1.13351E-4
1517.578125; 1.11154E-4
1523.437500; 1.06046E-4
1529.296875; 1.05668E-4
1535.156250; 1.00680E-4
1541.015625; 9.75965E-5
1546.875000; 1.08798E-4
1552.734375; 1.15338E-4
1558.593750; 1.12501E-4
1564.453125; 1.22394E-4
1570.312500; 1.09244E-4
1576.171875; 1.09348E-4
1582.031250; 1.06765E-4
1587.890625; 1.05508E-4
1593.750000; 1.09628E-4
1599.609375; 1.16587E-4
1605.468750; 1.12391E-4
1611.328125; 1.00793E-4
1617.187500; 1.17147E-4
1623.046875; 1.13309E-4
1628.906250; 9.81495E-5
1634.765625; 1.02006E-4
1640.625000; 1.03177E-4
1646.484375; 9.89304E-5
1652.343750; 1.07193E-4
1658.203125; 1.01617E-4
1664.062500; 1.14606E-4
1669.921875; 1.05105E-4
1675.781250; 9.97959E-5
1681.640625; 9.92686E-5
1687.500000; 1.03778E-4
1693.359375; 1.13800E-4
1699.218750; 1.09683E-4
1705.078125; 1.02539E-4
1710.937500; 1.07630E-4
1716.796875; 1.09657E-4
1722.656250; 1.09008E-4
1728.515625; 1.06391E-4
1734.375000; 1.12007E-4
1740.234375; 1.05457E-4
1746.093750; 1.11053E-4
1751.953125; 1.12207E-4
1757.812500; 1.17262E-4
1763.671875; 1.08427E-4
1769.531250; 1.02868E-4
1775.390625; 1.04453E-4
1781.250000; 1.10549E-4
1787.109375; 1.16593E-4
1792.968750; 1.08785E-4
1798.828125; 1.05445E-4
1804.687500; 1.02229E-4
1810.546875; 1.00074E-4
1816.406250; 9.98678E-5
1822.265625; 9.95283E-5
1828.125000; 9.24568E-5
1833.984375; 1.05467E-4
1839.843750; 1.11846E-4
1845.703125; 1.01116E-4
1851.562500; 1.02281E-4
1857.421875; 9.64273E-5
1863.281250; 1.01674E-4
1869.140625; 1.04665E-4
1875.000000; 1.03116E-4
1880.859375; 1.00307E-4
1886.718750; 1.04907E-4
1892.578125; 1.06123E-4
1898.437500; 1.06722E-4
1904.296875; 1.06104E-4
1910.156250; 9.66627E-5
1916.015625; 1.02742E-4
1921.875000; 1.07098E-4
1927.734375; 1.06135E-4
1933.593750; 9.87357E-5
1939.453125; 1.10079E-4
1945.312500; 1.12753E-4
1951.171875; 1.09817E-4
1957.031250; 1.07276E-4
1962.890625; 1.15437E-4
1968.750000; 1.21545E-4
1974.609375; 1.05245E-4
1980.468750; 1.01135E-4
1986.328125; 1.03665E-4
1992.187500; 2.46026E-4
1998.046875; 7.96058E-4
2003.906250; 6.40424E-4
2009.765625; 1.37134E-4
2015.625000; 1.15292E-4
2021.484375; 1.18180E-4
2027.343750; 1.11924E-4
2033.203125; 1.09240E-4
2039.062500; 1.09562E-4
2044.921875; 1.07494E-4
2050.781250; 1.11002E-4
2056.640625; 1.18907E-4
2062.500000; 1.15651E-4
2068.359375; 1.15160E-4
2074.218750; 1.12566E-4
2080.078125; 1.12066E-4
2085.937500; 1.09179E-4
2091.796875; 1.18061E-4
2097.656250; 1.11552E-4
2103.515625; 9.84461E-5
2109.375000; 8.60420E-5
2115.234375; 9.50207E-5
2121.093750; 9.78809E-5
2126.953125; 9.57524E-5
2132.812500; 1.06843E-4
2138.671875; 9.87593E-5
2144.531250; 1.00568E-4
2150.390625; 1.09997E-4
2156.250000; 1.04533E-4
2162.109375; 9.62820E-5
2167.968750; 9.77701E-5
2173.828125; 9.27905E-5
2179.687500; 9.63988E-5
2185.546875; 1.05586E-4
2191.406250; 1.01840E-4
2197.265625; 1.02832E-4
2203.125000; 1.06443E-4
2208.984375; 1.07402E-4
2214.843750; 9.63210E-5
2220.703125; 9.93139E-5
2226.562500; 1.12344E-4
2232.421875; 1.01773E-4
2238.281250; 9.65295E-5
2244.140625; 9.88694E-5
2250.000000; 1.01489E-4
2255.859375; 1.00588E-4
2261.718750; 1.08669E-4
2267.578125; 1.10198E-4
2273.437500; 1.05289E-4
2279.296875; 9.80944E-5
2285.156250; 1.03117E-4
2291.015625; 9.66646E-5
2296.875000; 9.72605E-5
2302.734375; 1.11405E-4
2308.593750; 1.03796E-4
2314.453125; 9.74567E-5
2320.312500; 1.11717E-4
2326.171875; 1.14942E-4
2332.031250; 1.04662E-4
2337.890625; 1.07393E-4
2343.750000; 9.97375E-5
2349.609375; 1.16979E-4
2355.468750; 1.02297E-4
2361.328125; 1.03526E-4
2367.187500; 9.99673E-5
2373.046875; 1.03243E-4
2378.906250; 9.66627E-5
2384.765625; 9.98783E-5
2390.625000; 1.06384E-4
2396.484375; 1.00439E-4
2402.343750; 1.08888E-4
2408.203125; 1.21854E-4
2414.062500; 1.07480E-4
2419.921875; 1.04116E-4
2425.781250; 1.07916E-4
2431.640625; 1.08670E-4
2437.500000; 1.09279E-4
2443.359375; 1.03781E-4
2449.218750; 1.03054E-4
2455.078125; 1.08516E-4
2460.937500; 1.04953E-4
2466.796875; 1.07036E-4
2472.656250; 1.19751E-4
2478.515625; 1.07308E-4
2484.375000; 1.02571E-4
2490.234375; 1.09261E-4
2496.093750; 1.08268E-4
2501.953125; 1.03948E-4
2507.812500; 1.11023E-4
2513.671875; 1.15912E-4
2519.531250; 1.07062E-4
2525.390625; 1.02825E-4
2531.250000; 9.17914E-5
2537.109375; 1.03167E-4
2542.968750; 1.08120E-4
2548.828125; 1.14332E-4
2554.687500; 1.00688E-4
2560.546875; 9.45693E-5
2566.406250; 9.94275E-5
2572.265625; 9.60488E-5
2578.125000; 1.01733E-4
2583.984375; 1.07620E-4
2589.843750; 1.17207E-4
2595.703125; 1.23354E-4
2601.562500; 1.13057E-4
2607.421875; 1.11308E-4
2613.281250; 1.01655E-4
2619.140625; 1.07325E-4
2625.000000; 1.08700E-4
2630.859375; 1.23926E-4
2636.718750; 1.17757E-4
2642.578125; 1.09838E-4
2648.437500; 1.15012E-4
2654.296875; 1.08654E-4
2660.156250; 1.08223E-4
2666.015625; 1.09282E-4
2671.875000; 1.10199E-4
2677.734375; 1.09660E-4
2683.593750; 1.05147E-4
2689.453125; 9.86103E-5
2695.312500; 9.81627E-5
2701.171875; 9.25514E-5
2707.031250; 9.60381E-5
2712.890625; 1.02645E-4
2718.750000; 1.10666E-4
2724.609375; 1.10370E-4
2730.468750; 1.02666E-4
2736.328125; 1.05701E-4
2742.187500; 1.06405E-4
2748.046875; 9.57244E-5
2753.906250; 8.64075E-5
2759.765625; 9.44386E-5
2765.625000; 1.02811E-4
2771.484375; 1.09415E-4
2777.343750; 1.10948E-4
2783.203125; 1.05118E-4
2789.062500; 9.31895E-5
2794.921875; 9.23776E-5
2800.781250; 1.00692E-4
2806.640625; 1.09287E-4
2812.500000; 1.00883E-4
2818.359375; 1.04401E-4
2824.218750; 1.11024E-4
2830.078125; 9.71776E-5
2835.937500; 1.01139E-4
2841.796875; 1.03334E-4
2847.656250; 1.13088E-4
2853.515625; 1.17000E-4
2859.375000; 1.11292E-4
2865.234375; 9.89412E-5
2871.093750; 9.18357E-5
2876.953125; 9.64374E-5
2882.812500; 9.09023E-5
2888.671875; 1.02817E-4
2894.531250; 1.11409E-4
2900.390625; 1.05255E-4
2906.250000; 9.95694E-5
2912.109375; 9.16454E-5
2917.968750; 1.02049E-4
2923.828125; 9.26489E-5
2929.687500; 9.76482E-5
2935.546875; 1.05242E-4
2941.406250; 1.05715E-4
2947.265625; 1.21366E-4
2953.125000; 1.19393E-4
2958.984375; 1.10837E-4
2964.843750; 9.35918E-5
2970.703125; 9.69808E-5
2976.562500; 1.12040E-4
2982.421875; 1.10820E-4
2988.281250; 9.70795E-5
2994.140625; 1.09133E-4
3000.000000; 1.41377E-4
3005.859375; 1.22874E-4
3011.718750; 1.06287E-4
3017.578125; 1.11315E-4
3023.437500; 1.04722E-4
3029.296875; 9.16123E-5
3035.156250; 9.31146E-5
3041.015625; 1.10410E-4
3046.875000; 1.14289E-4
3052.734375; 1.07359E-4
3058.593750; 8.92766E-5
3064.453125; 9.14887E-5
3070.312500; 1.09579E-4
3076.171875; 1.13166E-4
3082.031250; 9.66025E-5
3087.890625; 1.05417E-4
3093.750000; 1.01341E-4
3099.609375; 1.05693E-4
3105.468750; 1.09683E-4
3111.328125; 1.12878E-4
3117.187500; 1.20554E-4
3123.046875; 1.10336E-4
3128.906250; 9.12081E-5
3134.765625; 9.07093E-5
3140.625000; 1.02610E-4
3146.484375; 1.17582E-4
3152.343750; 1.17278E-4
3158.203125; 1.06276E-4
3164.062500; 9.53011E-5
3169.921875; 1.08314E-4
3175.781250; 1.11805E-4
3181.640625; 9.78342E-5
3187.500000; 9.27222E-5
3193.359375; 9.71753E-5
3199.218750; 9.74638E-5
3205.078125; 9.93732E-5
3210.937500; 1.10520E-4
3216.796875; 1.08504E-4
3222.656250; 1.00191E-4
3228.515625; 1.07832E-4
3234.375000; 1.06809E-4
3240.234375; 9.84424E-5
3246.093750; 1.01679E-4
3251.953125; 1.03007E-4
3257.812500; 9.59516E-5
3263.671875; 9.59378E-5
3269.531250; 1.01710E-4
3275.390625; 9.81678E-5
3281.250000; 1.00369E-4
3287.109375; 9.42749E-5
3292.968750; 9.86328E-5
3298.828125; 1.07331E-4
3304.687500; 1.00486E-4
3310.546875; 1.07334E-4
3316.406250; 9.71565E-5
3322.265625; 1.00930E-4
3328.125000; 1.07933E-4
3333.984375; 1.07231E-4
3339.843750; 9.73707E-5
3345.703125; 1.05226E-4
3351.562500; 1.03014E-4
3357.421875; 1.07346E-4
3363.281250; 1.02320E-4
3369.140625; 9.93670E-5
3375.000000; 1.06292E-4
3380.859375; 1.05084E-4
3386.718750; 1.05364E-4
3392.578125; 1.01389E-4
3398.437500; 1.07807E-4
3404.296875; 1.01409E-4
3410.156250; 9.07846E-5
3416.015625; 9.49063E-5
3421.875000; 9.99820E-5
3427.734375; 1.05227E-4
3433.593750; 1.04570E-4
3439.453125; 9.00576E-5
3445.312500; 9.09174E-5
3451.171875; 9.11753E-5
3457.031250; 8.99749E-5
3462.890625; 9.44223E-5
3468.750000; 9.94294E-5
3474.609375; 1.03220E-4
3480.468750; 1.01815E-4
3486.328125; 1.03970E-4
3492.187500; 9.92409E-5
3498.046875; 1.03466E-4
3503.906250; 1.00128E-4
3509.765625; 9.79997E-5
3515.625000; 1.03909E-4
3521.484375; 1.03479E-4
3527.343750; 9.73529E-5
3533.203125; 1.02710E-4
3539.062500; 1.07367E-4
3544.921875; 9.58825E-5
3550.781250; 1.01690E-4
3556.640625; 1.08100E-4
3562.500000; 1.14131E-4
3568.359375; 1.04739E-4
3574.218750; 1.00490E-4
3580.078125; 1.16422E-4
3585.937500; 1.07886E-4
3591.796875; 1.05336E-4
3597.656250; 9.83094E-5
3603.515625; 9.19711E-5
3609.375000; 1.01972E-4
3615.234375; 1.09237E-4
3621.093750; 1.01909E-4
3626.953125; 1.02427E-4
3632.812500; 9.57583E-5
3638.671875; 1.02197E-4
3644.531250; 1.10592E-4
3650.390625; 1.07021E-4
3656.250000; 1.00998E-4
3662.109375; 1.06930E-4
3667.968750; 9.63547E-5
3673.828125; 9.97887E-5
3679.687500; 8.75105E-5
3685.546875; 1.04631E-4
3691.406250; 1.07240E-4
3697.265625; 1.05569E-4
3703.125000; 1.06514E-4
3708.984375; 9.78901E-5
3714.843750; 1.08239E-4
3720.703125; 1.06828E-4
3726.562500; 9.48569E-5
3732.421875; 9.20570E-5
3738.281250; 1.09230E-4
3744.140625; 1.13692E-4
3750.000000; 1.16025E-4
3755.859375; 1.14953E-4
3761.718750; 1.07460E-4
3767.578125; 9.67595E-5
3773.437500; 1.04902E-4
3779.296875; 1.03572E-4
3785.156250; 1.06047E-4
3791.015625; 9.79837E-5
3796.875000; 9.82237E-5
3802.734375; 9.93718E-5
3808.593750; 1.09211E-4
3814.453125; 1.11495E-4
3820.312500; 1.04797E-4
3826.171875; 9.97626E-5
3832.031250; 9.65849E-5
3837.890625; 9.83982E-5
3843.750000; 1.08248E-4
3849.609375; 1.02751E-4
3855.468750; 9.83935E-5
3861.328125; 1.06128E-4
3867.187500; 1.12839E-4
3873.046875; 1.00738E-4
3878.906250; 9.78465E-5
3884.765625; 1.12949E-4
3890.625000; 1.09107E-4
3896.484375; 1.08158E-4
3902.343750; 1.11799E-4
3908.203125; 1.12129E-4
3914.062500; 1.04888E-4
3919.921875; 9.99733E-5
3925.781250; 1.01723E-4
3931.640625; 1.04363E-4
3937.500000; 1.00457E-4
3943.359375; 1.09772E-4
3949.218750; 1.16615E-4
3955.078125; 1.21083E-4
3960.937500; 1.17290E-4
3966.796875; 9.92345E-5
3972.656250; 1.04039E-4
3978.515625; 1.05640E-4
3984.375000; 9.68760E-5
3990.234375; 9.78840E-5
3996.093750; 1.02325E-4
4001.953125; 1.02136E-4
4007.812500; 8.66987E-5
4013.671875; 9.23280E-5
4019.531250; 1.03620E-4
4025.390625; 1.06313E-4
4031.250000; 1.06065E-4
4037.109375; 1.16723E-4
4042.968750; 1.08195E-4
4048.828125; 1.09821E-4
4054.687500; 1.06935E-4
4060.546875; 1.13923E-4
4066.406250; 1.11443E-4
4072.265625; 1.13525E-4
4078.125000; 1.04403E-4
4083.984375; 9.08489E-5
4089.843750; 9.65874E-5
4095.703125; 1.05016E-4
4101.562500; 1.09321E-4
4107.421875; 1.13390E-4
4113.281250; 1.03861E-4
4119.140625; 1.16155E-4
4125.000000; 1.14986E-4
4130.859375; 1.03764E-4
4136.718750; 9.76609E-5
4142.578125; 1.00749E-4
4148.437500; 1.06421E-4
4154.296875; 1.09647E-4
4160.156250; 1.14556E-4
4166.015625; 1.10070E-4
4171.875000; 1.11512E-4
4177.734375; 1.08562E-4
4183.593750; 1.16580E-4
4189.453125; 1.19538E-4
4195.312500; 1.01514E-4
4201.171875; 8.71190E-5
4207.031250; 1.03613E-4
4212.890625; 9.83348E-5
4218.750000; 1.02703E-4
4224.609375; 1.00770E-4
4230.468750; 1.06335E-4
4236.328125; 9.26284E-5
4242.187500; 8.92810E-5
4248.046875; 1.18940E-4
4253.906250; 1.09175E-4
4259.765625; 9.98286E-5
4265.625000; 1.10238E-4
4271.484375; 1.05611E-4
4277.343750; 1.18496E-4
4283.203125; 1.10983E-4
4289.062500; 9.21944E-5
4294.921875; 9.65430E-5
4300.781250; 1.04440E-4
4306.640625; 9.84505E-5
4312.500000; 1.02219E-4
4318.359375; 1.04468E-4
4324.218750; 1.08125E-4
4330.078125; 1.12636E-4
4335.937500; 1.01867E-4
4341.796875; 9.89667E-5
4347.656250; 9.96841E-5
4353.515625; 1.04464E-4
4359.375000; 1.01169E-4
4365.234375; 1.05530E-4
4371.093750; 1.05921E-4
4376.953125; 9.52905E-5
4382.812500; 9.36048E-5
4388.671875; 9.92358E-5
4394.531250; 1.02596E-4
4400.390625; 9.95189E-5
4406.250000; 1.01129E-4
4412.109375; 9.55086E-5
4417.968750; 1.03746E-4
4423.828125; 1.11129E-4
4429.687500; 1.02294E-4
4435.546875; 1.06160E-4
4441.406250; 1.08906E-4
4447.265625; 1.15360E-4
4453.125000; 1.02348E-4
4458.984375; 1.01234E-4
4464.843750; 1.13184E-4
4470.703125; 1.08818E-4
4476.562500; 1.00569E-4
4482.421875; 9.02156E-5
4488.281250; 8.25330E-5
4494.140625; 1.06467E-4
4500.000000; 1.12397E-4
4505.859375; 1.08227E-4
4511.718750; 1.06416E-4
4517.578125; 1.04668E-4
4523.437500; 1.10583E-4
4529.296875; 1.05072E-4
4535.156250; 1.01083E-4
4541.015625; 1.03113E-4
4546.875000; 1.04715E-4
4552.734375; 1.13365E-4
4558.593750; 1.11920E-4
4564.453125; 1.02897E-4
4570.312500; 9.10219E-5
4576.171875; 1.00996E-4
4582.031250; 1.06775E-4
4587.890625; 1.03260E-4
4593.750000; 9.20744E-5
4599.609375; 1.05457E-4
4605.468750; 1.02128E-4
4611.328125; 9.73113E-5
4617.187500; 9.96790E-5
4623.046875; 9.93890E-5
4628.906250; 9.57261E-5
4634.765625; 1.06886E-4
4640.625000; 1.22093E-4
4646.484375; 1.06371E-4
4652.343750; 1.05235E-4
4658.203125; 1.06148E-4
4664.062500; 1.00867E-4
4669.921875; 1.05910E-4
4675.781250; 1.08980E-4
4681.640625; 1.06168E-4
4687.500000; 1.04491E-4
4693.359375; 1.09257E-4
4699.218750; 1.06124E-4
4705.078125; 1.08260E-4
4710.937500; 1.09916E-4
4716.796875; 1.05835E-4
4722.656250; 9.07408E-5
4728.515625; 9.68087E-5
4734.375000; 9.66627E-5
4740.234375; 9.58772E-5
4746.093750; 1.12588E-4
4751.953125; 1.16806E-4
4757.812500; 1.10983E-4
4763.671875; 9.77481E-5
4769.531250; 1.03363E-4
4775.390625; 1.09099E-4
4781.250000; 1.07603E-4
4787.109375; 1.13903E-4
4792.968750; 1.10769E-4
4798.828125; 1.04205E-4
4804.687500; 1.04617E-4
4810.546875; 1.19129E-4
4816.406250; 1.22768E-4
4822.265625; 1.11688E-4
4828.125000; 1.03948E-4
4833.984375; 1.06959E-4
4839.843750; 1.13287E-4
4845.703125; 1.10615E-4
4851.562500; 1.19764E-4
4857.421875; 1.13214E-4
4863.281250; 1.04349E-4
4869.140625; 1.03938E-4
4875.000000; 1.04380E-4
4880.859375; 1.11265E-4
4886.718750; 1.16314E-4
4892.578125; 1.19634E-4
4898.437500; 1.21523E-4
4904.296875; 1.06703E-4
4910.156250; 1.01596E-4
4916.015625; 9.70496E-5
4921.875000; 1.09060E-4
4927.734375; 1.20154E-4
4933.593750; 1.15633E-4
4939.453125; 1.06414E-4
4945.312500; 1.12825E-4
4951.171875; 1.07517E-4
4957.031250; 1.07503E-4
4962.890625; 1.06618E-4
4968.750000; 1.07454E-4
4974.609375; 1.09757E-4
4980.468750; 1.08768E-4
4986.328125; 1.06350E-4
4992.187500; 1.06094E-4
4998.046875; 1.02976E-4
5003.906250; 1.01543E-4
5009.765625; 1.06882E-4
5015.625000; 1.03544E-4
5021.484375; 1.03318E-4
5027.343750; 1.11519E-4
5033.203125; 1.17024E-4
5039.062500; 1.00976E-4
5044.921875; 9.77508E-5
5050.781250; 9.97567E-5
5056.640625; 9.88378E-5
5062.500000; 9.95930E-5
5068.359375; 1.13696E-4
5074.218750; 1.25858E-4
5080.078125; 1.23560E-4
5085.937500; 1.01881E-4
5091.796875; 1.00579E-4
5097.656250; 1.07260E-4
5103.515625; 1.05862E-4
5109.375000; 9.95412E-5
5115.234375; 1.05397E-4
5121.093750; 1.08493E-4
5126.953125; 1.08564E-4
5132.812500; 1.11331E-4
5138.671875; 1.09117E-4
5144.531250; 1.08998E-4
5150.390625; 1.07496E-4
5156.250000; 9.28744E-5
5162.109375; 8.85958E-5
5167.968750; 1.12545E-4
5173.828125; 1.13486E-4
5179.687500; 1.07027E-4
5185.546875; 1.10789E-4
5191.406250; 1.13764E-4
5197.265625; 1.12944E-4
5203.125000; 1.14112E-4
5208.984375; 1.03470E-4
5214.843750; 9.23262E-5
5220.703125; 9.76834E-5
5226.562500; 1.08450E-4
5232.421875; 1.13644E-4
5238.281250; 1.09834E-4
5244.140625; 9.23509E-5
5250.000000; 9.65244E-5
5255.859375; 1.02187E-4
5261.718750; 9.91483E-5
5267.578125; 1.03218E-4
5273.437500; 1.12035E-4
5279.296875; 1.23083E-4
5285.156250; 1.14672E-4
5291.015625; 1.04954E-4
5296.875000; 1.02453E-4
5302.734375; 9.86044E-5
5308.593750; 9.53073E-5
5314.453125; 9.88514E-5
5320.312500; 1.00587E-4
5326.171875; 9.80082E-5
5332.031250; 9.96531E-5
5337.890625; 9.50838E-5
5343.750000; 1.05059E-4
5349.609375; 1.02089E-4
5355.468750; 1.05361E-4
5361.328125; 9.93846E-5
5367.187500; 9.26610E-5
5373.046875; 1.03752E-4
5378.906250; 1.10558E-4
5384.765625; 1.01591E-4
5390.625000; 9.81172E-5
5396.484375; 9.82219E-5
5402.343750; 9.61445E-5
5408.203125; 1.02370E-4
5414.062500; 1.07503E-4
5419.921875; 1.07038E-4
5425.781250; 1.04106E-4
5431.640625; 1.01960E-4
5437.500000; 1.02140E-4
5443.359375; 9.15666E-5
5449.218750; 9.45792E-5
5455.078125; 1.06012E-4
5460.937500; 1.05368E-4
5466.796875; 1.07949E-4
5472.656250; 1.05827E-4
5478.515625; 1.09415E-4
5484.375000; 1.09423E-4
5490.234375; 1.04550E-4
5496.093750; 1.12504E-4
5501.953125; 1.16336E-4
5507.812500; 1.18808E-4
5513.671875; 1.09032E-4
5519.531250; 1.10695E-4
5525.390625; 1.03759E-4
5531.250000; 1.06982E-4
5537.109375; 1.04679E-4
5542.968750; 1.00711E-4
5548.828125; 1.03939E-4
5554.687500; 9.81282E-5
5560.546875; 9.78613E-5
5566.406250; 1.03947E-4
5572.265625; 1.05339E-4
5578.125000; 9.83183E-5
5583.984375; 1.01132E-4
5589.843750; 1.08091E-4
5595.703125; 9.95245E-5
5601.562500; 8.72892E-5
5607.421875; 9.32613E-5
5613.281250; 1.05614E-4
5619.140625; 1.07413E-4
5625.000000; 1.10015E-4
5630.859375; 1.06938E-4
5636.718750; 8.86382E-5
5642.578125; 9.01501E-5
5648.437500; 1.08303E-4
5654.296875; 1.10167E-4
5660.156250; 1.02572E-4
5666.015625; 1.02174E-4
5671.875000; 1.11216E-4
5677.734375; 1.04218E-4
5683.593750; 1.04486E-4
5689.453125; 1.07976E-4
5695.312500; 1.03807E-4
5701.171875; 9.78621E-5
5707.031250; 1.08074E-4
5712.890625; 1.06946E-4
5718.750000; 1.08990E-4
5724.609375; 1.02875E-4
5730.468750; 9.42329E-5
5736.328125; 1.05620E-4
5742.187500; 1.06295E-4
5748.046875; 1.15307E-4
5753.906250; 1.16753E-4
5759.765625; 1.08679E-4
5765.625000; 1.08906E-4
5771.484375; 1.05332E-4
5777.343750; 1.15841E-4
5783.203125; 1.15320E-4
5789.062500; 1.01565E-4
5794.921875; 9.82737E-5
5800.781250; 1.05479E-4
5806.640625; 1.04271E-4
5812.500000; 9.45347E-5
5818.359375; 9.86696E-5
5824.218750; 9.95683E-5
5830.078125; 1.02261E-4
5835.937500; 1.02631E-4
5841.796875; 9.91769E-5
5847.656250; 1.14253E-4
5853.515625; 1.07100E-4
5859.375000; 9.98540E-5
5865.234375; 1.09364E-4
5871.093750; 1.03290E-4
5876.953125; 9.73968E-5
5882.812500; 9.92375E-5
5888.671875; 1.03606E-4
5894.531250; 1.04048E-4
5900.390625; 1.02186E-4
5906.250000; 1.02602E-4
5912.109375; 9.99211E-5
5917.968750; 1.12326E-4
5923.828125; 1.07982E-4
5929.687500; 1.00882E-4
5935.546875; 9.75346E-5
5941.406250; 9.23879E-5
5947.265625; 1.00086E-4
5953.125000; 1.01288E-4
5958.984375; 9.80090E-5
5964.843750; 9.05565E-5
5970.703125; 9.67363E-5
5976.562500; 1.04641E-4
5982.421875; 1.03831E-4
5988.281250; 1.06679E-4
5994.140625; 1.17444E-4
6000.000000; 1.14917E-4
6005.859375; 1.04727E-4
6011.718750; 9.74092E-5
6017.578125; 9.82215E-5
6023.437500; 1.05373E-4
6029.296875; 1.08280E-4
6035.156250; 1.00419E-4
6041.015625; 1.13338E-4
6046.875000; 1.19742E-4
6052.734375; 1.04686E-4
6058.593750; 9.49086E-5
6064.453125; 9.66606E-5
6070.312500; 1.08060E-4
6076.171875; 1.06702E-4
6082.031250; 1.02325E-4
6087.890625; 9.76527E-5
6093.750000; 9.38310E-5
6099.609375; 9.07957E-5
6105.468750; 9.08577E-5
6111.328125; 1.08471E-4
6117.187500; 1.05595E-4
6123.046875; 9.91163E-5
6128.906250; 1.04829E-4
6134.765625; 1.06175E-4
6140.625000; 1.11469E-4
6146.484375; 1.14025E-4
6152.343750; 1.04039E-4
6158.203125; 1.06865E-4
6164.062500; 1.11838E-4
6169.921875; 1.00051E-4
6175.781250; 1.05025E-4
6181.640625; 1.11170E-4
6187.500000; 9.93989E-5
6193.359375; 9.24057E-5
6199.218750; 1.06203E-4
6205.078125; 1.13771E-4
6210.937500; 1.09496E-4
6216.796875; 1.08580E-4
6222.656250; 1.12811E-4
6228.515625; 1.13533E-4
6234.375000; 1.02272E-4
6240.234375; 9.33787E-5
6246.093750; 8.99229E-5
6251.953125; 1.02661E-4
6257.812500; 1.02460E-4
6263.671875; 1.01059E-4
6269.531250; 1.04306E-4
6275.390625; 9.99940E-5
6281.250000; 1.02722E-4
6287.109375; 1.04221E-4
6292.968750; 1.02010E-4
6298.828125; 1.02997E-4
6304.687500; 1.04870E-4
6310.546875; 1.03200E-4
6316.406250; 1.02327E-4
6322.265625; 1.10488E-4
6328.125000; 1.08210E-4
6333.984375; 9.37402E-5
6339.843750; 9.55253E-5
6345.703125; 1.05928E-4
6351.562500; 9.87266E-5
6357.421875; 1.03904E-4
6363.281250; 8.90100E-5
6369.140625; 9.28746E-5
6375.000000; 9.97158E-5
6380.859375; 1.11035E-4
6386.718750; 9.35123E-5
6392.578125; 9.22214E-5
6398.437500; 1.01393E-4
6404.296875; 1.10263E-4
6410.156250; 1.01489E-4
6416.015625; 1.00216E-4
6421.875000; 1.08961E-4
6427.734375; 9.99675E-5
6433.593750; 1.00522E-4
6439.453125; 1.08377E-4
6445.312500; 1.07878E-4
6451.171875; 1.08806E-4
6457.031250; 1.10353E-4
6462.890625; 1.15745E-4
6468.750000; 1.08685E-4
6474.609375; 9.95745E-5
6480.468750; 1.09856E-4
6486.328125; 1.01740E-4
6492.187500; 1.21708E-4
6498.046875; 1.08087E-4
6503.906250; 9.80423E-5
6509.765625; 9.73170E-5
6515.625000; 9.77684E-5
6521.484375; 1.05364E-4
6527.343750; 1.09023E-4
6533.203125; 1.10476E-4
6539.062500; 1.06443E-4
6544.921875; 1.02823E-4
6550.781250; 1.09489E-4
6556.640625; 1.12120E-4
6562.500000; 1.12109E-4
6568.359375; 1.03140E-4
6574.218750; 9.67958E-5
6580.078125; 1.08277E-4
6585.937500; 1.05386E-4
6591.796875; 1.04659E-4
6597.656250; 1.11353E-4
6603.515625; 1.05182E-4
6609.375000; 1.02793E-4
6615.234375; 1.07680E-4
6621.093750; 1.03246E-4
6626.953125; 9.79998E-5
6632.812500; 9.95580E-5
6638.671875; 1.05049E-4
6644.531250; 1.17218E-4
6650.390625; 1.08832E-4
6656.250000; 1.07641E-4
6662.109375; 8.92986E-5
6667.968750; 1.10086E-4
6673.828125; 1.03994E-4
6679.687500; 1.09786E-4
6685.546875; 1.06775E-4
6691.406250; 1.01059E-4
6697.265625; 1.07692E-4
6703.125000; 1.09303E-4
6708.984375; 1.07570E-4
6714.843750; 1.06734E-4
6720.703125; 1.07979E-4
6726.562500; 9.04291E-5
6732.421875; 9.30614E-5
6738.281250; 9.98962E-5
6744.140625; 1.07750E-4
6750.000000; 1.12991E-4
6755.859375; 1.07453E-4
6761.718750; 1.01617E-4
6767.578125; 1.02637E-4
6773.437500; 1.09212E-4
6779.296875; 1.11122E-4
6785.156250; 1.06683E-4
6791.015625; 1.10904E-4
6796.875000; 1.11749E-4
6802.734375; 1.10047E-4
6808.593750; 1.07718E-4
6814.453125; 1.16218E-4
6820.312500; 1.08918E-4
6826.171875; 1.06806E-4
6832.031250; 1.08155E-4
6837.890625; 1.06695E-4
6843.750000; 1.16082E-4
6849.609375; 1.13790E-4
6855.468750; 1.10136E-4
6861.328125; 1.13575E-4
6867.187500; 1.03387E-4
6873.046875; 9.85890E-5
6878.906250; 1.01183E-4
6884.765625; 1.08561E-4
6890.625000; 1.05216E-4
6896.484375; 9.97198E-5
6902.343750; 9.78679E-5
6908.203125; 1.01985E-4
6914.062500; 9.34390E-5
6919.921875; 9.98373E-5
6925.781250; 1.13215E-4
6931.640625; 1.08726E-4
6937.500000; 1.13394E-4
6943.359375; 1.06260E-4
6949.218750; 9.53813E-5
6955.078125; 9.83588E-5
6960.937500; 1.01480E-4
6966.796875; 1.04662E-4
6972.656250; 9.90573E-5
6978.515625; 1.02718E-4
6984.375000; 9.90656E-5
6990.234375; 1.18245E-4
6996.093750; 1.16727E-4
7001.953125; 1.06696E-4
7007.812500; 1.06982E-4
7013.671875; 1.01287E-4
7019.531250; 1.02192E-4
7025.390625; 9.85918E-5
7031.250000; 1.00266E-4
7037.109375; 1.08557E-4
7042.968750; 1.06991E-4
7048.828125; 1.11021E-4
7054.687500; 1.02246E-4
7060.546875; 9.61018E-5
7066.406250; 9.86525E-5
7072.265625; 9.87665E-5
7078.125000; 1.03118E-4
7083.984375; 1.11080E-4
7089.843750; 1.05602E-4
7095.703125; 1.09921E-4
7101.562500; 1.08315E-4
7107.421875; 1.18017E-4
7113.281250; 1.16878E-4
7119.140625; 1.11347E-4
7125.000000; 1.10576E-4
7130.859375; 1.23289E-4
7136.718750; 1.04921E-4
7142.578125; 1.13089E-4
7148.437500; 1.09110E-4
7154.296875; 9.91050E-5
7160.156250; 1.01708E-4
7166.015625; 1.06784E-4
7171.875000; 1.12410E-4
7177.734375; 1.12268E-4
7183.593750; 1.00269E-4
7189.453125; 9.19127E-5
7195.312500; 1.02687E-4
7201.171875; 1.06706E-4
7207.031250; 1.05188E-4
7212.890625; 1.01262E-4
7218.750000; 9.56756E-5
7224.609375; 1.09794E-4
7230.468750; 1.05692E-4
7236.328125; 1.02258E-4
7242.187500; 1.06226E-4
7248.046875; 1.03969E-4
7253.906250; 1.03061E-4
7259.765625; 9.86989E-5
7265.625000; 1.06150E-4
7271.484375; 9.43603E-5
7277.343750; 9.65654E-5
7283.203125; 1.02951E-4
7289.062500; 1.04449E-4
7294.921875; 1.15771E-4
7300.781250; 1.08718E-4
7306.640625; 1.06546E-4
7312.500000; 1.00639E-4
7318.359375; 1.13421E-4
7324.218750; 1.18312E-4
7330.078125; 1.29068E-4
7335.937500; 1.16437E-4
7341.796875; 1.02958E-4
7347.656250; 1.17084E-4
7353.515625; 1.16739E-4
7359.375000; 1.04394E-4
7365.234375; 1.16951E-4
7371.093750; 1.16156E-4
7376.953125; 1.12771E-4
7382.812500; 1.06608E-4
7388.671875; 1.00085E-4
7394.531250; 1.02026E-4
7400.390625; 1.06510E-4
7406.250000; 1.14578E-4
7412.109375; 1.03886E-4
7417.968750; 1.04018E-4
7423.828125; 1.07609E-4
7429.687500; 9.92600E-5
7435.546875; 1.09720E-4
7441.406250; 1.13794E-4
7447.265625; 1.05450E-4
7453.125000; 1.08339E-4
7458.984375; 1.23040E-4
7464.843750; 1.13624E-4
7470.703125; 1.08139E-4
7476.562500; 9.58738E-5
7482.421875; 9.87202E-5
7488.281250; 9.93596E-5
7494.140625; 1.02004E-4
7500.000000; 9.21835E-5
7505.859375; 1.08574E-4
7511.718750; 1.00716E-4
7517.578125; 1.03043E-4
7523.437500; 1.08478E-4
7529.296875; 1.03494E-4
7535.156250; 1.03660E-4
7541.015625; 1.03201E-4
7546.875000; 9.74823E-5
7552.734375; 1.02277E-4
7558.593750; 1.00461E-4
7564.453125; 1.07234E-4
7570.312500; 1.09573E-4
7576.171875; 1.06799E-4
7582.031250; 1.01638E-4
7587.890625; 9.53324E-5
7593.750000; 9.70888E-5
7599.609375; 1.00262E-4
7605.468750; 1.04620E-4
7611.328125; 1.13937E-4
7617.187500; 1.10633E-4
7623.046875; 1.05008E-4
7628.906250; 1.10081E-4
7634.765625; 1.01210E-4
7640.625000; 1.03524E-4
7646.484375; 1.11419E-4
7652.343750; 1.07551E-4
7658.203125; 9.51042E-5
7664.062500; 9.41528E-5
7669.921875; 1.08257E-4
7675.781250; 1.00033E-4
7681.640625; 9.03105E-5
7687.500000; 1.00050E-4
7693.359375; 1.03759E-4
7699.218750; 1.13448E-4
7705.078125; 9.89847E-5
7710.937500; 1.03049E-4
7716.796875; 9.50821E-5
7722.656250; 1.00289E-4
7728.515625; 1.12533E-4
7734.375000; 1.12656E-4
7740.234375; 1.10604E-4
7746.093750; 1.03197E-4
7751.953125; 1.01570E-4
7757.812500; 1.09024E-4
7763.671875; 1.00919E-4
7769.531250; 1.01434E-4
7775.390625; 1.03353E-4
7781.250000; 1.00164E-4
7787.109375; 1.01966E-4
7792.968750; 1.20393E-4
7798.828125; 1.07024E-4
7804.687500; 9.76321E-5
7810.546875; 1.03455E-4
7816.406250; 1.09415E-4
7822.265625; 1.03999E-4
7828.125000; 1.03550E-4
7833.984375; 1.12703E-4
7839.843750; 1.10074E-4
7845.703125; 1.02863E-4
7851.562500; 9.82089E-5
7857.421875; 1.06021E-4
7863.281250; 1.16738E-4
7869.140625; 1.20976E-4
7875.000000; 1.12178E-4
7880.859375; 1.04695E-4
7886.718750; 1.05172E-4
7892.578125; 1.07950E-4
7898.437500; 1.10429E-4
7904.296875; 1.00556E-4
7910.156250; 1.02576E-4
7916.015625; 9.83985E-5
7921.875000; 1.03785E-4
7927.734375; 9.86001E-5
7933.593750; 9.85512E-5
7939.453125; 9.90412E-5
7945.312500; 1.06994E-4
7951.171875; 1.11538E-4
7957.031250; 1.19264E-4
7962.890625; 1.04917E-4
7968.750000; 1.03131E-4
7974.609375; 1.09080E-4
7980.468750; 9.43177E-5
7986.328125; 1.01411E-4
7992.187500; 9.91166E-5
7998.046875; 9.93069E-5
8003.906250; 9.50448E-5
8009.765625; 9.67417E-5
8015.625000; 9.71218E-5
8021.484375; 1.00822E-4
8027.343750; 1.06241E-4
8033.203125; 1.10110E-4
8039.062500; 1.02418E-4
8044.921875; 9.26284E-5
8050.781250; 9.40076E-5
8056.640625; 1.07724E-4
8062.500000; 1.03299E-4
8068.359375; 1.07894E-4
8074.218750; 1.02901E-4
8080.078125; 1.06391E-4
8085.937500; 9.72299E-5
8091.796875; 9.11706E-5
8097.656250; 9.92873E-5
8103.515625; 1.01632E-4
8109.375000; 1.07403E-4
8115.234375; 1.06698E-4
8121.093750; 1.06167E-4
8126.953125; 1.06874E-4
8132.812500; 1.09254E-4
8138.671875; 1.11033E-4
8144.531250; 1.16579E-4
8150.390625; 1.07926E-4
8156.250000; 9.85601E-5
8162.109375; 1.04417E-4
8167.968750; 1.07766E-4
8173.828125; 9.77045E-5
8179.687500; 9.58408E-5
8185.546875; 9.37321E-5
8191.406250; 1.12735E-4
8197.265625; 1.12733E-4
8203.125000; 1.02942E-4
8208.984375; 9.69135E-5
8214.843750; 9.46837E-5
8220.703125; 1.00507E-4
8226.562500; 9.86640E-5
8232.421875; 9.55341E-5
8238.281250; 9.91557E-5
8244.140625; 1.10310E-4
8250.000000; 1.10898E-4
8255.859375; 9.49275E-5
8261.718750; 9.99612E-5
8267.578125; 9.20907E-5
8273.437500; 1.01015E-4
8279.296875; 1.03925E-4
8285.156250; 1.03669E-4
8291.015625; 9.20691E-5
8296.875000; 9.74478E-5
8302.734375; 1.02815E-4
8308.593750; 9.87626E-5
8314.453125; 1.06042E-4
8320.312500; 1.03816E-4
8326.171875; 9.97133E-5
8332.031250; 9.51656E-5
8337.890625; 9.18904E-5
8343.750000; 1.06330E-4
8349.609375; 1.05684E-4
8355.468750; 9.95093E-5
8361.328125; 9.02768E-5
8367.187500; 9.57520E-5
8373.046875; 9.64516E-5
8378.906250; 9.34277E-5
8384.765625; 9.75972E-5
8390.625000; 9.24617E-5
8396.484375; 9.44305E-5
8402.343750; 1.01034E-4
8408.203125; 1.04807E-4
8414.062500; 1.10370E-4
8419.921875; 1.09774E-4
8425.781250; 9.93595E-5
8431.640625; 1.05168E-4
8437.500000; 1.09485E-4
8443.359375; 1.02826E-4
8449.218750; 1.04140E-4
8455.078125; 1.16697E-4
8460.937500; 1.14823E-4
8466.796875; 1.08594E-4
8472.656250; 1.08620E-4
8478.515625; 9.26178E-5
8484.375000; 9.39390E-5
8490.234375; 1.06594E-4
8496.093750; 1.05883E-4
8501.953125; 8.70504E-5
8507.812500; 9.83943E-5
8513.671875; 1.09143E-4
8519.531250; 1.02546E-4
8525.390625; 1.02379E-4
8531.250000; 1.00648E-4
8537.109375; 1.02075E-4
8542.968750; 9.36089E-5
8548.828125; 1.03420E-4
8554.687500; 1.04500E-4
8560.546875; 9.54017E-5
8566.406250; 9.58042E-5
8572.265625; 1.04483E-4
8578.125000; 1.05366E-4
8583.984375; 1.02419E-4
8589.843750; 9.73591E-5
8595.703125; 8.83281E-5
8601.562500; 1.02449E-4
8607.421875; 1.16121E-4
8613.281250; 1.09852E-4
8619.140625; 9.03312E-5
8625.000000; 9.27712E-5
8630.859375; 9.28132E-5
8636.718750; 9.39128E-5
8642.578125; 9.60118E-5
8648.437500; 1.05397E-4
8654.296875; 9.76629E-5
8660.156250; 9.28135E-5
8666.015625; 1.03627E-4
8671.875000; 1.07213E-4
8677.734375; 1.07460E-4
8683.593750; 1.10209E-4
8689.453125; 1.12426E-4
8695.312500; 1.07866E-4
8701.171875; 1.07220E-4
8707.031250; 1.07918E-4
8712.890625; 1.08675E-4
8718.750000; 1.10338E-4
8724.609375; 9.14159E-5
8730.468750; 9.58679E-5
8736.328125; 1.04285E-4
8742.187500; 1.00530E-4
8748.046875; 1.08360E-4
8753.906250; 1.01928E-4
8759.765625; 9.60458E-5
8765.625000; 9.67645E-5
8771.484375; 1.03660E-4
8777.343750; 1.17215E-4
8783.203125; 1.08268E-4
8789.062500; 1.05963E-4
8794.921875; 1.01084E-4
8800.781250; 1.00337E-4
8806.640625; 1.00187E-4
8812.500000; 9.89651E-5
8818.359375; 8.61888E-5
8824.218750; 1.02380E-4
8830.078125; 1.03992E-4
8835.937500; 9.74169E-5
8841.796875; 9.27149E-5
8847.656250; 1.03817E-4
8853.515625; 1.07264E-4
8859.375000; 9.85512E-5
8865.234375; 9.04005E-5
8871.093750; 9.96214E-5
8876.953125; 1.17073E-4
8882.812500; 1.12481E-4
8888.671875; 9.46452E-5
8894.531250; 1.02566E-4
8900.390625; 9.66933E-5
8906.250000; 9.38418E-5
8912.109375; 1.02907E-4
8917.968750; 9.88404E-5
8923.828125; 1.06453E-4
8929.687500; 1.10319E-4
8935.546875; 1.11808E-4
8941.406250; 1.03877E-4
8947.265625; 1.03517E-4
8953.125000; 1.05636E-4
8958.984375; 9.68438E-5
8964.843750; 1.02777E-4
8970.703125; 1.01889E-4
8976.562500; 8.90380E-5
8982.421875; 9.95671E-5
8988.281250; 1.02101E-4
8994.140625; 1.00586E-4
9000.000000; 1.04726E-4
9005.859375; 9.75438E-5
9011.718750; 9.48968E-5
9017.578125; 9.28985E-5
9023.437500; 9.93376E-5
9029.296875; 1.09652E-4
9035.156250; 1.02142E-4
9041.015625; 1.06944E-4
9046.875000; 1.14474E-4
9052.734375; 1.04170E-4
9058.593750; 9.52783E-5
9064.453125; 9.81909E-5
9070.312500; 1.13386E-4
9076.171875; 1.14235E-4
9082.031250; 1.13557E-4
9087.890625; 1.12036E-4
9093.750000; 1.03712E-4
9099.609375; 1.04389E-4
9105.468750; 1.03436E-4
9111.328125; 9.70382E-5
9117.187500; 9.81941E-5
9123.046875; 9.91304E-5
9128.906250; 1.06804E-4
9134.765625; 1.08665E-4
9140.625000; 9.95167E-5
9146.484375; 1.02140E-4
9152.343750; 1.01530E-4
9158.203125; 9.63646E-5
9164.062500; 9.16847E-5
9169.921875; 9.12065E-5
9175.781250; 9.23254E-5
9181.640625; 9.66635E-5
9187.500000; 9.82437E-5
9193.359375; 9.43726E-5
9199.218750; 1.00707E-4
9205.078125; 1.09348E-4
9210.937500; 1.08967E-4
9216.796875; 1.01079E-4
9222.656250; 1.02956E-4
9228.515625; 9.65179E-5
9234.375000; 1.02272E-4
9240.234375; 1.16642E-4
9246.093750; 1.05673E-4
9251.953125; 1.08807E-4
9257.812500; 1.05695E-4
9263.671875; 9.85180E-5
9269.531250; 1.00432E-4
9275.390625; 1.07278E-4
9281.250000; 1.05678E-4
9287.109375; 9.79927E-5
9292.968750; 9.76646E-5
9298.828125; 1.00371E-4
9304.687500; 1.00328E-4
9310.546875; 9.54535E-5
9316.406250; 1.00008E-4
9322.265625; 1.09039E-4
9328.125000; 1.01931E-4
9333.984375; 1.05294E-4
9339.843750; 1.07313E-4
9345.703125; 1.04426E-4
9351.562500; 1.12807E-4
9357.421875; 1.12384E-4
9363.281250; 1.00615E-4
9369.140625; 1.03776E-4
9375.000000; 9.94599E-5
9380.859375; 1.01583E-4
9386.718750; 1.14847E-4
9392.578125; 1.13925E-4
9398.437500; 1.05094E-4
9404.296875; 9.81850E-5
9410.156250; 1.06729E-4
9416.015625; 1.03395E-4
9421.875000; 1.15295E-4
9427.734375; 1.07849E-4
9433.593750; 1.00670E-4
9439.453125; 1.01573E-4
9445.312500; 9.90473E-5
9451.171875; 9.85055E-5
9457.031250; 9.62275E-5
9462.890625; 1.01348E-4
9468.750000; 1.13427E-4
9474.609375; 1.05229E-4
9480.468750; 9.53898E-5
9486.328125; 1.03052E-4
9492.187500; 1.01877E-4
9498.046875; 9.73082E-5
9503.906250; 9.65062E-5
9509.765625; 9.61863E-5
9515.625000; 9.57210E-5
9521.484375; 1.00745E-4
9527.343750; 1.01100E-4
9533.203125; 1.10241E-4
9539.062500; 1.04502E-4
9544.921875; 1.04848E-4
9550.781250; 1.01074E-4
9556.640625; 1.14890E-4
9562.500000; 1.01376E-4
9568.359375; 9.04446E-5
9574.218750; 9.88940E-5
9580.078125; 9.89301E-5
9585.937500; 1.00326E-4
9591.796875; 1.06822E-4
9597.656250; 1.02329E-4
9603.515625; 9.52392E-5
9609.375000; 9.35602E-5
9615.234375; 9.44406E-5
9621.093750; 9.21487E-5
9626.953125; 9.08885E-5
9632.812500; 1.03605E-4
9638.671875; 1.13612E-4
9644.531250; 1.01035E-4
9650.390625; 1.00581E-4
9656.250000; 1.09315E-4
9662.109375; 9.79910E-5
9667.968750; 9.77067E-5
9673.828125; 9.77475E-5
9679.687500; 1.00369E-4
9685.546875; 1.02210E-4
9691.406250; 1.01435E-4
9697.265625; 1.08390E-4
9703.125000; 1.03795E-4
9708.984375; 1.16005E-4
9714.843750; 1.18765E-4
9720.703125; 1.05908E-4
9726.562500; 1.01615E-4
9732.421875; 9.68794E-5
9738.281250; 1.09829E-4
9744.140625; 1.14133E-4
9750.000000; 1.04643E-4
9755.859375; 1.08290E-4
9761.718750; 1.06261E-4
9767.578125; 9.03986E-5
9773.437500; 1.01769E-4
9779.296875; 9.66660E-5
9785.156250; 1.04102E-4
9791.015625; 1.07952E-4
9796.875000; 1.09834E-4
9802.734375; 1.08426E-4
9808.593750; 1.11542E-4
9814.453125; 1.11294E-4
9820.312500; 1.04902E-4
9826.171875; 1.07292E-4
9832.031250; 1.08174E-4
9837.890625; 1.01660E-4
9843.750000; 9.78682E-5
9849.609375; 9.89624E-5
9855.468750; 9.70052E-5
9861.328125; 1.06483E-4
9867.187500; 1.14745E-4
9873.046875; 1.15253E-4
9878.906250; 1.15309E-4
9884.765625; 1.13558E-4
9890.625000; 1.11535E-4
9896.484375; 1.05151E-4
9902.343750; 1.03584E-4
9908.203125; 1.09086E-4
9914.062500; 1.00579E-4
9919.921875; 9.43070E-5
9925.781250; 9.64723E-5
9931.640625; 9.72248E-5
9937.500000; 9.41781E-5
9943.359375; 1.01137E-4
9949.218750; 1.03268E-4
9955.078125; 1.07308E-4
9960.937500; 1.08906E-4
9966.796875; 1.08165E-4
9972.656250; 1.24594E-4
9978.515625; 1.18408E-4
9984.375000; 1.02383E-4
9990.234375; 1.04069E-4
9996.093750; 1.02795E-4
10001.953125; 1.09304E-4
10007.812500; 1.20990E-4
10013.671875; 1.21398E-4
10019.531250; 1.16594E-4
10025.390625; 1.03222E-4
10031.250000; 9.49121E-5
10037.109375; 9.85266E-5
10042.968750; 1.10342E-4
10048.828125; 1.07432E-4
10054.687500; 9.69155E-5
10060.546875; 9.49710E-5
10066.406250; 8.79360E-5
10072.265625; 1.04892E-4
10078.125000; 1.13714E-4
10083.984375; 1.08140E-4
10089.843750; 1.02706E-4
10095.703125; 1.02920E-4
10101.562500; 1.02649E-4
10107.421875; 1.02109E-4
10113.281250; 1.03739E-4
10119.140625; 1.02241E-4
10125.000000; 9.90581E-5
10130.859375; 1.11793E-4
10136.718750; 1.12871E-4
10142.578125; 9.37309E-5
10148.437500; 9.75713E-5
10154.296875; 1.11170E-4
10160.156250; 1.10799E-4
10166.015625; 1.08176E-4
10171.875000; 1.13819E-4
10177.734375; 1.13144E-4
10183.593750; 1.04673E-4
10189.453125; 1.06165E-4
10195.312500; 1.07193E-4
10201.171875; 1.17472E-4
10207.031250; 1.07870E-4
10212.890625; 1.08964E-4
10218.750000; 9.87860E-5
10224.609375; 1.01070E-4
10230.468750; 1.08481E-4
10236.328125; 1.04771E-4
10242.187500; 9.17259E-5
10248.046875; 9.30729E-5
10253.906250; 9.50154E-5
10259.765625; 9.53327E-5
10265.625000; 9.05831E-5
10271.484375; 9.34987E-5
10277.343750; 1.00629E-4
10283.203125; 1.09756E-4
10289.062500; 1.02657E-4
10294.921875; 9.78385E-5
10300.781250; 1.14434E-4
10306.640625; 1.14339E-4
10312.500000; 9.81892E-5
10318.359375; 9.95474E-5
10324.218750; 1.06491E-4
10330.078125; 9.18243E-5
10335.937500; 9.50604E-5
10341.796875; 9.84400E-5
10347.656250; 9.45892E-5
10353.515625; 1.06825E-4
10359.375000; 1.03240E-4
10365.234375; 9.72991E-5
10371.093750; 9.87429E-5
10376.953125; 1.05122E-4
10382.812500; 1.15779E-4
10388.671875; 1.12810E-4
10394.531250; 1.06793E-4
10400.390625; 1.05346E-4
10406.250000; 1.01491E-4
10412.109375; 9.59610E-5
10417.968750; 9.65323E-5
10423.828125; 9.80969E-5
10429.687500; 1.00976E-4
10435.546875; 1.06383E-4
10441.406250; 1.12199E-4
10447.265625; 1.18936E-4
10453.125000; 1.17861E-4
10458.984375; 1.07066E-4
10464.843750; 1.12499E-4
10470.703125; 1.04855E-4
10476.562500; 1.08701E-4
10482.421875; 9.97031E-5
10488.281250; 1.04490E-4
10494.140625; 1.12473E-4
10500.000000; 9.20079E-5
10505.859375; 1.04058E-4
10511.718750; 1.06146E-4
10517.578125; 1.01742E-4
10523.437500; 1.02585E-4
10529.296875; 9.95812E-5
10535.156250; 9.34924E-5
10541.015625; 9.14507E-5
10546.875000; 1.00021E-4
10552.734375; 1.08320E-4
10558.593750; 1.09499E-4
10564.453125; 1.00259E-4
10570.312500; 1.06831E-4
10576.171875; 1.05984E-4
10582.031250; 9.93109E-5
10587.890625; 1.02089E-4
10593.750000; 1.09778E-4
10599.609375; 9.84063E-5
10605.468750; 9.16000E-5
10611.328125; 9.80482E-5
10617.187500; 1.08544E-4
10623.046875; 1.07223E-4
10628.906250; 9.86903E-5
10634.765625; 9.82405E-5
10640.625000; 1.07988E-4
10646.484375; 1.02158E-4
10652.343750; 9.82247E-5
10658.203125; 1.07095E-4
10664.062500; 1.00246E-4
10669.921875; 9.86327E-5
10675.781250; 9.82239E-5
10681.640625; 9.82253E-5
10687.500000; 1.00733E-4
10693.359375; 9.33103E-5
10699.218750; 9.72322E-5
10705.078125; 1.02694E-4
10710.937500; 8.34398E-5
10716.796875; 9.44691E-5
10722.656250; 1.07967E-4
10728.515625; 1.14048E-4
10734.375000; 1.04005E-4
10740.234375; 9.92580E-5
10746.093750; 1.01962E-4
10751.953125; 9.64528E-5
10757.812500; 9.76700E-5
10763.671875; 9.61342E-5
10769.531250; 9.35717E-5
10775.390625; 9.95962E-5
10781.250000; 1.01409E-4
10787.109375; 1.05757E-4
10792.968750; 1.05056E-4
10798.828125; 9.70558E-5
10804.687500; 9.76698E-5
10810.546875; 9.75003E-5
10816.406250; 9.90624E-5
10822.265625; 1.03528E-4
10828.125000; 1.14601E-4
10833.984375; 1.23268E-4
10839.843750; 1.13516E-4
10845.703125; 1.00693E-4
10851.562500; 1.02990E-4
10857.421875; 1.10145E-4
10863.281250; 1.04887E-4
10869.140625; 1.00623E-4
10875.000000; 9.74568E-5
10880.859375; 9.69927E-5
10886.718750; 9.23665E-5
10892.578125; 9.30308E-5
10898.437500; 8.78261E-5
10904.296875; 9.01507E-5
10910.156250; 1.00215E-4
10916.015625; 1.10711E-4
10921.875000; 1.03699E-4
10927.734375; 1.00371E-4
10933.593750; 1.03903E-4
10939.453125; 1.17923E-4
10945.312500; 1.18246E-4
10951.171875; 1.05178E-4
10957.031250; 9.55906E-5
10962.890625; 9.72203E-5
10968.750000; 9.56931E-5
10974.609375; 1.07977E-4
10980.468750; 1.07424E-4
10986.328125; 1.10514E-4
10992.187500; 1.08490E-4
10998.046875; 1.13035E-4
11003.906250; 1.10593E-4
11009.765625; 1.04568E-4
11015.625000; 1.00269E-4
11021.484375; 1.02604E-4
11027.343750; 9.35889E-5
11033.203125; 8.87062E-5
11039.062500; 9.40850E-5
11044.921875; 1.04165E-4
11050.781250; 1.09601E-4
11056.640625; 1.02767E-4
11062.500000; 9.98030E-5
11068.359375; 1.00829E-4
11074.218750; 1.01427E-4
11080.078125; 9.22508E-5
11085.937500; 9.79100E-5
11091.796875; 1.00397E-4
11097.656250; 1.03416E-4
11103.515625; 1.01596E-4
11109.375000; 9.85375E-5
11115.234375; 1.09827E-4
11121.093750; 1.10058E-4
11126.953125; 9.71042E-5
11132.812500; 1.07824E-4
11138.671875; 1.01958E-4
11144.531250; 1.06499E-4
11150.390625; 1.09228E-4
11156.250000; 1.05873E-4
11162.109375; 9.60075E-5
11167.968750; 8.94825E-5
11173.828125; 1.01750E-4
11179.687500; 1.04976E-4
11185.546875; 1.06796E-4
11191.406250; 9.43169E-5
11197.265625; 9.71133E-5
11203.125000; 1.06752E-4
11208.984375; 1.05957E-4
11214.843750; 1.04690E-4
11220.703125; 9.90867E-5
11226.562500; 9.94130E-5
11232.421875; 1.06063E-4
11238.281250; 1.09634E-4
11244.140625; 1.02319E-4
11250.000000; 1.05004E-4
11255.859375; 1.01131E-4
11261.718750; 1.00379E-4
11267.578125; 9.10510E-5
11273.437500; 1.04550E-4
11279.296875; 1.03862E-4
11285.156250; 1.06049E-4
11291.015625; 1.03393E-4
11296.875000; 1.14892E-4
11302.734375; 1.12967E-4
11308.593750; 1.05202E-4
11314.453125; 1.07364E-4
11320.312500; 9.85630E-5
11326.171875; 9.99829E-5
11332.031250; 9.48773E-5
11337.890625; 9.88170E-5
11343.750000; 1.02896E-4
11349.609375; 1.08493E-4
11355.468750; 1.05449E-4
11361.328125; 1.01656E-4
11367.187500; 9.96313E-5
11373.046875; 1.01587E-4
11378.906250; 1.07198E-4
11384.765625; 9.72379E-5
11390.625000; 1.06067E-4
11396.484375; 1.08401E-4
11402.343750; 9.73371E-5
11408.203125; 8.88576E-5
11414.062500; 8.42213E-5
11419.921875; 1.06122E-4
11425.781250; 1.10184E-4
11431.640625; 1.08373E-4
11437.500000; 1.02070E-4
11443.359375; 1.03167E-4
11449.218750; 1.09014E-4
11455.078125; 1.05307E-4
11460.937500; 1.06559E-4
11466.796875; 1.06537E-4
11472.656250; 1.11732E-4
11478.515625; 1.12815E-4
11484.375000; 1.12456E-4
11490.234375; 1.04955E-4
11496.093750; 1.05510E-4
11501.953125; 1.12093E-4
11507.812500; 1.06926E-4
11513.671875; 1.11626E-4
11519.531250; 1.09848E-4
11525.390625; 9.91427E-5
11531.250000; 1.01043E-4
11537.109375; 1.04426E-4
11542.968750; 1.02722E-4
11548.828125; 1.09366E-4
11554.687500; 1.06910E-4
11560.546875; 1.03497E-4
11566.406250; 1.02203E-4
11572.265625; 1.02376E-4
11578.125000; 1.02669E-4
11583.984375; 1.07970E-4
11589.843750; 1.04288E-4
11595.703125; 9.43069E-5
11601.562500; 9.23684E-5
11607.421875; 9.41213E-5
11613.281250; 9.31015E-5
11619.140625; 9.78465E-5
11625.000000; 1.03533E-4
11630.859375; 9.76440E-5
11636.718750; 1.03281E-4
11642.578125; 1.06010E-4
11648.437500; 1.01966E-4
11654.296875; 1.09913E-4
11660.156250; 1.12679E-4
11666.015625; 1.01569E-4
11671.875000; 9.24152E-5
11677.734375; 9.53262E-5
11683.593750; 1.02043E-4
11689.453125; 1.09050E-4
11695.312500; 1.12756E-4
11701.171875; 1.10450E-4
11707.031250; 1.05482E-4
11712.890625; 9.55736E-5
11718.750000; 9.84888E-5
11724.609375; 1.08705E-4
11730.468750; 1.05015E-4
11736.328125; 1.06114E-4
11742.187500; 9.56610E-5
11748.046875; 1.00623E-4
11753.906250; 9.50145E-5
11759.765625; 1.02224E-4
11765.625000; 1.00645E-4
11771.484375; 9.64038E-5
11777.343750; 9.72384E-5
11783.203125; 9.34929E-5
11789.062500; 9.49121E-5
11794.921875; 9.93965E-5
11800.781250; 9.14372E-5
11806.640625; 9.67623E-5
11812.500000; 1.07284E-4
11818.359375; 1.04877E-4
11824.218750; 1.02731E-4
11830.078125; 9.25264E-5
11835.937500; 1.01366E-4
11841.796875; 1.04889E-4
11847.656250; 1.01494E-4
11853.515625; 1.08559E-4
11859.375000; 1.13375E-4
11865.234375; 1.04028E-4
11871.093750; 1.05697E-4
11876.953125; 1.02047E-4
11882.812500; 1.12094E-4
11888.671875; 1.11463E-4
11894.531250; 1.08858E-4
11900.390625; 9.80798E-5
11906.250000; 9.51223E-5
11912.109375; 9.96440E-5
11917.968750; 9.93204E-5
11923.828125; 1.08902E-4
11929.687500; 1.11572E-4
11935.546875; 1.09863E-4
11941.406250; 1.03443E-4
11947.265625; 9.60590E-5
11953.125000; 9.49592E-5
11958.984375; 1.05667E-4
11964.843750; 1.01072E-4
11970.703125; 9.46870E-5
11976.562500; 9.73087E-5
11982.421875; 1.08719E-4
11988.281250; 1.09045E-4
11994.140625; 1.09853E-4
12000.000000; 1.06569E-4
12005.859375; 1.08825E-4
12011.718750; 1.11430E-4
12017.578125; 1.05556E-4
12023.437500; 1.00011E-4
12029.296875; 1.01092E-4
12035.156250; 1.04490E-4
12041.015625; 1.05922E-4
12046.875000; 1.13042E-4
12052.734375; 1.02538E-4
12058.593750; 1.04836E-4
12064.453125; 9.85520E-5
12070.312500; 9.35254E-5
12076.171875; 1.01631E-4
12082.031250; 1.03291E-4
12087.890625; 9.31801E-5
12093.750000; 1.01331E-4
12099.609375; 1.07720E-4
12105.468750; 1.02092E-4
12111.328125; 1.00129E-4
12117.187500; 1.07001E-4
12123.046875; 1.08388E-4
12128.906250; 1.11357E-4
12134.765625; 1.15013E-4
12140.625000; 1.00176E-4
12146.484375; 1.02370E-4
12152.343750; 1.12080E-4
12158.203125; 9.47803E-5
12164.062500; 9.80898E-5
12169.921875; 9.57950E-5
12175.781250; 1.01676E-4
12181.640625; 1.04960E-4
12187.500000; 1.03186E-4
12193.359375; 1.12514E-4
12199.218750; 1.11566E-4
12205.078125; 1.01515E-4
12210.937500; 1.01325E-4
12216.796875; 1.02796E-4
12222.656250; 1.00666E-4
12228.515625; 9.34042E-5
12234.375000; 1.04849E-4
12240.234375; 1.05531E-4
12246.093750; 9.85634E-5
12251.953125; 9.01800E-5
12257.812500; 9.28701E-5
12263.671875; 1.00632E-4
12269.531250; 9.80155E-5
12275.390625; 9.68692E-5
12281.250000; 9.24528E-5
12287.109375; 1.01959E-4
12292.968750; 1.10933E-4
12298.828125; 1.14057E-4
12304.687500; 1.22612E-4
12310.546875; 1.05331E-4
12316.406250; 9.88074E-5
12322.265625; 1.10244E-4
12328.125000; 1.11228E-4
12333.984375; 9.74493E-5
12339.843750; 9.06555E-5
12345.703125; 9.29653E-5
12351.562500; 9.22189E-5
12357.421875; 9.48494E-5
12363.281250; 9.88630E-5
12369.140625; 9.68015E-5
12375.000000; 9.75976E-5
12380.859375; 9.01748E-5
12386.718750; 9.91223E-5
12392.578125; 1.03283E-4
12398.437500; 1.11535E-4
12404.296875; 1.16243E-4
12410.156250; 1.09162E-4
12416.015625; 1.17031E-4
12421.875000; 1.06447E-4
12427.734375; 9.94095E-5
12433.593750; 1.02935E-4
12439.453125; 1.01969E-4
12445.312500; 8.92057E-5
12451.171875; 1.00426E-4
12457.031250; 1.12853E-4
12462.890625; 1.04545E-4
12468.750000; 1.05196E-4
12474.609375; 1.00040E-4
12480.468750; 1.09482E-4
12486.328125; 1.07024E-4
12492.187500; 9.57899E-5
12498.046875; 1.01263E-4
12503.906250; 9.86123E-5
12509.765625; 8.87483E-5
12515.625000; 8.95279E-5
12521.484375; 9.86982E-5
12527.343750; 1.07709E-4
12533.203125; 1.12068E-4
12539.062500; 1.14273E-4
12544.921875; 1.00454E-4
12550.781250; 1.03054E-4
12556.640625; 1.16115E-4
12562.500000; 1.02649E-4
12568.359375; 9.18200E-5
12574.218750; 9.35714E-5
12580.078125; 9.98827E-5
12585.937500; 1.06189E-4
12591.796875; 1.09948E-4
12597.656250; 1.02774E-4
12603.515625; 1.02537E-4
12609.375000; 9.91548E-5
12615.234375; 9.53187E-5
12621.093750; 1.04849E-4
12626.953125; 1.01201E-4
12632.812500; 1.04156E-4
12638.671875; 1.12049E-4
12644.531250; 1.17026E-4
12650.390625; 1.10108E-4
12656.250000; 1.02161E-4
12662.109375; 9.55020E-5
12667.968750; 1.00753E-4
12673.828125; 1.03485E-4
12679.687500; 9.39693E-5
12685.546875; 9.39561E-5
12691.406250; 1.04163E-4
12697.265625; 1.08517E-4
12703.125000; 1.15107E-4
12708.984375; 1.03823E-4
12714.843750; 9.61457E-5
12720.703125; 9.91535E-5
12726.562500; 1.05385E-4
12732.421875; 1.07196E-4
12738.281250; 9.84488E-5
12744.140625; 1.08757E-4
12750.000000; 1.08708E-4
12755.859375; 1.01020E-4
12761.718750; 1.03065E-4
12767.578125; 9.53242E-5
12773.437500; 1.03039E-4
12779.296875; 1.01439E-4
12785.156250; 9.87594E-5
12791.015625; 1.07970E-4
12796.875000; 1.02253E-4
12802.734375; 9.76324E-5
12808.593750; 1.02584E-4
12814.453125; 1.04114E-4
12820.312500; 1.03297E-4
12826.171875; 1.08981E-4
12832.031250; 1.04209E-4
12837.890625; 1.06321E-4
12843.750000; 1.00807E-4
12849.609375; 9.84891E-5
12855.468750; 9.71817E-5
12861.328125; 1.05246E-4
12867.187500; 1.16611E-4
12873.046875; 1.05494E-4
12878.906250; 1.07403E-4
12884.765625; 1.02468E-4
12890.625000; 9.66271E-5
12896.484375; 9.87536E-5
12902.343750; 9.66950E-5
12908.203125; 9.77509E-5
12914.062500; 8.73732E-5
12919.921875; 9.24758E-5
12925.781250; 9.89447E-5
12931.640625; 1.08276E-4
12937.500000; 1.00594E-4
12943.359375; 9.55709E-5
12949.218750; 1.10077E-4
12955.078125; 1.11676E-4
12960.937500; 9.66572E-5
12966.796875; 9.85119E-5
12972.656250; 9.45938E-5
12978.515625; 1.03255E-4
12984.375000; 1.04032E-4
12990.234375; 1.06099E-4
12996.093750; 9.83468E-5
13001.953125; 1.00629E-4
13007.812500; 9.20007E-5
13013.671875; 8.57284E-5
13019.531250; 8.52459E-5
13025.390625; 9.64862E-5
13031.250000; 9.88292E-5
13037.109375; 9.71792E-5
13042.968750; 9.42849E-5
13048.828125; 9.85028E-5
13054.687500; 9.29873E-5
13060.546875; 8.92733E-5
13066.406250; 1.00876E-4
13072.265625; 1.11857E-4
13078.125000; 1.15832E-4
13083.984375; 1.22276E-4
13089.843750; 1.05904E-4
13095.703125; 1.00530E-4
13101.562500; 9.27070E-5
13107.421875; 9.62492E-5
13113.281250; 9.95903E-5
13119.140625; 9.77619E-5
13125.000000; 1.11813E-4
13130.859375; 1.00785E-4
13136.718750; 1.00829E-4
13142.578125; 1.08108E-4
13148.437500; 9.22050E-5
13154.296875; 8.64188E-5
13160.156250; 9.97686E-5
13166.015625; 9.09444E-5
13171.875000; 9.27641E-5
13177.734375; 9.72489E-5
13183.593750; 9.27033E-5
13189.453125; 9.50412E-5
13195.312500; 1.10063E-4
13201.171875; 1.08732E-4
13207.031250; 9.90928E-5
13212.890625; 9.60432E-5
13218.750000; 1.00600E-4
13224.609375; 1.02382E-4
13230.468750; 9.94131E-5
13236.328125; 9.77117E-5
13242.187500; 1.01233E-4
13248.046875; 1.06266E-4
13253.906250; 1.03674E-4
13259.765625; 1.05470E-4
13265.625000; 1.07534E-4
13271.484375; 1.11629E-4
13277.343750; 1.16575E-4
13283.203125; 1.06976E-4
13289.062500; 9.50369E-5
13294.921875; 1.07575E-4
13300.781250; 1.14253E-4
13306.640625; 1.11121E-4
13312.500000; 1.01920E-4
13318.359375; 9.11109E-5
13324.218750; 1.00760E-4
13330.078125; 1.11198E-4
13335.937500; 9.83629E-5
13341.796875; 9.10127E-5
13347.656250; 9.71640E-5
13353.515625; 9.36533E-5
13359.375000; 1.01077E-4
13365.234375; 1.04866E-4
13371.093750; 1.07881E-4
13376.953125; 9.99329E-5
13382.812500; 9.15890E-5
13388.671875; 9.22573E-5
13394.531250; 8.77450E-5
13400.390625; 1.06363E-4
13406.250000; 1.17832E-4
13412.109375; 1.07498E-4
13417.968750; 1.06342E-4
13423.828125; 1.02698E-4
13429.687500; 9.74919E-5
13435.546875; 9.71063E-5
13441.406250; 1.02547E-4
13447.265625; 1.04432E-4
13453.125000; 9.48136E-5
13458.984375; 9.03655E-5
13464.843750; 9.37720E-5
13470.703125; 9.48377E-5
13476.562500; 1.08335E-4
13482.421875; 1.03102E-4
13488.281250; 9.65416E-5
13494.140625; 9.73843E-5
13500.000000; 1.10081E-4
13505.859375; 1.13284E-4
13511.718750; 1.03055E-4
13517.578125; 9.50749E-5
13523.437500; 9.57305E-5
13529.296875; 1.01498E-4
13535.156250; 9.80850E-5
13541.015625; 9.45738E-5
13546.875000; 1.01017E-4
13552.734375; 1.01575E-4
13558.593750; 1.04718E-4
13564.453125; 9.91234E-5
13570.312500; 9.05252E-5
13576.171875; 9.62247E-5
13582.031250; 1.00113E-4
13587.890625; 1.04891E-4
13593.750000; 1.09767E-4
13599.609375; 1.00358E-4
13605.468750; 1.01857E-4
13611.328125; 1.02308E-4
13617.187500; 1.02201E-4
13623.046875; 1.04969E-4
13628.906250; 1.13527E-4
13634.765625; 1.05466E-4
13640.625000; 9.82576E-5
13646.484375; 1.05253E-4
13652.343750; 1.03238E-4
13658.203125; 1.00814E-4
13664.062500; 9.70807E-5
13669.921875; 1.06050E-4
13675.781250; 1.01585E-4
13681.640625; 1.06649E-4
13687.500000; 1.06573E-4
13693.359375; 9.27802E-5
13699.218750; 1.02159E-4
13705.078125; 1.06263E-4
13710.937500; 9.87941E-5
13716.796875; 1.02526E-4
13722.656250; 1.04004E-4
13728.515625; 1.01570E-4
13734.375000; 1.01654E-4
13740.234375; 1.08906E-4
13746.093750; 1.09464E-4
13751.953125; 1.04254E-4
13757.812500; 1.03389E-4
13763.671875; 1.01799E-4
13769.531250; 1.03907E-4
13775.390625; 1.03942E-4
13781.250000; 1.00336E-4
13787.109375; 9.39154E-5
13792.968750; 1.01169E-4
13798.828125; 9.45115E-5
13804.687500; 8.90398E-5
13810.546875; 9.52585E-5
13816.406250; 9.48524E-5
13822.265625; 1.08954E-4
13828.125000; 1.10332E-4
13833.984375; 1.09794E-4
13839.843750; 1.02269E-4
13845.703125; 9.47490E-5
13851.562500; 9.80728E-5
13857.421875; 1.00634E-4
13863.281250; 1.15499E-4
13869.140625; 1.02819E-4
13875.000000; 1.03219E-4
13880.859375; 1.20088E-4
13886.718750; 1.01937E-4
13892.578125; 1.00567E-4
13898.437500; 1.00287E-4
13904.296875; 9.21204E-5
13910.156250; 1.00338E-4
13916.015625; 9.66036E-5
13921.875000; 9.33157E-5
13927.734375; 1.02788E-4
13933.593750; 1.03161E-4
13939.453125; 9.48608E-5
13945.312500; 1.01250E-4
13951.171875; 1.06603E-4
13957.031250; 1.00398E-4
13962.890625; 9.94803E-5
13968.750000; 9.08164E-5
13974.609375; 1.00379E-4
13980.468750; 1.08653E-4
13986.328125; 1.03250E-4
13992.187500; 1.00016E-4
13998.046875; 1.06443E-4
14003.906250; 1.06712E-4
14009.765625; 1.00790E-4
14015.625000; 9.54350E-5
14021.484375; 9.76885E-5
14027.343750; 1.04333E-4
14033.203125; 9.67357E-5
14039.062500; 9.66795E-5
14044.921875; 9.32939E-5
14050.781250; 1.00391E-4
14056.640625; 1.02191E-4
14062.500000; 9.52048E-5
14068.359375; 9.63821E-5
14074.218750; 1.06641E-4
14080.078125; 1.09275E-4
14085.937500; 9.96918E-5
14091.796875; 9.01027E-5
14097.656250; 8.94803E-5
14103.515625; 9.86180E-5
14109.375000; 9.70698E-5
14115.234375; 1.01039E-4
14121.093750; 9.96424E-5
14126.953125; 9.90609E-5
14132.812500; 8.56803E-5
14138.671875; 8.82722E-5
14144.531250; 1.05050E-4
14150.390625; 1.10051E-4
14156.250000; 9.73100E-5
14162.109375; 9.46926E-5
14167.968750; 9.70091E-5
14173.828125; 9.98746E-5
14179.687500; 1.02015E-4
14185.546875; 9.67001E-5
14191.406250; 9.57521E-5
14197.265625; 1.00254E-4
14203.125000; 9.51114E-5
14208.984375; 9.62020E-5
14214.843750; 1.06860E-4
14220.703125; 9.63270E-5
14226.562500; 9.45169E-5
14232.421875; 1.02015E-4
14238.281250; 9.30726E-5
14244.140625; 9.91833E-5
14250.000000; 1.16332E-4
14255.859375; 1.02900E-4
14261.718750; 9.95401E-5
14267.578125; 9.99570E-5
14273.437500; 9.96961E-5
14279.296875; 9.97316E-5
14285.156250; 9.60967E-5
14291.015625; 8.89971E-5
14296.875000; 9.34965E-5
14302.734375; 1.14272E-4
14308.593750; 1.07222E-4
14314.453125; 9.80941E-5
14320.312500; 1.02255E-4
14326.171875; 9.62487E-5
14332.031250; 9.56091E-5
14337.890625; 1.05965E-4
14343.750000; 1.01074E-4
14349.609375; 1.05041E-4
14355.468750; 1.05518E-4
14361.328125; 9.56213E-5
14367.187500; 9.53106E-5
14373.046875; 9.98683E-5
14378.906250; 9.90660E-5
14384.765625; 1.04809E-4
14390.625000; 1.06309E-4
14396.484375; 1.08086E-4
14402.343750; 1.03734E-4
14408.203125; 9.18446E-5
14414.062500; 1.00128E-4
14419.921875; 1.06865E-4
14425.781250; 1.01429E-4
14431.640625; 1.00492E-4
14437.500000; 8.84768E-5
14443.359375; 9.77688E-5
14449.218750; 9.45416E-5
14455.078125; 1.00577E-4
14460.937500; 9.80465E-5
14466.796875; 1.00015E-4
14472.656250; 9.79502E-5
14478.515625; 1.05811E-4
14484.375000; 1.01414E-4
14490.234375; 1.02485E-4
14496.093750; 1.00658E-4
14501.953125; 1.06045E-4
14507.812500; 1.11396E-4
14513.671875; 1.03413E-4
14519.531250; 1.08973E-4
14525.390625; 1.11373E-4
14531.250000; 9.83538E-5
14537.109375; 9.02870E-5
14542.968750; 1.06743E-4
14548.828125; 1.11476E-4
14554.687500; 1.17168E-4
14560.546875; 1.07707E-4
14566.406250; 1.04342E-4
14572.265625; 9.94080E-5
14578.125000; 8.37629E-5
14583.984375; 9.56164E-5
14589.843750; 1.06693E-4
14595.703125; 1.02963E-4
14601.562500; 1.01116E-4
14607.421875; 9.26388E-5
14613.281250; 1.01643E-4
14619.140625; 1.10428E-4
14625.000000; 1.06386E-4
14630.859375; 1.02753E-4
14636.718750; 1.00628E-4
14642.578125; 8.94468E-5
14648.437500; 9.26834E-5
14654.296875; 9.89449E-5
14660.156250; 1.00142E-4
14666.015625; 8.98766E-5
14671.875000; 8.80426E-5
14677.734375; 1.01639E-4
14683.593750; 9.56387E-5
14689.453125; 8.94763E-5
14695.312500; 9.80620E-5
14701.171875; 9.76269E-5
14707.031250; 9.38985E-5
14712.890625; 9.64133E-5
14718.750000; 1.04679E-4
14724.609375; 1.00271E-4
14730.468750; 1.05834E-4
14736.328125; 1.08383E-4
14742.187500; 1.00993E-4
14748.046875; 8.50280E-5
14753.906250; 9.26686E-5
14759.765625; 1.06243E-4
14765.625000; 1.01797E-4
14771.484375; 1.00102E-4
14777.343750; 1.06055E-4
14783.203125; 9.78657E-5
14789.062500; 1.02418E-4
14794.921875; 9.78093E-5
14800.781250; 9.01865E-5
14806.640625; 9.99197E-5
14812.500000; 1.13115E-4
14818.359375; 9.51727E-5
14824.218750; 9.48953E-5
14830.078125; 9.90798E-5
14835.937500; 9.93511E-5
14841.796875; 1.09505E-4
14847.656250; 1.13551E-4
14853.515625; 9.90145E-5
14859.375000; 9.40079E-5
14865.234375; 9.82395E-5
14871.093750; 1.05034E-4
14876.953125; 1.01700E-4
14882.812500; 1.01797E-4
14888.671875; 1.00019E-4
14894.531250; 9.35705E-5
14900.390625; 9.39401E-5
14906.250000; 9.49738E-5
14912.109375; 1.00357E-4
14917.968750; 9.91730E-5
14923.828125; 9.28377E-5
14929.687500; 9.95359E-5
14935.546875; 9.70203E-5
14941.406250; 9.70572E-5
14947.265625; 9.90017E-5
14953.125000; 9.93461E-5
14958.984375; 1.00861E-4
14964.843750; 1.08820E-4
14970.703125; 1.06105E-4
14976.562500; 9.96286E-5
14982.421875; 9.12507E-5
14988.281250; 9.37609E-5
14994.140625; 1.10435E-4
15000.000000; 1.08304E-4
15005.859375; 9.57009E-5
15011.718750; 9.87284E-5
15017.578125; 9.67040E-5
15023.437500; 9.07631E-5
15029.296875; 9.22633E-5
15035.156250; 1.00648E-4
15041.015625; 1.02206E-4
15046.875000; 9.64956E-5
15052.734375; 9.27860E-5
15058.593750; 9.38099E-5
15064.453125; 1.01214E-4
15070.312500; 9.37502E-5
15076.171875; 9.24260E-5
15082.031250; 1.06204E-4
15087.890625; 9.36902E-5
15093.750000; 9.73406E-5
15099.609375; 9.90633E-5
15105.468750; 9.33724E-5
15111.328125; 1.03366E-4
15117.187500; 9.46411E-5
15123.046875; 8.24071E-5
15128.906250; 9.39321E-5
15134.765625; 1.01525E-4
15140.625000; 1.01797E-4
15146.484375; 9.88921E-5
15152.343750; 9.05329E-5
15158.203125; 9.61679E-5
15164.062500; 9.68633E-5
15169.921875; 9.90174E-5
15175.781250; 1.01132E-4
15181.640625; 9.70416E-5
15187.500000; 1.03112E-4
15193.359375; 1.10173E-4
15199.218750; 1.15248E-4
15205.078125; 9.70430E-5
15210.937500; 9.38924E-5
15216.796875; 9.66460E-5
15222.656250; 8.80909E-5
15228.515625; 9.90372E-5
15234.375000; 1.02791E-4
15240.234375; 1.06135E-4
15246.093750; 1.09965E-4
15251.953125; 1.13990E-4
15257.812500; 1.07427E-4
15263.671875; 1.08440E-4
15269.531250; 1.07840E-4
15275.390625; 1.00597E-4
15281.250000; 1.11864E-4
15287.109375; 1.03654E-4
15292.968750; 9.84065E-5
15298.828125; 9.93837E-5
15304.687500; 1.00702E-4
15310.546875; 1.09763E-4
15316.406250; 1.04967E-4
15322.265625; 9.19765E-5
15328.125000; 9.69442E-5
15333.984375; 1.01134E-4
15339.843750; 1.02438E-4
15345.703125; 1.03815E-4
15351.562500; 8.71193E-5
15357.421875; 9.20342E-5
15363.281250; 8.88011E-5
15369.140625; 9.13377E-5
15375.000000; 9.87276E-5
15380.859375; 1.01503E-4
15386.718750; 9.06078E-5
15392.578125; 9.98769E-5
15398.437500; 1.08742E-4
15404.296875; 1.01450E-4
15410.156250; 9.84961E-5
15416.015625; 1.14734E-4
15421.875000; 1.15278E-4
15427.734375; 9.98723E-5
15433.593750; 9.14309E-5
15439.453125; 9.91099E-5
15445.312500; 1.02738E-4
15451.171875; 9.57294E-5
15457.031250; 1.03509E-4
15462.890625; 9.73914E-5
15468.750000; 1.01856E-4
15474.609375; 1.06826E-4
15480.468750; 1.06109E-4
15486.328125; 1.06668E-4
15492.187500; 1.03932E-4
15498.046875; 1.06036E-4
15503.906250; 1.01119E-4
15509.765625; 1.00400E-4
15515.625000; 9.47782E-5
15521.484375; 9.47276E-5
15527.343750; 1.09215E-4
15533.203125; 9.97675E-5
15539.062500; 8.60584E-5
15544.921875; 9.01681E-5
15550.781250; 8.30377E-5
15556.640625; 8.47839E-5
15562.500000; 9.66372E-5
15568.359375; 1.04876E-4
15574.218750; 9.56052E-5
15580.078125; 9.20366E-5
15585.937500; 9.83532E-5
15591.796875; 9.83394E-5
15597.656250; 1.00403E-4
15603.515625; 9.93170E-5
15609.375000; 1.01928E-4
15615.234375; 9.97328E-5
15621.093750; 1.05399E-4
15626.953125; 1.08465E-4
15632.812500; 1.00515E-4
15638.671875; 1.01845E-4
15644.531250; 1.11949E-4
15650.390625; 1.05954E-4
15656.250000; 9.78922E-5
15662.109375; 1.01130E-4
15667.968750; 1.02079E-4
15673.828125; 1.03700E-4
15679.687500; 9.26862E-5
15685.546875; 8.97727E-5
15691.406250; 8.83350E-5
15697.265625; 9.70519E-5
15703.125000; 1.00208E-4
15708.984375; 8.85156E-5
15714.843750; 9.31751E-5
15720.703125; 9.34112E-5
15726.562500; 1.13494E-4
15732.421875; 1.11782E-4
15738.281250; 9.21366E-5
15744.140625; 1.04235E-4
15750.000000; 1.00865E-4
15755.859375; 9.84155E-5
15761.718750; 1.03170E-4
15767.578125; 1.01047E-4
15773.437500; 9.02437E-5
15779.296875; 1.01832E-4
15785.156250; 1.03808E-4
15791.015625; 1.04244E-4
15796.875000; 1.01391E-4
15802.734375; 8.72112E-5
15808.593750; 9.83965E-5
15814.453125; 9.03042E-5
15820.312500; 8.65272E-5
15826.171875; 9.23692E-5
15832.031250; 9.58562E-5
15837.890625; 9.92239E-5
15843.750000; 9.63455E-5
15849.609375; 9.65244E-5
15855.468750; 1.01880E-4
15861.328125; 9.86635E-5
15867.187500; 9.72854E-5
15873.046875; 1.00415E-4
15878.906250; 1.00865E-4
15884.765625; 9.94120E-5
15890.625000; 9.37706E-5
15896.484375; 9.64479E-5
15902.343750; 8.62322E-5
15908.203125; 9.45186E-5
15914.062500; 1.02143E-4
15919.921875; 1.05424E-4
15925.781250; 1.02838E-4
15931.640625; 1.00996E-4
15937.500000; 1.03166E-4
15943.359375; 1.04557E-4
15949.218750; 9.64206E-5
15955.078125; 9.86081E-5
15960.937500; 9.48541E-5
15966.796875; 1.00843E-4
15972.656250; 9.70195E-5
15978.515625; 8.65562E-5
15984.375000; 9.34343E-5
15990.234375; 9.82845E-5
15996.093750; 1.01585E-4
16001.953125; 1.01914E-4
16007.812500; 8.90617E-5
16013.671875; 8.48299E-5
16019.531250; 1.02161E-4
16025.390625; 1.02918E-4
16031.250000; 9.19160E-5
16037.109375; 1.02593E-4
16042.968750; 1.03749E-4
16048.828125; 1.05719E-4
16054.687500; 1.00788E-4
16060.546875; 1.02882E-4
16066.406250; 1.03989E-4
16072.265625; 1.03814E-4
16078.125000; 1.07272E-4
16083.984375; 9.95675E-5
16089.843750; 1.00288E-4
16095.703125; 1.01061E-4
16101.562500; 1.02616E-4
16107.421875; 1.04555E-4
16113.281250; 1.05688E-4
16119.140625; 1.01205E-4
16125.000000; 9.15804E-5
16130.859375; 9.37796E-5
16136.718750; 1.00861E-4
16142.578125; 1.11799E-4
16148.437500; 1.06166E-4
16154.296875; 9.32263E-5
16160.156250; 9.09815E-5
16166.015625; 9.43843E-5
16171.875000; 1.03487E-4
16177.734375; 1.07997E-4
16183.593750; 1.08703E-4
16189.453125; 1.05259E-4
16195.312500; 1.04508E-4
16201.171875; 9.21452E-5
16207.031250; 1.01237E-4
16212.890625; 1.06464E-4
16218.750000; 1.04290E-4
16224.609375; 1.05480E-4
16230.468750; 9.00520E-5
16236.328125; 1.01337E-4
16242.187500; 1.07318E-4
16248.046875; 1.04330E-4
16253.906250; 1.00319E-4
16259.765625; 9.61291E-5
16265.625000; 9.49664E-5
16271.484375; 1.05359E-4
16277.343750; 1.00100E-4
16283.203125; 9.41719E-5
16289.062500; 9.38170E-5
16294.921875; 9.60620E-5
16300.781250; 9.65861E-5
16306.640625; 9.48638E-5
16312.500000; 9.98488E-5
16318.359375; 9.63477E-5
16324.218750; 8.50843E-5
16330.078125; 9.67918E-5
16335.937500; 9.78304E-5
16341.796875; 1.03996E-4
16347.656250; 1.02438E-4
16353.515625; 1.05863E-4
16359.375000; 1.00617E-4
16365.234375; 1.00088E-4
16371.093750; 1.13683E-4
16376.953125; 1.07620E-4
16382.812500; 9.78658E-5
16388.671875; 9.66157E-5
16394.531250; 1.03758E-4
16400.390625; 9.51894E-5
16406.250000; 9.56175E-5
16412.109375; 9.98973E-5
16417.968750; 9.47218E-5
16423.828125; 9.81823E-5
16429.687500; 9.81256E-5
16435.546875; 1.07410E-4
16441.406250; 1.02593E-4
16447.265625; 9.23687E-5
16453.125000; 8.65353E-5
16458.984375; 9.37897E-5
16464.843750; 9.88006E-5
16470.703125; 9.81294E-5
16476.562500; 1.14447E-4
16482.421875; 1.09401E-4
16488.281250; 1.06737E-4
16494.140625; 1.05809E-4
16500.000000; 1.02043E-4
16505.859375; 1.05385E-4
16511.718750; 9.26926E-5
16517.578125; 9.87939E-5
16523.437500; 9.18673E-5
16529.296875; 9.36214E-5
16535.156250; 9.89757E-5
16541.015625; 1.04269E-4
16546.875000; 1.00218E-4
16552.734375; 9.97591E-5
16558.593750; 1.05245E-4
16564.453125; 1.02229E-4
16570.312500; 1.02807E-4
16576.171875; 9.76189E-5
16582.031250; 9.58429E-5
16587.890625; 9.82924E-5
16593.750000; 1.00587E-4
16599.609375; 1.07550E-4
16605.468750; 1.07963E-4
16611.328125; 9.82135E-5
16617.187500; 1.02065E-4
16623.046875; 1.01484E-4
16628.906250; 1.00133E-4
16634.765625; 1.08455E-4
16640.625000; 1.21845E-4
16646.484375; 1.07208E-4
16652.343750; 9.92476E-5
16658.203125; 9.10852E-5
16664.062500; 9.29443E-5
16669.921875; 9.87067E-5
16675.781250; 1.10407E-4
16681.640625; 1.16798E-4
16687.500000; 9.55829E-5
16693.359375; 9.59908E-5
16699.218750; 9.90345E-5
16705.078125; 1.01252E-4
16710.937500; 9.64255E-5
16716.796875; 1.05773E-4
16722.656250; 1.13887E-4
16728.515625; 1.14320E-4
16734.375000; 1.07576E-4
16740.234375; 9.74057E-5
16746.093750; 9.38243E-5
16751.953125; 1.02739E-4
16757.812500; 9.47362E-5
16763.671875; 1.04624E-4
16769.531250; 9.21852E-5
16775.390625; 8.88988E-5
16781.250000; 1.02988E-4
16787.109375; 1.11351E-4
16792.968750; 1.02711E-4
16798.828125; 8.46477E-5
16804.687500; 9.59514E-5
16810.546875; 9.89121E-5
16816.406250; 9.37407E-5
16822.265625; 9.47534E-5
16828.125000; 1.06870E-4
16833.984375; 1.01732E-4
16839.843750; 9.92480E-5
16845.703125; 9.64066E-5
16851.562500; 9.11837E-5
16857.421875; 1.01849E-4
16863.281250; 1.12625E-4
16869.140625; 1.02274E-4
16875.000000; 8.95452E-5
16880.859375; 9.48923E-5
16886.718750; 1.02271E-4
16892.578125; 1.05212E-4
16898.437500; 9.83914E-5
16904.296875; 1.06030E-4
16910.156250; 1.07469E-4
16916.015625; 1.01970E-4
16921.875000; 1.05929E-4
16927.734375; 1.07665E-4
16933.593750; 9.00864E-5
16939.453125; 1.01597E-4
16945.312500; 1.07925E-4
16951.171875; 9.69091E-5
16957.031250; 9.80066E-5
16962.890625; 1.04527E-4
16968.750000; 1.01810E-4
16974.609375; 1.04267E-4
16980.468750; 1.05384E-4
16986.328125; 1.06795E-4
16992.187500; 1.11012E-4
16998.046875; 9.93043E-5
17003.906250; 9.48785E-5
17009.765625; 9.54448E-5
17015.625000; 9.57933E-5
17021.484375; 9.59133E-5
17027.343750; 9.51874E-5
17033.203125; 9.75321E-5
17039.062500; 9.36598E-5
17044.921875; 9.93414E-5
17050.781250; 9.99124E-5
17056.640625; 9.70737E-5
17062.500000; 1.03554E-4
17068.359375; 1.05341E-4
17074.218750; 9.94208E-5
17080.078125; 1.01104E-4
17085.937500; 9.71209E-5
17091.796875; 1.01783E-4
17097.656250; 1.08109E-4
17103.515625; 9.68576E-5
17109.375000; 9.62015E-5
17115.234375; 9.90355E-5
17121.093750; 9.55412E-5
17126.953125; 9.41297E-5
17132.812500; 9.02087E-5
17138.671875; 1.04637E-4
17144.531250; 9.96787E-5
17150.390625; 1.01326E-4
17156.250000; 1.10172E-4
17162.109375; 1.06971E-4
17167.968750; 1.01676E-4
17173.828125; 1.02954E-4
17179.687500; 9.86001E-5
17185.546875; 8.31010E-5
17191.406250; 9.34276E-5
17197.265625; 9.68850E-5
17203.125000; 9.52572E-5
17208.984375; 9.48305E-5
17214.843750; 1.10099E-4
17220.703125; 9.92229E-5
17226.562500; 8.76699E-5
17232.421875; 8.65027E-5
17238.281250; 1.02002E-4
17244.140625; 1.12885E-4
17250.000000; 9.90264E-5
17255.859375; 1.07152E-4
17261.718750; 9.79468E-5
17267.578125; 9.72070E-5
17273.437500; 1.09152E-4
17279.296875; 1.04609E-4
17285.156250; 1.06846E-4
17291.015625; 1.13671E-4
17296.875000; 1.04239E-4
17302.734375; 1.00522E-4
17308.593750; 9.90679E-5
17314.453125; 1.01000E-4
17320.312500; 9.97027E-5
17326.171875; 1.02701E-4
17332.031250; 1.05410E-4
17337.890625; 9.83469E-5
17343.750000; 9.51829E-5
17349.609375; 9.10025E-5
17355.468750; 1.02031E-4
17361.328125; 1.04180E-4
17367.187500; 9.29066E-5
17373.046875; 9.00125E-5
17378.906250; 9.75519E-5
17384.765625; 1.05973E-4
17390.625000; 9.81272E-5
17396.484375; 1.08210E-4
17402.343750; 1.05873E-4
17408.203125; 8.51569E-5
17414.062500; 8.50750E-5
17419.921875; 9.46725E-5
17425.781250; 9.51551E-5
17431.640625; 9.55467E-5
17437.500000; 1.01633E-4
17443.359375; 9.75255E-5
17449.218750; 1.04012E-4
17455.078125; 1.00736E-4
17460.937500; 9.83869E-5
17466.796875; 1.04472E-4
17472.656250; 8.96067E-5
17478.515625; 8.83179E-5
17484.375000; 1.05177E-4
17490.234375; 1.06138E-4
17496.093750; 9.85270E-5
17501.953125; 9.88323E-5
17507.812500; 1.00364E-4
17513.671875; 1.07680E-4
17519.531250; 1.07838E-4
17525.390625; 1.04411E-4
17531.250000; 1.02646E-4
17537.109375; 1.00450E-4
17542.968750; 9.76593E-5
17548.828125; 1.02781E-4
17554.687500; 9.30442E-5
17560.546875; 9.07965E-5
17566.406250; 9.72868E-5
17572.265625; 1.03048E-4
17578.125000; 9.97979E-5
17583.984375; 9.64648E-5
17589.843750; 1.04735E-4
17595.703125; 1.04542E-4
17601.562500; 1.09181E-4
17607.421875; 1.04692E-4
17613.281250; 9.19118E-5
17619.140625; 9.78012E-5
17625.000000; 1.04150E-4
17630.859375; 1.02902E-4
17636.718750; 1.02167E-4
17642.578125; 9.79792E-5
17648.437500; 8.97404E-5
17654.296875; 1.05606E-4
17660.156250; 9.85348E-5
17666.015625; 1.02474E-4
17671.875000; 1.03010E-4
17677.734375; 9.41495E-5
17683.593750; 9.09514E-5
17689.453125; 1.02038E-4
17695.312500; 1.03820E-4
17701.171875; 9.80718E-5
17707.031250; 1.01019E-4
17712.890625; 1.06073E-4
17718.750000; 1.06092E-4
17724.609375; 1.02713E-4
17730.468750; 9.59524E-5
17736.328125; 1.01095E-4
17742.187500; 1.06315E-4
17748.046875; 9.23799E-5
17753.906250; 9.40021E-5
17759.765625; 9.89439E-5
17765.625000; 8.64863E-5
17771.484375; 9.15122E-5
17777.343750; 9.39519E-5
17783.203125; 1.01891E-4
17789.062500; 1.02264E-4
17794.921875; 1.03164E-4
17800.781250; 1.06220E-4
17806.640625; 1.08594E-4
17812.500000; 1.03316E-4
17818.359375; 9.28016E-5
17824.218750; 1.00518E-4
17830.078125; 9.36703E-5
17835.937500; 8.74664E-5
17841.796875; 9.32642E-5
17847.656250; 1.07733E-4
17853.515625; 1.02841E-4
17859.375000; 9.92972E-5
17865.234375; 1.03038E-4
17871.093750; 1.02986E-4
17876.953125; 1.04938E-4
17882.812500; 1.00453E-4
17888.671875; 9.58060E-5
17894.531250; 9.14264E-5
17900.390625; 8.78293E-5
17906.250000; 9.00045E-5
17912.109375; 9.89215E-5
17917.968750; 9.62023E-5
17923.828125; 1.01247E-4
17929.687500; 9.74825E-5
17935.546875; 9.25256E-5
17941.406250; 9.45154E-5
17947.265625; 9.85004E-5
17953.125000; 9.76831E-5
17958.984375; 9.29246E-5
17964.843750; 9.41259E-5
17970.703125; 9.94793E-5
17976.562500; 1.00783E-4
17982.421875; 9.87983E-5
17988.281250; 9.93170E-5
17994.140625; 1.00213E-4
18000.000000; 1.00403E-4
18005.859375; 1.00816E-4
18011.718750; 9.91828E-5
18017.578125; 8.97408E-5
18023.437500; 9.44634E-5
18029.296875; 9.78353E-5
18035.156250; 9.63226E-5
18041.015625; 1.00258E-4
18046.875000; 9.69896E-5
18052.734375; 9.03963E-5
18058.593750; 9.19045E-5
18064.453125; 8.93574E-5
18070.312500; 8.53175E-5
18076.171875; 9.20656E-5
18082.031250; 1.05946E-4
18087.890625; 1.02560E-4
18093.750000; 9.53483E-5
18099.609375; 8.97283E-5
18105.468750; 9.05384E-5
18111.328125; 9.50159E-5
18117.187500; 1.00849E-4
18123.046875; 9.94660E-5
18128.906250; 9.41100E-5
18134.765625; 9.66970E-5
18140.625000; 9.75480E-5
18146.484375; 9.63732E-5
18152.343750; 9.11596E-5
18158.203125; 9.54170E-5
18164.062500; 9.58800E-5
18169.921875; 9.87722E-5
18175.781250; 9.28373E-5
18181.640625; 9.59589E-5
18187.500000; 1.15462E-4
18193.359375; 1.12334E-4
18199.218750; 9.98966E-5
18205.078125; 8.56627E-5
18210.937500; 9.45767E-5
18216.796875; 1.07600E-4
18222.656250; 1.17218E-4
18228.515625; 1.01705E-4
18234.375000; 1.02334E-4
18240.234375; 9.88021E-5
18246.093750; 9.25685E-5
18251.953125; 9.85261E-5
18257.812500; 1.06434E-4
18263.671875; 9.77255E-5
18269.531250; 9.37781E-5
18275.390625; 9.92022E-5
18281.250000; 1.02497E-4
18287.109375; 9.18374E-5
18292.968750; 9.07011E-5
18298.828125; 1.05787E-4
18304.687500; 1.03922E-4
18310.546875; 1.04782E-4
18316.406250; 1.03443E-4
18322.265625; 9.23622E-5
18328.125000; 8.72866E-5
18333.984375; 1.00491E-4
18339.843750; 1.09573E-4
18345.703125; 9.06598E-5
18351.562500; 9.00370E-5
18357.421875; 8.51960E-5
18363.281250; 8.99530E-5
18369.140625; 8.89655E-5
18375.000000; 9.25955E-5
18380.859375; 9.95238E-5
18386.718750; 9.25345E-5
18392.578125; 8.46008E-5
18398.437500; 9.49272E-5
18404.296875; 9.45214E-5
18410.156250; 9.38325E-5
18416.015625; 1.04286E-4
18421.875000; 1.05606E-4
18427.734375; 9.51152E-5
18433.593750; 9.31461E-5
18439.453125; 9.66673E-5
18445.312500; 1.04581E-4
18451.171875; 9.80853E-5
18457.031250; 1.00633E-4
18462.890625; 9.80712E-5
18468.750000; 9.75427E-5
18474.609375; 9.67959E-5
18480.468750; 9.15309E-5
18486.328125; 9.61647E-5
18492.187500; 9.43085E-5
18498.046875; 9.20239E-5
18503.906250; 9.40908E-5
18509.765625; 9.38168E-5
18515.625000; 9.83237E-5
18521.484375; 9.63678E-5
18527.343750; 8.80935E-5
18533.203125; 9.08970E-5
18539.062500; 1.04392E-4
18544.921875; 9.90164E-5
18550.781250; 9.98780E-5
18556.640625; 9.96660E-5
18562.500000; 9.93158E-5
18568.359375; 1.01235E-4
18574.218750; 9.78854E-5
18580.078125; 1.02162E-4
18585.937500; 9.80970E-5
18591.796875; 9.08300E-5
18597.656250; 9.16144E-5
18603.515625; 9.37363E-5
18609.375000; 9.46408E-5
18615.234375; 9.09981E-5
18621.093750; 1.05718E-4
18626.953125; 9.63871E-5
18632.812500; 9.31927E-5
18638.671875; 9.42446E-5
18644.531250; 9.80500E-5
18650.390625; 9.09205E-5
18656.250000; 8.98788E-5
18662.109375; 9.18938E-5
18667.968750; 9.73928E-5
18673.828125; 9.96374E-5
18679.687500; 1.02284E-4
18685.546875; 1.00958E-4
18691.406250; 9.68644E-5
18697.265625; 1.03734E-4
18703.125000; 9.53501E-5
18708.984375; 9.83237E-5
18714.843750; 1.01030E-4
18720.703125; 1.02414E-4
18726.562500; 9.75741E-5
18732.421875; 8.93651E-5
18738.281250; 9.93432E-5
18744.140625; 1.02939E-4
18750.000000; 9.90437E-5
18755.859375; 9.74691E-5
18761.718750; 9.78286E-5
18767.578125; 9.77459E-5
18773.437500; 9.57765E-5
18779.296875; 9.66537E-5
18785.156250; 9.98583E-5
18791.015625; 9.88390E-5
18796.875000; 1.02405E-4
18802.734375; 1.11314E-4
18808.593750; 1.00995E-4
18814.453125; 9.58018E-5
18820.312500; 9.30782E-5
18826.171875; 9.40101E-5
18832.031250; 9.34176E-5
18837.890625; 1.04472E-4
18843.750000; 1.02483E-4
18849.609375; 9.47026E-5
18855.468750; 9.33465E-5
18861.328125; 1.06086E-4
18867.187500; 1.16372E-4
18873.046875; 1.12246E-4
18878.906250; 1.05002E-4
18884.765625; 9.44194E-5
18890.625000; 9.66308E-5
18896.484375; 1.04336E-4
18902.343750; 1.08784E-4
18908.203125; 1.14766E-4
18914.062500; 1.01416E-4
18919.921875; 9.37498E-5
18925.781250; 1.03496E-4
18931.640625; 1.04689E-4
18937.500000; 1.02855E-4
18943.359375; 9.67435E-5
18949.218750; 9.29351E-5
18955.078125; 8.99782E-5
18960.937500; 9.34524E-5
18966.796875; 9.82909E-5
18972.656250; 9.87047E-5
18978.515625; 9.75068E-5
18984.375000; 8.66965E-5
18990.234375; 9.71164E-5
18996.093750; 9.17941E-5
19001.953125; 9.85913E-5
19007.812500; 9.75031E-5
19013.671875; 8.98433E-5
19019.531250; 8.36490E-5
19025.390625; 9.59694E-5
19031.250000; 9.03309E-5
19037.109375; 8.33574E-5
19042.968750; 9.77773E-5
19048.828125; 9.64849E-5
19054.687500; 1.02309E-4
19060.546875; 1.02160E-4
19066.406250; 9.18271E-5
19072.265625; 8.90280E-5
19078.125000; 8.79276E-5
19083.984375; 8.74988E-5
19089.843750; 9.07460E-5
19095.703125; 8.91232E-5
19101.562500; 1.01472E-4
19107.421875; 9.80073E-5
19113.281250; 9.85881E-5
19119.140625; 9.38300E-5
19125.000000; 8.27066E-5
19130.859375; 9.34550E-5
19136.718750; 8.93735E-5
19142.578125; 9.22082E-5
19148.437500; 9.17248E-5
19154.296875; 8.49645E-5
19160.156250; 1.01614E-4
19166.015625; 1.02822E-4
19171.875000; 9.45665E-5
19177.734375; 1.00662E-4
19183.593750; 9.72050E-5
19189.453125; 1.01361E-4
19195.312500; 9.57821E-5
19201.171875; 9.76383E-5
19207.031250; 9.96456E-5
19212.890625; 9.95403E-5
19218.750000; 9.48428E-5
19224.609375; 8.96068E-5
19230.468750; 9.55272E-5
19236.328125; 9.13950E-5
19242.187500; 9.55608E-5
19248.046875; 9.11994E-5
19253.906250; 9.55811E-5
19259.765625; 1.05148E-4
19265.625000; 1.01046E-4
19271.484375; 9.94452E-5
19277.343750; 9.75809E-5
19283.203125; 9.63905E-5
19289.062500; 9.57630E-5
19294.921875; 1.02731E-4
19300.781250; 1.04389E-4
19306.640625; 1.01248E-4
19312.500000; 9.54314E-5
19318.359375; 8.92020E-5
19324.218750; 9.72857E-5
19330.078125; 9.73900E-5
19335.937500; 9.04686E-5
19341.796875; 1.04804E-4
19347.656250; 9.28960E-5
19353.515625; 7.84704E-5
19359.375000; 1.00765E-4
19365.234375; 9.98304E-5
19371.093750; 9.62515E-5
19376.953125; 9.74982E-5
19382.812500; 1.01651E-4
19388.671875; 1.06398E-4
19394.531250; 9.21297E-5
19400.390625; 8.84562E-5
19406.250000; 9.07359E-5
19412.109375; 8.89975E-5
19417.968750; 9.66837E-5
19423.828125; 9.91727E-5
19429.687500; 1.01344E-4
19435.546875; 9.85967E-5
19441.406250; 9.54705E-5
19447.265625; 9.37210E-5
19453.125000; 9.95815E-5
19458.984375; 1.00715E-4
19464.843750; 9.78854E-5
19470.703125; 9.21099E-5
19476.562500; 9.35039E-5
19482.421875; 1.04924E-4
19488.281250; 1.16534E-4
19494.140625; 1.08408E-4
19500.000000; 8.83783E-5
19505.859375; 9.08273E-5
19511.718750; 9.67649E-5
19517.578125; 9.74971E-5
19523.437500; 1.02164E-4
19529.296875; 1.03915E-4
19535.156250; 9.85145E-5
19541.015625; 1.01153E-4
19546.875000; 1.04145E-4
19552.734375; 1.00893E-4
19558.593750; 1.00555E-4
19564.453125; 1.03488E-4
19570.312500; 1.12369E-4
19576.171875; 9.33692E-5
19582.031250; 9.30503E-5
19587.890625; 9.19518E-5
19593.750000; 9.46937E-5
19599.609375; 9.61888E-5
19605.468750; 8.93362E-5
19611.328125; 9.18255E-5
19617.187500; 1.08001E-4
19623.046875; 1.10178E-4
19628.906250; 1.04369E-4
19634.765625; 1.00151E-4
19640.625000; 9.66669E-5
19646.484375; 9.48535E-5
19652.343750; 1.00371E-4
19658.203125; 9.27068E-5
19664.062500; 9.43375E-5
19669.921875; 8.95077E-5
19675.781250; 8.48560E-5
19681.640625; 8.48321E-5
19687.500000; 8.85593E-5
19693.359375; 1.02247E-4
19699.218750; 1.07161E-4
19705.078125; 1.03246E-4
19710.937500; 9.83869E-5
19716.796875; 9.41441E-5
19722.656250; 9.38379E-5
19728.515625; 1.04494E-4
19734.375000; 1.00367E-4
19740.234375; 9.37354E-5
19746.093750; 1.06521E-4
19751.953125; 1.09542E-4
19757.812500; 1.07219E-4
19763.671875; 1.06347E-4
19769.531250; 9.40467E-5
19775.390625; 9.03128E-5
19781.250000; 1.05255E-4
19787.109375; 1.02834E-4
19792.968750; 1.05661E-4
19798.828125; 1.03121E-4
19804.687500; 1.06302E-4
19810.546875; 1.06026E-4
19816.406250; 1.04623E-4
19822.265625; 1.06483E-4
19828.125000; 9.70135E-5
19833.984375; 8.86221E-5
19839.843750; 9.91281E-5
19845.703125; 1.02577E-4
19851.562500; 9.54540E-5
19857.421875; 9.83647E-5
19863.281250; 1.00871E-4
19869.140625; 1.11135E-4
19875.000000; 1.06559E-4
19880.859375; 9.41462E-5
19886.718750; 9.53627E-5
19892.578125; 9.56378E-5
19898.437500; 1.00985E-4
19904.296875; 1.04904E-4
19910.156250; 9.10823E-5
19916.015625; 8.69076E-5
19921.875000; 9.03204E-5
19927.734375; 9.52463E-5
19933.593750; 9.16695E-5
19939.453125; 8.98734E-5
19945.312500; 9.24126E-5
19951.171875; 9.34433E-5
19957.031250; 9.40629E-5
19962.890625; 9.30123E-5
19968.750000; 1.09102E-4
19974.609375; 1.00441E-4
19980.468750; 8.33590E-5
19986.328125; 8.68056E-5
19992.187500; 9.32272E-5
19998.046875; 9.83190E-5
20003.906250; 8.98821E-5
20009.765625; 9.71427E-5
20015.625000; 9.98277E-5
20021.484375; 9.34945E-5
20027.343750; 9.45561E-5
20033.203125; 9.84482E-5
20039.062500; 9.37119E-5
20044.921875; 8.82090E-5
20050.781250; 9.36649E-5
20056.640625; 9.94006E-5
20062.500000; 1.03137E-4
20068.359375; 1.01549E-4
20074.218750; 9.30539E-5
20080.078125; 9.50879E-5
20085.937500; 9.03197E-5
20091.796875; 8.97878E-5
20097.656250; 9.44562E-5
20103.515625; 9.56084E-5
20109.375000; 9.62933E-5
20115.234375; 1.06158E-4
20121.093750; 1.10367E-4
20126.953125; 1.02152E-4
20132.812500; 9.88796E-5
20138.671875; 9.64894E-5
20144.531250; 9.91650E-5
20150.390625; 9.94221E-5
20156.250000; 1.08715E-4
20162.109375; 1.03250E-4
20167.968750; 1.01172E-4
20173.828125; 1.05888E-4
20179.687500; 9.17544E-5
20185.546875; 9.26665E-5
20191.406250; 8.99621E-5
20197.265625; 9.02175E-5
20203.125000; 1.02609E-4
20208.984375; 1.08196E-4
20214.843750; 9.71812E-5
20220.703125; 8.99846E-5
20226.562500; 9.79034E-5
20232.421875; 9.52109E-5
20238.281250; 8.80709E-5
20244.140625; 8.98528E-5
20250.000000; 9.80624E-5
20255.859375; 1.00116E-4
20261.718750; 9.89946E-5
20267.578125; 1.05129E-4
20273.437500; 1.03068E-4
20279.296875; 1.02961E-4
20285.156250; 9.95493E-5
20291.015625; 9.91283E-5
20296.875000; 9.48399E-5
20302.734375; 1.00830E-4
20308.593750; 9.98839E-5
20314.453125; 1.04042E-4
20320.312500; 1.01194E-4
20326.171875; 9.74776E-5
20332.031250; 1.06551E-4
20337.890625; 1.05760E-4
20343.750000; 9.92706E-5
20349.609375; 9.38651E-5
20355.468750; 9.79443E-5
20361.328125; 9.58466E-5
20367.187500; 9.54894E-5
20373.046875; 9.89190E-5
20378.906250; 1.09927E-4
20384.765625; 1.05148E-4
20390.625000; 1.06946E-4
20396.484375; 9.98277E-5
20402.343750; 9.20718E-5
20408.203125; 8.30175E-5
20414.062500; 8.96931E-5
20419.921875; 9.36673E-5
20425.781250; 9.76796E-5
20431.640625; 9.77238E-5
20437.500000; 9.48784E-5
20443.359375; 9.83039E-5
20449.218750; 9.25568E-5
20455.078125; 8.97867E-5
20460.937500; 9.60731E-5
20466.796875; 9.79104E-5
20472.656250; 9.97558E-5
20478.515625; 9.78835E-5
20484.375000; 9.92732E-5
20490.234375; 9.31011E-5
20496.093750; 1.02589E-4
20501.953125; 9.52702E-5
20507.812500; 9.59753E-5
20513.671875; 9.00946E-5
20519.531250; 9.07343E-5
20525.390625; 9.81712E-5
20531.250000; 9.72989E-5
20537.109375; 9.83475E-5
20542.968750; 1.02650E-4
20548.828125; 1.03365E-4
20554.687500; 1.05377E-4
20560.546875; 9.65693E-5
20566.406250; 9.33503E-5
20572.265625; 8.89791E-5
20578.125000; 8.90622E-5
20583.984375; 1.08892E-4
20589.843750; 1.09951E-4
20595.703125; 1.04499E-4
20601.562500; 9.56106E-5
20607.421875; 1.00397E-4
20613.281250; 1.12989E-4
20619.140625; 9.82103E-5
20625.000000; 8.93515E-5
20630.859375; 8.22647E-5
20636.718750; 7.99701E-5
20642.578125; 8.76471E-5
20648.437500; 8.69350E-5
20654.296875; 9.21195E-5
20660.156250; 9.40231E-5
20666.015625; 9.39884E-5
20671.875000; 8.89609E-5
20677.734375; 8.62246E-5
20683.593750; 9.19133E-5
20689.453125; 9.81468E-5
20695.312500; 9.97212E-5
20701.171875; 1.00077E-4
20707.031250; 9.57235E-5
20712.890625; 9.26096E-5
20718.750000; 9.86560E-5
20724.609375; 9.74017E-5
20730.468750; 9.90911E-5
20736.328125; 9.85967E-5
20742.187500; 1.01640E-4
20748.046875; 9.81879E-5
20753.906250; 9.15865E-5
20759.765625; 9.63527E-5
20765.625000; 9.12587E-5
20771.484375; 9.24132E-5
20777.343750; 9.05441E-5
20783.203125; 9.06833E-5
20789.062500; 9.51230E-5
20794.921875; 8.95273E-5
20800.781250; 9.29797E-5
20806.640625; 9.37384E-5
20812.500000; 9.48319E-5
20818.359375; 9.85033E-5
20824.218750; 1.04426E-4
20830.078125; 9.73985E-5
20835.937500; 8.85645E-5
20841.796875; 9.22338E-5
20847.656250; 9.54847E-5
20853.515625; 8.53186E-5
20859.375000; 9.10196E-5
20865.234375; 9.71948E-5
20871.093750; 9.93973E-5
20876.953125; 9.20382E-5
20882.812500; 8.84625E-5
20888.671875; 8.54355E-5
20894.531250; 9.86446E-5
20900.390625; 9.66164E-5
20906.250000; 1.07878E-4
20912.109375; 1.04910E-4
20917.968750; 9.13954E-5
20923.828125; 8.71214E-5
20929.687500; 9.10417E-5
20935.546875; 9.86695E-5
20941.406250; 1.01986E-4
20947.265625; 1.03120E-4
20953.125000; 1.00268E-4
20958.984375; 8.72021E-5
20964.843750; 7.93944E-5
20970.703125; 9.47784E-5
20976.562500; 1.00284E-4
20982.421875; 9.82985E-5
20988.281250; 9.79249E-5
20994.140625; 9.66957E-5
21000.000000; 9.68480E-5
21005.859375; 9.60266E-5
21011.718750; 9.25864E-5
21017.578125; 9.42584E-5
21023.437500; 1.06643E-4
21029.296875; 1.02143E-4
21035.156250; 9.33029E-5
21041.015625; 8.81741E-5
21046.875000; 9.86823E-5
21052.734375; 1.08216E-4
21058.593750; 8.98859E-5
21064.453125; 8.26927E-5
21070.312500; 9.29500E-5
21076.171875; 1.04418E-4
21082.031250; 1.12325E-4
21087.890625; 1.05695E-4
21093.750000; 9.98707E-5
21099.609375; 9.59689E-5
21105.468750; 9.42040E-5
21111.328125; 8.93225E-5
21117.187500; 1.01296E-4
21123.046875; 9.78866E-5
21128.906250; 8.11549E-5
21134.765625; 9.20280E-5
21140.625000; 9.56278E-5
21146.484375; 9.55702E-5
21152.343750; 1.00599E-4
21158.203125; 1.05611E-4
21164.062500; 1.01930E-4
21169.921875; 1.10404E-4
21175.781250; 1.05150E-4
21181.640625; 1.00905E-4
21187.500000; 9.53034E-5
21193.359375; 9.32343E-5
21199.218750; 8.85772E-5
21205.078125; 9.76031E-5
21210.937500; 9.35337E-5
21216.796875; 8.97510E-5
21222.656250; 9.18581E-5
21228.515625; 9.85908E-5
21234.375000; 9.91743E-5
21240.234375; 1.04128E-4
21246.093750; 1.01077E-4
21251.953125; 1.02345E-4
21257.812500; 9.75866E-5
21263.671875; 1.05195E-4
21269.531250; 9.88321E-5
21275.390625; 1.04023E-4
21281.250000; 1.03796E-4
21287.109375; 1.04635E-4
21292.968750; 9.41778E-5
21298.828125; 9.57042E-5
21304.687500; 9.55003E-5
21310.546875; 9.32503E-5
21316.406250; 1.06268E-4
21322.265625; 9.89269E-5
21328.125000; 7.81576E-5
21333.984375; 8.59104E-5
21339.843750; 9.84000E-5
21345.703125; 9.02983E-5
21351.562500; 9.32782E-5
21357.421875; 8.73682E-5
21363.281250; 9.28545E-5
21369.140625; 9.16686E-5
21375.000000; 1.04353E-4
21380.859375; 1.04641E-4
21386.718750; 1.02675E-4
21392.578125; 1.03253E-4
21398.437500; 1.00145E-4
21404.296875; 1.02612E-4
21410.156250; 9.54014E-5
21416.015625; 9.73323E-5
21421.875000; 9.94038E-5
21427.734375; 9.94224E-5
21433.593750; 9.77161E-5
21439.453125; 9.69007E-5
21445.312500; 9.56911E-5
21451.171875; 9.68401E-5
21457.031250; 9.27386E-5
21462.890625; 1.00919E-4
21468.750000; 1.00060E-4
21474.609375; 9.77310E-5
21480.468750; 1.00085E-4
21486.328125; 9.15862E-5
21492.187500; 9.13373E-5
21498.046875; 9.17444E-5
21503.906250; 9.70573E-5
21509.765625; 1.08096E-4
21515.625000; 1.05435E-4
21521.484375; 1.01785E-4
21527.343750; 1.00970E-4
21533.203125; 9.37730E-5
21539.062500; 8.73244E-5
21544.921875; 8.54693E-5
21550.781250; 9.54850E-5
21556.640625; 9.17355E-5
21562.500000; 9.09448E-5
21568.359375; 9.24345E-5
21574.218750; 8.30007E-5
21580.078125; 9.62448E-5
21585.937500; 9.56499E-5
21591.796875; 9.21665E-5
21597.656250; 9.09384E-5
21603.515625; 9.86660E-5
21609.375000; 9.76146E-5
21615.234375; 9.49328E-5
21621.093750; 9.59740E-5
21626.953125; 9.40867E-5
21632.812500; 9.73293E-5
21638.671875; 9.28706E-5
21644.531250; 8.78306E-5
21650.390625; 9.14949E-5
21656.250000; 1.02393E-4
21662.109375; 1.07987E-4
21667.968750; 9.43520E-5
21673.828125; 9.59668E-5
21679.687500; 9.09878E-5
21685.546875; 9.58520E-5
21691.406250; 1.02200E-4
21697.265625; 9.38142E-5
21703.125000; 8.21878E-5
21708.984375; 8.95879E-5
21714.843750; 8.90493E-5
21720.703125; 8.98213E-5
21726.562500; 9.27452E-5
21732.421875; 9.87848E-5
21738.281250; 9.46624E-5
21744.140625; 9.51605E-5
21750.000000; 9.11237E-5
21755.859375; 9.34512E-5
21761.718750; 9.88997E-5
21767.578125; 1.01850E-4
21773.437500; 1.04139E-4
21779.296875; 1.08945E-4
21785.156250; 1.00324E-4
21791.015625; 9.26614E-5
21796.875000; 9.71567E-5
21802.734375; 9.58291E-5
21808.593750; 9.49071E-5
21814.453125; 1.05337E-4
21820.312500; 1.01072E-4
21826.171875; 9.86696E-5
21832.031250; 9.24913E-5
21837.890625; 1.01191E-4
21843.750000; 9.83083E-5
21849.609375; 8.87242E-5
21855.468750; 9.42986E-5
21861.328125; 8.56792E-5
21867.187500; 9.18608E-5
21873.046875; 9.01345E-5
21878.906250; 8.68033E-5
21884.765625; 9.52500E-5
21890.625000; 9.59935E-5
21896.484375; 9.72453E-5
21902.343750; 9.23878E-5
21908.203125; 1.01598E-4
21914.062500; 9.82087E-5
21919.921875; 9.88704E-5
21925.781250; 9.74750E-5
21931.640625; 9.89421E-5
21937.500000; 9.59733E-5
21943.359375; 1.00128E-4
21949.218750; 1.05130E-4
21955.078125; 1.02100E-4
21960.937500; 9.62231E-5
21966.796875; 9.14349E-5
21972.656250; 9.43565E-5
21978.515625; 8.67065E-5
21984.375000; 8.82037E-5
21990.234375; 8.68933E-5
21996.093750; 9.27828E-5
22001.953125; 1.01593E-4
22007.812500; 1.00399E-4
22013.671875; 9.81472E-5
22019.531250; 9.69097E-5
22025.390625; 9.76690E-5
22031.250000; 9.97195E-5
22037.109375; 9.13733E-5
22042.968750; 8.77765E-5
22048.828125; 8.81208E-5
22054.687500; 9.62856E-5
22060.546875; 1.00160E-4
22066.406250; 9.78269E-5
22072.265625; 9.61208E-5
22078.125000; 9.21204E-5
22083.984375; 9.15754E-5
22089.843750; 8.39740E-5
22095.703125; 9.23817E-5
22101.562500; 1.00591E-4
22107.421875; 9.89591E-5
22113.281250; 8.88552E-5
22119.140625; 9.38132E-5
22125.000000; 9.34034E-5
22130.859375; 9.99222E-5
22136.718750; 9.78258E-5
22142.578125; 1.00520E-4
22148.437500; 9.59070E-5
22154.296875; 9.64544E-5
22160.156250; 9.54346E-5
22166.015625; 9.49260E-5
22171.875000; 1.01974E-4
22177.734375; 8.54748E-5
22183.593750; 8.24451E-5
22189.453125; 9.45111E-5
22195.312500; 1.02528E-4
22201.171875; 9.82769E-5
22207.031250; 8.23116E-5
22212.890625; 8.36406E-5
22218.750000; 9.20178E-5
22224.609375; 1.03799E-4
22230.468750; 1.05051E-4
22236.328125; 9.43440E-5
22242.187500; 8.56038E-5
22248.046875; 8.61998E-5
22253.906250; 9.30741E-5
22259.765625; 8.53759E-5
22265.625000; 8.09863E-5
22271.484375; 8.52384E-5
22277.343750; 8.88989E-5
22283.203125; 9.07333E-5
22289.062500; 9.04635E-5
22294.921875; 9.78104E-5
22300.781250; 9.79336E-5
22306.640625; 9.67330E-5
22312.500000; 9.05725E-5
22318.359375; 9.64815E-5
22324.218750; 9.04065E-5
22330.078125; 9.07431E-5
22335.937500; 9.77220E-5
22341.796875; 9.20099E-5
22347.656250; 9.64231E-5
22353.515625; 9.73888E-5
22359.375000; 9.68777E-5
22365.234375; 9.51127E-5
22371.093750; 1.08076E-4
22376.953125; 1.06633E-4
22382.812500; 9.24162E-5
22388.671875; 9.37065E-5
22394.531250; 9.50775E-5
22400.390625; 8.76403E-5
22406.250000; 8.34500E-5
22412.109375; 8.72203E-5
22417.968750; 8.72092E-5
22423.828125; 8.68964E-5
22429.687500; 8.62825E-5
22435.546875; 8.86703E-5
22441.406250; 9.78299E-5
22447.265625; 8.61316E-5
22453.125000; 8.63956E-5
22458.984375; 8.59442E-5
22464.843750; 8.01871E-5
22470.703125; 8.56514E-5
22476.562500; 8.92747E-5
22482.421875; 8.79028E-5
22488.281250; 8.96021E-5
22494.140625; 9.43794E-5
22500.000000; 9.31788E-5
22505.859375; 9.21237E-5
22511.718750; 9.21145E-5
22517.578125; 8.68178E-5
22523.437500; 9.21056E-5
22529.296875; 9.02661E-5
22535.156250; 9.07244E-5
22541.015625; 8.11593E-5
22546.875000; 8.43304E-5
22552.734375; 8.52113E-5
22558.593750; 8.69267E-5
22564.453125; 9.15065E-5
22570.312500; 9.13507E-5
22576.171875; 8.31491E-5
22582.031250; 7.92469E-5
22587.890625; 8.34295E-5
22593.750000; 8.29523E-5
22599.609375; 9.56386E-5
22605.468750; 9.43971E-5
22611.328125; 8.98924E-5
22617.187500; 8.29962E-5
22623.046875; 8.08701E-5
22628.906250; 8.39571E-5
22634.765625; 8.13009E-5
22640.625000; 8.14838E-5
22646.484375; 8.05991E-5
22652.343750; 8.50698E-5
22658.203125; 9.05500E-5
22664.062500; 9.30638E-5
22669.921875; 8.38075E-5
22675.781250; 9.23335E-5
22681.640625; 8.72053E-5
22687.500000; 7.93945E-5
22693.359375; 7.80135E-5
22699.218750; 9.02143E-5
22705.078125; 9.56719E-5
22710.937500; 7.85534E-5
22716.796875; 7.91259E-5
22722.656250; 8.29117E-5
22728.515625; 8.30227E-5
22734.375000; 8.45047E-5
22740.234375; 8.25637E-5
22746.093750; 7.91855E-5
22751.953125; 8.11759E-5
22757.812500; 8.07697E-5
22763.671875; 8.03626E-5
22769.531250; 8.09170E-5
22775.390625; 7.75375E-5
22781.250000; 7.99869E-5
22787.109375; 8.34186E-5
22792.968750; 8.62906E-5
22798.828125; 8.19363E-5
22804.687500; 8.38116E-5
22810.546875; 8.95021E-5
22816.406250; 9.14634E-5
22822.265625; 8.06740E-5
22828.125000; 8.56305E-5
22833.984375; 8.59984E-5
22839.843750; 8.12094E-5
22845.703125; 7.71936E-5
22851.562500; 7.48463E-5
22857.421875; 7.81436E-5
22863.281250; 7.79250E-5
22869.140625; 8.23734E-5
22875.000000; 6.98686E-5
22880.859375; 6.89576E-5
22886.718750; 7.56706E-5
22892.578125; 7.60692E-5
22898.437500; 7.86072E-5
22904.296875; 7.55519E-5
22910.156250; 7.74346E-5
22916.015625; 7.49372E-5
22921.875000; 6.30204E-5
22927.734375; 6.79198E-5
22933.593750; 7.38153E-5
22939.453125; 6.36071E-5
22945.312500; 6.56889E-5
22951.171875; 6.92495E-5
22957.031250; 7.49169E-5
22962.890625; 7.33289E-5
22968.750000; 7.14238E-5
22974.609375; 7.52944E-5
22980.468750; 7.55849E-5
22986.328125; 6.47888E-5
22992.187500; 7.17031E-5
22998.046875; 8.10977E-5
23003.906250; 7.63778E-5
23009.765625; 7.31424E-5
23015.625000; 7.31456E-5
23021.484375; 7.81183E-5
23027.343750; 7.68470E-5
23033.203125; 7.36432E-5
23039.062500; 7.39150E-5
23044.921875; 7.02995E-5
23050.781250; 6.52813E-5
23056.640625; 6.51359E-5
23062.500000; 6.66835E-5
23068.359375; 6.41208E-5
23074.218750; 6.68634E-5
23080.078125; 6.65297E-5
23085.937500; 6.63522E-5
23091.796875; 7.05681E-5
23097.656250; 6.74933E-5
23103.515625; 6.62778E-5
23109.375000; 6.44040E-5
23115.234375; 7.01004E-5
23121.093750; 6.67499E-5
23126.953125; 6.77520E-5
23132.812500; 7.26757E-5
23138.671875; 7.10551E-5
23144.531250; 6.61805E-5
23150.390625; 6.28723E-5
23156.250000; 6.42789E-5
23162.109375; 6.95675E-5
23167.968750; 6.68795E-5
23173.828125; 6.61786E-5
23179.687500; 5.67336E-5
23185.546875; 6.01763E-5
23191.406250; 5.87925E-5
23197.265625; 6.21259E-5
23203.125000; 6.04433E-5
23208.984375; 5.90897E-5
23214.843750; 6.59376E-5
23220.703125; 6.60527E-5
23226.562500; 5.77364E-5
23232.421875; 6.03517E-5
23238.281250; 6.20073E-5
23244.140625; 5.93420E-5
23250.000000; 5.41798E-5
23255.859375; 5.63925E-5
23261.718750; 5.60370E-5
23267.578125; 5.16221E-5
23273.437500; 5.92058E-5
23279.296875; 6.01265E-5
23285.156250; 5.46980E-5
23291.015625; 5.39776E-5
23296.875000; 5.15732E-5
23302.734375; 5.14869E-5
23308.593750; 5.82462E-5
23314.453125; 6.26188E-5
23320.312500; 6.21325E-5
23326.171875; 5.74757E-5
23332.031250; 5.34192E-5
23337.890625; 5.62920E-5
23343.750000; 5.79572E-5
23349.609375; 5.67135E-5
23355.468750; 5.67591E-5
23361.328125; 5.85899E-5
23367.187500; 5.14120E-5
23373.046875; 5.12885E-5
23378.906250; 4.82267E-5
23384.765625; 5.39036E-5
23390.625000; 5.61795E-5
23396.484375; 5.39185E-5
23402.343750; 5.70442E-5
23408.203125; 5.21284E-5
23414.062500; 5.10053E-5
23419.921875; 5.23775E-5
23425.781250; 5.21076E-5
23431.640625; 4.48527E-5
23437.500000; 4.51938E-5
23443.359375; 4.89966E-5
23449.218750; 4.67414E-5
23455.078125; 4.61010E-5
23460.937500; 4.98499E-5
23466.796875; 4.78546E-5
23472.656250; 4.74794E-5
23478.515625; 4.86074E-5
23484.375000; 4.62514E-5
23490.234375; 4.74565E-5
23496.093750; 4.47460E-5
23501.953125; 4.28631E-5
23507.812500; 4.22070E-5
23513.671875; 4.29571E-5
23519.531250; 4.50843E-5
23525.390625; 4.26704E-5
23531.250000; 4.72909E-5
23537.109375; 4.66499E-5
23542.968750; 4.05263E-5
23548.828125; 4.44048E-5
23554.687500; 4.96368E-5
23560.546875; 4.81072E-5
23566.406250; 4.22086E-5
23572.265625; 4.29322E-5
23578.125000; 4.50993E-5
23583.984375; 4.27194E-5
23589.843750; 3.99963E-5
23595.703125; 3.93755E-5
23601.562500; 4.17614E-5
23607.421875; 4.26533E-5
23613.281250; 3.88616E-5
23619.140625; 3.73599E-5
23625.000000; 3.95168E-5
23630.859375; 4.19358E-5
23636.718750; 4.60478E-5
23642.578125; 4.24886E-5
23648.437500; 4.17041E-5
23654.296875; 4.28847E-5
23660.156250; 4.13286E-5
23666.015625; 4.19674E-5
23671.875000; 4.57347E-5
23677.734375; 4.18029E-5
23683.593750; 4.18171E-5
23689.453125; 4.42970E-5
23695.312500; 4.11350E-5
23701.171875; 4.10423E-5
23707.031250; 3.91738E-5
23712.890625; 4.08686E-5
23718.750000; 3.89443E-5
23724.609375; 4.19017E-5
23730.468750; 3.94746E-5
23736.328125; 3.46245E-5
23742.187500; 3.93553E-5
23748.046875; 4.05916E-5
23753.906250; 3.69283E-5
23759.765625; 3.79063E-5
23765.625000; 3.80152E-5
23771.484375; 3.91091E-5
23777.343750; 3.81606E-5
23783.203125; 3.70742E-5
23789.062500; 3.76737E-5
23794.921875; 3.36529E-5
23800.781250; 3.46111E-5
23806.640625; 3.75643E-5
23812.500000; 3.54394E-5
23818.359375; 3.48226E-5
23824.218750; 3.74532E-5
23830.078125; 3.60357E-5
23835.937500; 3.52313E-5
23841.796875; 3.77871E-5
23847.656250; 3.49509E-5
23853.515625; 3.44616E-5
23859.375000; 3.29648E-5
23865.234375; 3.50967E-5
23871.093750; 3.61148E-5
23876.953125; 3.43740E-5
23882.812500; 3.53682E-5
23888.671875; 3.92110E-5
23894.531250; 3.97360E-5
23900.390625; 3.93622E-5
23906.250000; 3.77922E-5
23912.109375; 3.66297E-5
23917.968750; 3.24593E-5
23923.828125; 3.52417E-5
23929.687500; 3.64223E-5
23935.546875; 3.44643E-5
23941.406250; 3.30590E-5
23947.265625; 3.40316E-5
23953.125000; 3.75622E-5
23958.984375; 3.73303E-5
23964.843750; 3.62991E-5
23970.703125; 3.49214E-5
23976.562500; 3.61173E-5
23982.421875; 3.40230E-5
23988.281250; 3.43431E-5
23994.140625; 3.71119E-5
