* Measurement data measured by REW V5.31.3
* Source: PCM: default, no input selected, 2, volume: no control
* Format: 8192-point spectrum using Hann window and exponential averaging 0.97 
* Dated: Mar 9, 2025 12:54:20 PM
* REW Settings:
*  C-weighting compensation: Off
*  Target level: 75.0 dB
* Note: OSDEHA ANODE-OUTPUT; 8192-point spectrum using Hann window and exponential averaging 0.97  Input RMS 42.13 V 42.13 VC, 42.13 VA 42.13 V 22 - 22k UNW 895.0 uV >22k Distortion at 1,000.0 Hz, -7.51 dBFS: Gain: 29.34 dB THD: 0.024 % based on 21 harmonics  [0..22800 Hz] HHD: 0.00087 %  [10 .. 22] N: 0.030 %  [0..22800 Hz] N+D: 12.49 mV A THD+N: 0.038 %  [0..22800 Hz] SNR: 70.5 dB ENOB: 12.8 bits 2nd harmonic 0.024 % -148 deg 3rd harmonic 0.0036 % -83 deg 4th harmonic 0.0027 % 165 deg 5th harmonic 0.0016 % -3 deg 6th harmonic 0.00027 % -122 deg 7th harmonic 0.00036 % 86 deg 8th harmonic 0.00026 % -73 deg 9th harmonic 0.00031 % 107 deg 
* Measurement: OSDEHA A-OUT 42.1
* Smoothing: None
* Frequency Step: 5.859375 Hz
* Start Frequency: 5.859375 Hz
*
* Freq(Hz); V(V)
5.859375; 5.34784E-4
11.718750; 3.46297E-4
17.578125; 2.23666E-4
23.437500; 1.98995E-4
29.296875; 1.72936E-4
35.156250; 1.52670E-4
41.015625; 1.64162E-4
46.875000; 3.79862E-4
52.734375; 3.95658E-4
58.593750; 1.71628E-4
64.453125; 1.55472E-4
70.312500; 1.64003E-4
76.171875; 1.51436E-4
82.031250; 1.34889E-4
87.890625; 1.89924E-4
93.750000; 5.06982E-3
99.609375; 1.12485E-2
105.468750; 6.19887E-3
111.328125; 1.79103E-4
117.187500; 1.50437E-4
123.046875; 1.33711E-4
128.906250; 1.34118E-4
134.765625; 1.31134E-4
140.625000; 1.18631E-4
146.484375; 1.51463E-4
152.343750; 1.45775E-4
158.203125; 1.18720E-4
164.062500; 1.19673E-4
169.921875; 1.25516E-4
175.781250; 1.20764E-4
181.640625; 1.23409E-4
187.500000; 1.26415E-4
193.359375; 6.64622E-4
199.218750; 1.59809E-3
205.078125; 9.69454E-4
210.937500; 1.26360E-4
216.796875; 1.17729E-4
222.656250; 1.11290E-4
228.515625; 1.14698E-4
234.375000; 1.22505E-4
240.234375; 1.11166E-4
246.093750; 1.46685E-4
251.953125; 1.44127E-4
257.812500; 1.09430E-4
263.671875; 1.08959E-4
269.531250; 1.13578E-4
275.390625; 1.14067E-4
281.250000; 1.17456E-4
287.109375; 1.10678E-4
292.968750; 1.28193E-4
298.828125; 2.24586E-4
304.687500; 1.65245E-4
310.546875; 1.25706E-4
316.406250; 1.19203E-4
322.265625; 1.04980E-4
328.125000; 9.99211E-5
333.984375; 1.00862E-4
339.843750; 1.14296E-4
345.703125; 1.51083E-4
351.562500; 1.74049E-4
357.421875; 1.32086E-4
363.281250; 1.14522E-4
369.140625; 1.08584E-4
375.000000; 1.21144E-4
380.859375; 1.24898E-4
386.718750; 1.11321E-4
392.578125; 1.91297E-4
398.437500; 5.03133E-4
404.296875; 3.66353E-4
410.156250; 1.16162E-4
416.015625; 1.14975E-4
421.875000; 1.17468E-4
427.734375; 1.09022E-4
433.593750; 1.20395E-4
439.453125; 1.18519E-4
445.312500; 1.24141E-4
451.171875; 1.32464E-4
457.031250; 1.18605E-4
462.890625; 1.16102E-4
468.750000; 1.18384E-4
474.609375; 1.24179E-4
480.468750; 1.10895E-4
486.328125; 1.13656E-4
492.187500; 1.54129E-4
498.046875; 3.23762E-4
503.906250; 2.55315E-4
509.765625; 1.04396E-4
515.625000; 1.12067E-4
521.484375; 1.22855E-4
527.343750; 1.17386E-4
533.203125; 1.26211E-4
539.062500; 1.11354E-4
544.921875; 1.10021E-4
550.781250; 1.13530E-4
556.640625; 1.10586E-4
562.500000; 1.13895E-4
568.359375; 1.05732E-4
574.218750; 9.47783E-5
580.078125; 1.05286E-4
585.937500; 1.13813E-4
591.796875; 1.10925E-4
597.656250; 1.24933E-4
603.515625; 1.33538E-4
609.375000; 1.24499E-4
615.234375; 1.10655E-4
621.093750; 1.12497E-4
626.953125; 1.22384E-4
632.812500; 1.17663E-4
638.671875; 1.02754E-4
644.531250; 1.34910E-4
650.390625; 1.21125E-4
656.250000; 1.24611E-4
662.109375; 1.32098E-4
667.968750; 1.36837E-4
673.828125; 1.33716E-4
679.687500; 1.42042E-4
685.546875; 1.01798E-4
691.406250; 1.38641E-4
697.265625; 2.23650E-4
703.125000; 2.21449E-4
708.984375; 1.28996E-4
714.843750; 1.56095E-4
720.703125; 1.39516E-4
726.562500; 1.75883E-4
732.421875; 1.37390E-4
738.281250; 1.89023E-4
744.140625; 1.84042E-4
750.000000; 2.10033E-4
755.859375; 1.93948E-4
761.718750; 2.22380E-4
767.578125; 2.07970E-4
773.437500; 2.37889E-4
779.296875; 2.48704E-4
785.156250; 2.63853E-4
791.015625; 2.86083E-4
796.875000; 3.20205E-4
802.734375; 3.50275E-4
808.593750; 3.45326E-4
814.453125; 3.84170E-4
820.312500; 4.15801E-4
826.171875; 4.49798E-4
832.031250; 5.16888E-4
837.890625; 5.60726E-4
843.750000; 6.14626E-4
849.609375; 7.10394E-4
855.468750; 7.77013E-4
861.328125; 8.92095E-4
867.187500; 9.98907E-4
873.046875; 1.15528E-3
878.906250; 1.30911E-3
884.765625; 1.54495E-3
890.625000; 1.78588E-3
896.484375; 2.13716E-3
902.343750; 2.50607E-3
908.203125; 3.04120E-3
914.062500; 3.68748E-3
919.921875; 4.57970E-3
925.781250; 5.76062E-3
931.640625; 7.36312E-3
937.500000; 9.66064E-3
943.359375; 1.29902E-2
949.218750; 1.80754E-2
955.078125; 2.62267E-2
960.937500; 4.00853E-2
966.796875; 6.58871E-2
972.656250; 1.19753E-1
978.515625; 2.54512E-1
984.375000; 7.12614E-1
990.234375; 3.91937E0
996.093750; 3.13550E1
1001.953125; 3.91937E1
1007.812500; 1.11982E1
1013.671875; 1.11982E0
1019.531250; 3.44570E-1
1025.390625; 1.50728E-1
1031.250000; 7.93581E-2
1037.109375; 4.68714E-2
1042.968750; 3.00095E-2
1048.828125; 2.03613E-2
1054.687500; 1.44432E-2
1060.546875; 1.06411E-2
1066.406250; 8.02140E-3
1072.265625; 6.25170E-3
1078.125000; 4.91191E-3
1083.984375; 3.96078E-3
1089.843750; 3.25496E-3
1095.703125; 2.67604E-3
1101.562500; 2.22106E-3
1107.421875; 1.90563E-3
1113.281250; 1.63403E-3
1119.140625; 1.36373E-3
1125.000000; 1.21212E-3
1130.859375; 1.05893E-3
1136.718750; 8.97383E-4
1142.578125; 8.39155E-4
1148.437500; 7.09495E-4
1154.296875; 6.54924E-4
1160.156250; 5.70531E-4
1166.015625; 5.09665E-4
1171.875000; 4.98015E-4
1177.734375; 4.06384E-4
1183.593750; 3.96388E-4
1189.453125; 3.55639E-4
1195.312500; 3.30990E-4
1201.171875; 3.31689E-4
1207.031250; 2.73754E-4
1212.890625; 2.82526E-4
1218.750000; 2.38379E-4
1224.609375; 2.39174E-4
1230.468750; 2.20739E-4
1236.328125; 1.99602E-4
1242.187500; 1.97445E-4
1248.046875; 1.90934E-4
1253.906250; 1.69552E-4
1259.765625; 1.76745E-4
1265.625000; 1.73520E-4
1271.484375; 1.39220E-4
1277.343750; 1.55414E-4
1283.203125; 1.38234E-4
1289.062500; 1.49327E-4
1294.921875; 1.26022E-4
1300.781250; 1.34077E-4
1306.640625; 1.27396E-4
1312.500000; 1.33349E-4
1318.359375; 1.17506E-4
1324.218750; 1.21228E-4
1330.078125; 1.11568E-4
1335.937500; 1.16495E-4
1341.796875; 1.34342E-4
1347.656250; 1.28891E-4
1353.515625; 1.13346E-4
1359.375000; 1.29865E-4
1365.234375; 1.30335E-4
1371.093750; 1.09911E-4
1376.953125; 1.15552E-4
1382.812500; 1.23648E-4
1388.671875; 1.07467E-4
1394.531250; 1.18613E-4
1400.390625; 1.18896E-4
1406.250000; 1.10332E-4
1412.109375; 1.18772E-4
1417.968750; 1.18741E-4
1423.828125; 1.05769E-4
1429.687500; 1.14459E-4
1435.546875; 1.17980E-4
1441.406250; 1.11517E-4
1447.265625; 1.16763E-4
1453.125000; 1.06699E-4
1458.984375; 9.81263E-5
1464.843750; 1.04086E-4
1470.703125; 1.04198E-4
1476.562500; 1.05684E-4
1482.421875; 1.03986E-4
1488.281250; 1.12351E-4
1494.140625; 1.09560E-4
1500.000000; 1.09796E-4
1505.859375; 1.04562E-4
1511.718750; 1.11519E-4
1517.578125; 1.16145E-4
1523.437500; 1.25714E-4
1529.296875; 1.11571E-4
1535.156250; 1.06364E-4
1541.015625; 9.97255E-5
1546.875000; 1.01538E-4
1552.734375; 1.12754E-4
1558.593750; 9.77872E-5
1564.453125; 9.64734E-5
1570.312500; 1.11254E-4
1576.171875; 1.23464E-4
1582.031250; 1.28292E-4
1587.890625; 1.13207E-4
1593.750000; 1.09190E-4
1599.609375; 1.17515E-4
1605.468750; 1.07714E-4
1611.328125; 1.06274E-4
1617.187500; 1.16912E-4
1623.046875; 1.06386E-4
1628.906250; 1.05439E-4
1634.765625; 1.09740E-4
1640.625000; 1.05048E-4
1646.484375; 1.02530E-4
1652.343750; 1.03672E-4
1658.203125; 1.12414E-4
1664.062500; 1.12399E-4
1669.921875; 9.52425E-5
1675.781250; 1.08910E-4
1681.640625; 1.19079E-4
1687.500000; 1.09490E-4
1693.359375; 9.72361E-5
1699.218750; 1.09129E-4
1705.078125; 1.17050E-4
1710.937500; 1.00959E-4
1716.796875; 9.58563E-5
1722.656250; 1.09436E-4
1728.515625; 1.26100E-4
1734.375000; 1.10490E-4
1740.234375; 1.06328E-4
1746.093750; 1.23519E-4
1751.953125; 1.19032E-4
1757.812500; 1.01978E-4
1763.671875; 1.04010E-4
1769.531250; 1.01686E-4
1775.390625; 1.10257E-4
1781.250000; 1.10383E-4
1787.109375; 1.00160E-4
1792.968750; 9.97735E-5
1798.828125; 9.26732E-5
1804.687500; 1.06259E-4
1810.546875; 1.01471E-4
1816.406250; 9.96010E-5
1822.265625; 1.19512E-4
1828.125000; 1.10305E-4
1833.984375; 9.61681E-5
1839.843750; 1.01649E-4
1845.703125; 9.80642E-5
1851.562500; 1.04710E-4
1857.421875; 1.07496E-4
1863.281250; 1.12301E-4
1869.140625; 1.01776E-4
1875.000000; 9.50679E-5
1880.859375; 1.06708E-4
1886.718750; 1.06762E-4
1892.578125; 1.01466E-4
1898.437500; 1.09334E-4
1904.296875; 1.08016E-4
1910.156250; 1.02472E-4
1916.015625; 1.07334E-4
1921.875000; 9.89684E-5
1927.734375; 1.04588E-4
1933.593750; 1.13259E-4
1939.453125; 1.18707E-4
1945.312500; 1.15959E-4
1951.171875; 1.19183E-4
1957.031250; 1.15858E-4
1962.890625; 1.04051E-4
1968.750000; 1.07917E-4
1974.609375; 1.05247E-4
1980.468750; 1.26212E-4
1986.328125; 2.91149E-4
1992.187500; 2.66260E-3
1998.046875; 9.35906E-3
2003.906250; 7.48798E-3
2009.765625; 9.34321E-4
2015.625000; 2.10717E-4
2021.484375; 1.28783E-4
2027.343750; 1.07152E-4
2033.203125; 1.08656E-4
2039.062500; 1.01123E-4
2044.921875; 9.74945E-5
2050.781250; 9.19711E-5
2056.640625; 9.67333E-5
2062.500000; 1.08078E-4
2068.359375; 1.08241E-4
2074.218750; 1.09833E-4
2080.078125; 1.09722E-4
2085.937500; 1.03878E-4
2091.796875; 1.03574E-4
2097.656250; 9.99687E-5
2103.515625; 9.90903E-5
2109.375000; 1.05547E-4
2115.234375; 1.06259E-4
2121.093750; 1.12840E-4
2126.953125; 1.13276E-4
2132.812500; 1.04368E-4
2138.671875; 9.87360E-5
2144.531250; 1.00633E-4
2150.390625; 1.01999E-4
2156.250000; 1.04196E-4
2162.109375; 1.15240E-4
2167.968750; 1.12243E-4
2173.828125; 1.05782E-4
2179.687500; 1.04660E-4
2185.546875; 9.89452E-5
2191.406250; 1.03566E-4
2197.265625; 1.18413E-4
2203.125000; 1.17470E-4
2208.984375; 1.07011E-4
2214.843750; 1.07798E-4
2220.703125; 1.14864E-4
2226.562500; 1.08089E-4
2232.421875; 1.02764E-4
2238.281250; 1.01364E-4
2244.140625; 1.10367E-4
2250.000000; 1.03509E-4
2255.859375; 1.01193E-4
2261.718750; 1.00902E-4
2267.578125; 1.08553E-4
2273.437500; 1.10573E-4
2279.296875; 1.01356E-4
2285.156250; 1.08617E-4
2291.015625; 1.15499E-4
2296.875000; 1.12656E-4
2302.734375; 1.03871E-4
2308.593750; 1.01178E-4
2314.453125; 1.04005E-4
2320.312500; 1.07171E-4
2326.171875; 1.09946E-4
2332.031250; 1.06381E-4
2337.890625; 9.98110E-5
2343.750000; 1.11693E-4
2349.609375; 1.13743E-4
2355.468750; 1.04929E-4
2361.328125; 1.10596E-4
2367.187500; 1.06604E-4
2373.046875; 9.44211E-5
2378.906250; 9.77468E-5
2384.765625; 9.53161E-5
2390.625000; 9.53207E-5
2396.484375; 1.07896E-4
2402.343750; 1.09313E-4
2408.203125; 1.01296E-4
2414.062500; 1.15173E-4
2419.921875; 1.04040E-4
2425.781250; 1.08753E-4
2431.640625; 1.05009E-4
2437.500000; 9.55311E-5
2443.359375; 1.01404E-4
2449.218750; 1.01371E-4
2455.078125; 1.07554E-4
2460.937500; 1.08657E-4
2466.796875; 1.12376E-4
2472.656250; 1.20548E-4
2478.515625; 1.19275E-4
2484.375000; 1.03880E-4
2490.234375; 1.08862E-4
2496.093750; 1.06345E-4
2501.953125; 9.81872E-5
2507.812500; 9.65157E-5
2513.671875; 1.10507E-4
2519.531250; 9.71576E-5
2525.390625; 8.62678E-5
2531.250000; 1.00233E-4
2537.109375; 1.00250E-4
2542.968750; 1.08264E-4
2548.828125; 8.87558E-5
2554.687500; 1.09778E-4
2560.546875; 9.74905E-5
2566.406250; 9.27585E-5
2572.265625; 9.96929E-5
2578.125000; 1.00111E-4
2583.984375; 9.63080E-5
2589.843750; 9.26164E-5
2595.703125; 9.97098E-5
2601.562500; 1.00097E-4
2607.421875; 9.83175E-5
2613.281250; 1.08471E-4
2619.140625; 1.07804E-4
2625.000000; 9.86960E-5
2630.859375; 9.79944E-5
2636.718750; 1.08589E-4
2642.578125; 1.10270E-4
2648.437500; 1.08827E-4
2654.296875; 9.62174E-5
2660.156250; 1.03889E-4
2666.015625; 1.13123E-4
2671.875000; 1.07626E-4
2677.734375; 1.08589E-4
2683.593750; 1.07302E-4
2689.453125; 9.99310E-5
2695.312500; 9.01287E-5
2701.171875; 9.52391E-5
2707.031250; 9.63705E-5
2712.890625; 1.09325E-4
2718.750000; 1.13474E-4
2724.609375; 1.11895E-4
2730.468750; 1.11622E-4
2736.328125; 1.01990E-4
2742.187500; 1.14027E-4
2748.046875; 1.09406E-4
2753.906250; 1.00997E-4
2759.765625; 1.04797E-4
2765.625000; 1.09006E-4
2771.484375; 1.09914E-4
2777.343750; 9.22508E-5
2783.203125; 9.57345E-5
2789.062500; 1.04590E-4
2794.921875; 1.13329E-4
2800.781250; 1.07246E-4
2806.640625; 1.02859E-4
2812.500000; 1.00582E-4
2818.359375; 9.50131E-5
2824.218750; 1.02953E-4
2830.078125; 1.04852E-4
2835.937500; 1.01632E-4
2841.796875; 1.07674E-4
2847.656250; 1.22031E-4
2853.515625; 1.19905E-4
2859.375000; 1.06494E-4
2865.234375; 1.07988E-4
2871.093750; 9.49987E-5
2876.953125; 9.53981E-5
2882.812500; 1.09045E-4
2888.671875; 1.05371E-4
2894.531250; 1.02315E-4
2900.390625; 9.60704E-5
2906.250000; 1.02082E-4
2912.109375; 1.02301E-4
2917.968750; 9.62346E-5
2923.828125; 9.93889E-5
2929.687500; 1.10944E-4
2935.546875; 1.00945E-4
2941.406250; 9.11149E-5
2947.265625; 9.99641E-5
2953.125000; 1.11197E-4
2958.984375; 1.02151E-4
2964.843750; 9.83330E-5
2970.703125; 1.03431E-4
2976.562500; 1.09972E-4
2982.421875; 1.06354E-4
2988.281250; 9.77152E-5
2994.140625; 7.50425E-4
3000.000000; 1.51457E-3
3005.859375; 7.71078E-4
3011.718750; 1.23587E-4
3017.578125; 1.12835E-4
3023.437500; 1.09140E-4
3029.296875; 1.15523E-4
3035.156250; 1.11089E-4
3041.015625; 1.15963E-4
3046.875000; 1.09764E-4
3052.734375; 9.21824E-5
3058.593750; 9.74371E-5
3064.453125; 1.03789E-4
3070.312500; 1.05675E-4
3076.171875; 1.01886E-4
3082.031250; 9.81817E-5
3087.890625; 1.03615E-4
3093.750000; 1.27512E-4
3099.609375; 1.10627E-4
3105.468750; 1.05353E-4
3111.328125; 1.17178E-4
3117.187500; 1.03441E-4
3123.046875; 1.00057E-4
3128.906250; 1.05458E-4
3134.765625; 1.05334E-4
3140.625000; 8.87119E-5
3146.484375; 1.02994E-4
3152.343750; 1.15840E-4
3158.203125; 1.05986E-4
3164.062500; 9.65816E-5
3169.921875; 9.97182E-5
3175.781250; 1.10699E-4
3181.640625; 1.11984E-4
3187.500000; 1.13005E-4
3193.359375; 1.09894E-4
3199.218750; 1.02782E-4
3205.078125; 1.05608E-4
3210.937500; 1.04270E-4
3216.796875; 1.10597E-4
3222.656250; 1.02074E-4
3228.515625; 8.66833E-5
3234.375000; 9.40452E-5
3240.234375; 1.16716E-4
3246.093750; 1.20560E-4
3251.953125; 1.07914E-4
3257.812500; 1.06785E-4
3263.671875; 1.02772E-4
3269.531250; 1.11061E-4
3275.390625; 1.08555E-4
3281.250000; 1.09932E-4
3287.109375; 1.09195E-4
3292.968750; 1.03362E-4
3298.828125; 1.07626E-4
3304.687500; 1.03637E-4
3310.546875; 9.91695E-5
3316.406250; 1.02979E-4
3322.265625; 1.14450E-4
3328.125000; 1.17990E-4
3333.984375; 9.97311E-5
3339.843750; 9.59167E-5
3345.703125; 1.04808E-4
3351.562500; 1.04660E-4
3357.421875; 9.87138E-5
3363.281250; 1.00160E-4
3369.140625; 1.10200E-4
3375.000000; 1.10181E-4
3380.859375; 1.02191E-4
3386.718750; 9.80079E-5
3392.578125; 9.54167E-5
3398.437500; 1.04005E-4
3404.296875; 1.06894E-4
3410.156250; 1.02392E-4
3416.015625; 8.89873E-5
3421.875000; 1.02002E-4
3427.734375; 1.15527E-4
3433.593750; 1.15985E-4
3439.453125; 1.07398E-4
3445.312500; 9.77924E-5
3451.171875; 1.00179E-4
3457.031250; 1.06115E-4
3462.890625; 1.15569E-4
3468.750000; 1.08318E-4
3474.609375; 1.05024E-4
3480.468750; 1.00863E-4
3486.328125; 1.00580E-4
3492.187500; 1.14214E-4
3498.046875; 1.09583E-4
3503.906250; 1.09798E-4
3509.765625; 1.00079E-4
3515.625000; 1.04425E-4
3521.484375; 1.11425E-4
3527.343750; 1.00513E-4
3533.203125; 9.88743E-5
3539.062500; 1.01770E-4
3544.921875; 1.00923E-4
3550.781250; 1.10555E-4
3556.640625; 1.02586E-4
3562.500000; 1.06316E-4
3568.359375; 1.02906E-4
3574.218750; 9.39916E-5
3580.078125; 1.07299E-4
3585.937500; 1.09574E-4
3591.796875; 1.05019E-4
3597.656250; 9.42889E-5
3603.515625; 9.86599E-5
3609.375000; 1.15544E-4
3615.234375; 1.11876E-4
3621.093750; 9.71411E-5
3626.953125; 9.47942E-5
3632.812500; 1.04761E-4
3638.671875; 1.11327E-4
3644.531250; 1.15847E-4
3650.390625; 1.03894E-4
3656.250000; 1.05014E-4
3662.109375; 1.06871E-4
3667.968750; 1.03818E-4
3673.828125; 1.12298E-4
3679.687500; 1.18782E-4
3685.546875; 9.99968E-5
3691.406250; 1.00323E-4
3697.265625; 1.00376E-4
3703.125000; 9.09516E-5
3708.984375; 1.01311E-4
3714.843750; 1.06592E-4
3720.703125; 1.11325E-4
3726.562500; 1.18292E-4
3732.421875; 1.00019E-4
3738.281250; 1.00017E-4
3744.140625; 1.11177E-4
3750.000000; 1.04590E-4
3755.859375; 1.11522E-4
3761.718750; 1.09795E-4
3767.578125; 1.05199E-4
3773.437500; 9.53660E-5
3779.296875; 1.03841E-4
3785.156250; 1.06121E-4
3791.015625; 1.11585E-4
3796.875000; 9.43522E-5
3802.734375; 1.00102E-4
3808.593750; 1.12881E-4
3814.453125; 1.16299E-4
3820.312500; 1.10200E-4
3826.171875; 9.61836E-5
3832.031250; 1.06963E-4
3837.890625; 1.04512E-4
3843.750000; 1.02421E-4
3849.609375; 1.02962E-4
3855.468750; 1.13426E-4
3861.328125; 1.12195E-4
3867.187500; 1.04135E-4
3873.046875; 1.01505E-4
3878.906250; 1.03630E-4
3884.765625; 1.04755E-4
3890.625000; 9.52596E-5
3896.484375; 1.11305E-4
3902.343750; 1.10859E-4
3908.203125; 9.75973E-5
3914.062500; 1.06655E-4
3919.921875; 1.11422E-4
3925.781250; 1.08122E-4
3931.640625; 9.12363E-5
3937.500000; 9.58749E-5
3943.359375; 1.07593E-4
3949.218750; 1.04429E-4
3955.078125; 9.67494E-5
3960.937500; 1.01308E-4
3966.796875; 9.92185E-5
3972.656250; 9.70779E-5
3978.515625; 1.03931E-4
3984.375000; 1.10784E-4
3990.234375; 1.51362E-4
3996.093750; 8.43715E-4
4001.953125; 1.03782E-3
4007.812500; 3.04644E-4
4013.671875; 1.11003E-4
4019.531250; 1.07225E-4
4025.390625; 1.01668E-4
4031.250000; 1.01695E-4
4037.109375; 1.10221E-4
4042.968750; 1.06719E-4
4048.828125; 1.18342E-4
4054.687500; 1.03351E-4
4060.546875; 1.06053E-4
4066.406250; 9.45273E-5
4072.265625; 1.11676E-4
4078.125000; 1.23869E-4
4083.984375; 1.15816E-4
4089.843750; 9.59385E-5
4095.703125; 1.00035E-4
4101.562500; 1.13001E-4
4107.421875; 1.04384E-4
4113.281250; 1.03139E-4
4119.140625; 1.07872E-4
4125.000000; 1.12574E-4
4130.859375; 1.03638E-4
4136.718750; 1.10324E-4
4142.578125; 9.98876E-5
4148.437500; 1.05751E-4
4154.296875; 1.02991E-4
4160.156250; 9.67910E-5
4166.015625; 9.67642E-5
4171.875000; 1.07706E-4
4177.734375; 1.14486E-4
4183.593750; 9.84402E-5
4189.453125; 9.78912E-5
4195.312500; 1.02849E-4
4201.171875; 1.07238E-4
4207.031250; 1.13798E-4
4212.890625; 1.05840E-4
4218.750000; 1.10061E-4
4224.609375; 9.46746E-5
4230.468750; 9.03164E-5
4236.328125; 1.10817E-4
4242.187500; 1.04675E-4
4248.046875; 1.16076E-4
4253.906250; 1.06058E-4
4259.765625; 1.00142E-4
4265.625000; 1.05297E-4
4271.484375; 1.04644E-4
4277.343750; 1.08190E-4
4283.203125; 1.03168E-4
4289.062500; 9.89296E-5
4294.921875; 1.04068E-4
4300.781250; 1.03914E-4
4306.640625; 9.14515E-5
4312.500000; 9.12317E-5
4318.359375; 1.02162E-4
4324.218750; 1.11421E-4
4330.078125; 9.71450E-5
4335.937500; 9.69403E-5
4341.796875; 9.69463E-5
4347.656250; 1.12819E-4
4353.515625; 1.13996E-4
4359.375000; 1.08991E-4
4365.234375; 1.00556E-4
4371.093750; 9.47295E-5
4376.953125; 1.04011E-4
4382.812500; 1.10578E-4
4388.671875; 1.04062E-4
4394.531250; 1.03101E-4
4400.390625; 1.03459E-4
4406.250000; 1.04271E-4
4412.109375; 1.02045E-4
4417.968750; 1.12392E-4
4423.828125; 1.04938E-4
4429.687500; 9.75858E-5
4435.546875; 1.05811E-4
4441.406250; 1.05601E-4
4447.265625; 9.57177E-5
4453.125000; 9.58160E-5
4458.984375; 9.67800E-5
4464.843750; 1.04466E-4
4470.703125; 1.11854E-4
4476.562500; 1.02553E-4
4482.421875; 1.11371E-4
4488.281250; 1.19398E-4
4494.140625; 1.20801E-4
4500.000000; 1.14474E-4
4505.859375; 1.08954E-4
4511.718750; 9.89896E-5
4517.578125; 9.90931E-5
4523.437500; 1.09694E-4
4529.296875; 1.14394E-4
4535.156250; 1.10317E-4
4541.015625; 1.04262E-4
4546.875000; 9.90339E-5
4552.734375; 1.00426E-4
4558.593750; 9.41752E-5
4564.453125; 1.05841E-4
4570.312500; 1.03653E-4
4576.171875; 1.13347E-4
4582.031250; 1.01046E-4
4587.890625; 1.16520E-4
4593.750000; 1.01592E-4
4599.609375; 9.48308E-5
4605.468750; 9.07634E-5
4611.328125; 1.01954E-4
4617.187500; 1.11305E-4
4623.046875; 1.08575E-4
4628.906250; 1.01622E-4
4634.765625; 1.06770E-4
4640.625000; 1.03940E-4
4646.484375; 9.06116E-5
4652.343750; 9.44457E-5
4658.203125; 9.98913E-5
4664.062500; 1.06788E-4
4669.921875; 1.07384E-4
4675.781250; 1.00101E-4
4681.640625; 9.69670E-5
4687.500000; 1.01629E-4
4693.359375; 1.12687E-4
4699.218750; 9.58877E-5
4705.078125; 1.04860E-4
4710.937500; 1.11500E-4
4716.796875; 1.07497E-4
4722.656250; 9.72870E-5
4728.515625; 9.24502E-5
4734.375000; 9.32212E-5
4740.234375; 9.38180E-5
4746.093750; 1.01009E-4
4751.953125; 9.67543E-5
4757.812500; 1.00463E-4
4763.671875; 1.10582E-4
4769.531250; 1.10119E-4
4775.390625; 1.12091E-4
4781.250000; 1.12340E-4
4787.109375; 1.09235E-4
4792.968750; 1.08418E-4
4798.828125; 1.11465E-4
4804.687500; 1.05563E-4
4810.546875; 1.10662E-4
4816.406250; 1.04391E-4
4822.265625; 1.12641E-4
4828.125000; 1.17134E-4
4833.984375; 1.15049E-4
4839.843750; 1.06418E-4
4845.703125; 1.05045E-4
4851.562500; 9.77311E-5
4857.421875; 9.40730E-5
4863.281250; 1.03806E-4
4869.140625; 1.06531E-4
4875.000000; 1.10602E-4
4880.859375; 1.05488E-4
4886.718750; 1.07347E-4
4892.578125; 1.01066E-4
4898.437500; 9.54347E-5
4904.296875; 9.23716E-5
4910.156250; 9.88088E-5
4916.015625; 1.08174E-4
4921.875000; 9.47681E-5
4927.734375; 9.84069E-5
4933.593750; 9.30189E-5
4939.453125; 1.07095E-4
4945.312500; 1.08952E-4
4951.171875; 1.12961E-4
4957.031250; 1.14200E-4
4962.890625; 1.06003E-4
4968.750000; 1.10490E-4
4974.609375; 1.01826E-4
4980.468750; 1.04001E-4
4986.328125; 1.02349E-4
4992.187500; 1.97307E-4
4998.046875; 5.85136E-4
5003.906250; 4.63685E-4
5009.765625; 1.19260E-4
5015.625000; 1.00918E-4
5021.484375; 1.03435E-4
5027.343750; 9.95942E-5
5033.203125; 1.09326E-4
5039.062500; 1.05381E-4
5044.921875; 1.02123E-4
5050.781250; 1.05643E-4
5056.640625; 1.02957E-4
5062.500000; 1.03298E-4
5068.359375; 1.07196E-4
5074.218750; 1.05095E-4
5080.078125; 1.00191E-4
5085.937500; 9.41767E-5
5091.796875; 9.86083E-5
5097.656250; 1.00712E-4
5103.515625; 1.03836E-4
5109.375000; 9.14627E-5
5115.234375; 1.02993E-4
5121.093750; 1.17180E-4
5126.953125; 1.14510E-4
5132.812500; 9.79554E-5
5138.671875; 9.32099E-5
5144.531250; 9.63260E-5
5150.390625; 1.01233E-4
5156.250000; 1.00250E-4
5162.109375; 1.05372E-4
5167.968750; 1.04912E-4
5173.828125; 1.05844E-4
5179.687500; 1.01983E-4
5185.546875; 1.08676E-4
5191.406250; 1.00801E-4
5197.265625; 9.98662E-5
5203.125000; 1.04357E-4
5208.984375; 1.02410E-4
5214.843750; 9.93540E-5
5220.703125; 9.43682E-5
5226.562500; 1.05659E-4
5232.421875; 1.16467E-4
5238.281250; 1.07831E-4
5244.140625; 1.01090E-4
5250.000000; 1.08648E-4
5255.859375; 1.09146E-4
5261.718750; 1.00548E-4
5267.578125; 9.95108E-5
5273.437500; 1.08411E-4
5279.296875; 1.14099E-4
5285.156250; 1.03113E-4
5291.015625; 9.95051E-5
5296.875000; 1.04277E-4
5302.734375; 1.17466E-4
5308.593750; 1.14627E-4
5314.453125; 1.04752E-4
5320.312500; 9.49495E-5
5326.171875; 1.03492E-4
5332.031250; 1.08826E-4
5337.890625; 1.01593E-4
5343.750000; 1.04483E-4
5349.609375; 1.06944E-4
5355.468750; 1.04234E-4
5361.328125; 1.06909E-4
5367.187500; 1.09620E-4
5373.046875; 9.87953E-5
5378.906250; 1.04370E-4
5384.765625; 1.08352E-4
5390.625000; 1.14871E-4
5396.484375; 1.22262E-4
5402.343750; 1.15089E-4
5408.203125; 9.46325E-5
5414.062500; 1.04126E-4
5419.921875; 1.04401E-4
5425.781250; 1.02707E-4
5431.640625; 9.74493E-5
5437.500000; 1.07671E-4
5443.359375; 1.06549E-4
5449.218750; 9.63248E-5
5455.078125; 8.94286E-5
5460.937500; 9.35935E-5
5466.796875; 1.00591E-4
5472.656250; 1.11041E-4
5478.515625; 1.08140E-4
5484.375000; 1.06312E-4
5490.234375; 1.07524E-4
5496.093750; 1.06467E-4
5501.953125; 1.05276E-4
5507.812500; 1.08409E-4
5513.671875; 1.07737E-4
5519.531250; 1.13701E-4
5525.390625; 1.26101E-4
5531.250000; 1.12093E-4
5537.109375; 1.01130E-4
5542.968750; 1.10372E-4
5548.828125; 9.97551E-5
5554.687500; 9.89763E-5
5560.546875; 1.01843E-4
5566.406250; 9.32640E-5
5572.265625; 8.79781E-5
5578.125000; 1.00663E-4
5583.984375; 9.66016E-5
5589.843750; 8.81802E-5
5595.703125; 9.19423E-5
5601.562500; 9.72708E-5
5607.421875; 1.11833E-4
5613.281250; 1.05123E-4
5619.140625; 1.03034E-4
5625.000000; 1.01152E-4
5630.859375; 1.03479E-4
5636.718750; 1.06611E-4
5642.578125; 1.05653E-4
5648.437500; 9.59151E-5
5654.296875; 1.05411E-4
5660.156250; 1.01352E-4
5666.015625; 1.07602E-4
5671.875000; 1.18508E-4
5677.734375; 1.08494E-4
5683.593750; 1.06058E-4
5689.453125; 9.73053E-5
5695.312500; 9.75581E-5
5701.171875; 1.07589E-4
5707.031250; 1.17236E-4
5712.890625; 1.17223E-4
5718.750000; 1.27260E-4
5724.609375; 1.15243E-4
5730.468750; 1.05296E-4
5736.328125; 1.04806E-4
5742.187500; 1.07442E-4
5748.046875; 1.04516E-4
5753.906250; 9.89608E-5
5759.765625; 1.09423E-4
5765.625000; 1.18833E-4
5771.484375; 1.06345E-4
5777.343750; 1.07468E-4
5783.203125; 1.07133E-4
5789.062500; 1.12335E-4
5794.921875; 1.15882E-4
5800.781250; 1.15886E-4
5806.640625; 1.14606E-4
5812.500000; 1.04450E-4
5818.359375; 1.01800E-4
5824.218750; 1.00779E-4
5830.078125; 1.05744E-4
5835.937500; 1.07232E-4
5841.796875; 1.03597E-4
5847.656250; 1.00232E-4
5853.515625; 1.10181E-4
5859.375000; 9.81523E-5
5865.234375; 9.09003E-5
5871.093750; 9.89463E-5
5876.953125; 1.15847E-4
5882.812500; 1.11456E-4
5888.671875; 1.02404E-4
5894.531250; 1.16230E-4
5900.390625; 1.12540E-4
5906.250000; 1.08279E-4
5912.109375; 1.01269E-4
5917.968750; 1.02453E-4
5923.828125; 1.16286E-4
5929.687500; 1.13509E-4
5935.546875; 1.12174E-4
5941.406250; 1.01002E-4
5947.265625; 1.10476E-4
5953.125000; 1.14311E-4
5958.984375; 1.10197E-4
5964.843750; 1.05291E-4
5970.703125; 1.04001E-4
5976.562500; 9.97098E-5
5982.421875; 1.03663E-4
5988.281250; 1.05745E-4
5994.140625; 1.13803E-4
6000.000000; 1.24015E-4
6005.859375; 1.04977E-4
6011.718750; 1.07775E-4
6017.578125; 1.08568E-4
6023.437500; 1.03285E-4
6029.296875; 1.09197E-4
6035.156250; 1.09959E-4
6041.015625; 1.12081E-4
6046.875000; 1.05315E-4
6052.734375; 9.79755E-5
6058.593750; 1.11430E-4
6064.453125; 1.05455E-4
6070.312500; 1.01981E-4
6076.171875; 1.08775E-4
6082.031250; 1.01982E-4
6087.890625; 9.71681E-5
6093.750000; 9.32938E-5
6099.609375; 1.03393E-4
6105.468750; 9.88936E-5
6111.328125; 9.78484E-5
6117.187500; 9.95680E-5
6123.046875; 1.09725E-4
6128.906250; 1.17698E-4
6134.765625; 1.08960E-4
6140.625000; 1.01112E-4
6146.484375; 1.04733E-4
6152.343750; 1.11720E-4
6158.203125; 1.15719E-4
6164.062500; 1.07714E-4
6169.921875; 1.04749E-4
6175.781250; 1.01647E-4
6181.640625; 9.91935E-5
6187.500000; 1.03348E-4
6193.359375; 1.05472E-4
6199.218750; 1.00897E-4
6205.078125; 1.01296E-4
6210.937500; 1.05751E-4
6216.796875; 1.10596E-4
6222.656250; 1.17599E-4
6228.515625; 1.04573E-4
6234.375000; 9.72829E-5
6240.234375; 9.50164E-5
6246.093750; 9.28565E-5
6251.953125; 9.37697E-5
6257.812500; 1.02598E-4
6263.671875; 1.12672E-4
6269.531250; 1.05611E-4
6275.390625; 1.01146E-4
6281.250000; 1.08526E-4
6287.109375; 1.04845E-4
6292.968750; 1.05744E-4
6298.828125; 1.02614E-4
6304.687500; 9.69769E-5
6310.546875; 1.00327E-4
6316.406250; 1.12172E-4
6322.265625; 1.09115E-4
6328.125000; 1.02006E-4
6333.984375; 9.83761E-5
6339.843750; 1.06348E-4
6345.703125; 1.16281E-4
6351.562500; 1.06172E-4
6357.421875; 9.65231E-5
6363.281250; 1.07680E-4
6369.140625; 1.12136E-4
6375.000000; 1.09404E-4
6380.859375; 1.00767E-4
6386.718750; 9.42300E-5
6392.578125; 1.02247E-4
6398.437500; 9.53888E-5
6404.296875; 9.54710E-5
6410.156250; 1.04402E-4
6416.015625; 9.62833E-5
6421.875000; 9.40421E-5
6427.734375; 9.98889E-5
6433.593750; 1.15040E-4
6439.453125; 1.07722E-4
6445.312500; 1.03056E-4
6451.171875; 1.07170E-4
6457.031250; 1.06684E-4
6462.890625; 1.03790E-4
6468.750000; 1.06675E-4
6474.609375; 1.08398E-4
6480.468750; 1.06494E-4
6486.328125; 1.02790E-4
6492.187500; 9.34968E-5
6498.046875; 9.76095E-5
6503.906250; 1.05943E-4
6509.765625; 9.80687E-5
6515.625000; 1.09710E-4
6521.484375; 1.07537E-4
6527.343750; 9.93414E-5
6533.203125; 1.03366E-4
6539.062500; 1.11873E-4
6544.921875; 1.10631E-4
6550.781250; 1.10884E-4
6556.640625; 9.84499E-5
6562.500000; 9.73353E-5
6568.359375; 9.92956E-5
6574.218750; 1.12315E-4
6580.078125; 1.09951E-4
6585.937500; 1.16775E-4
6591.796875; 1.09769E-4
6597.656250; 1.00185E-4
6603.515625; 9.37720E-5
6609.375000; 9.50028E-5
6615.234375; 9.99407E-5
6621.093750; 1.01622E-4
6626.953125; 9.95497E-5
6632.812500; 9.69905E-5
6638.671875; 1.12185E-4
6644.531250; 1.10186E-4
6650.390625; 1.02146E-4
6656.250000; 9.90451E-5
6662.109375; 9.61229E-5
6667.968750; 1.00657E-4
6673.828125; 1.04403E-4
6679.687500; 1.12654E-4
6685.546875; 1.16736E-4
6691.406250; 1.07910E-4
6697.265625; 1.05860E-4
6703.125000; 1.05293E-4
6708.984375; 1.03489E-4
6714.843750; 1.18667E-4
6720.703125; 1.04725E-4
6726.562500; 1.03126E-4
6732.421875; 1.00102E-4
6738.281250; 8.89947E-5
6744.140625; 9.18312E-5
6750.000000; 1.05768E-4
6755.859375; 9.69952E-5
6761.718750; 9.16056E-5
6767.578125; 9.74571E-5
6773.437500; 9.25336E-5
6779.296875; 9.33227E-5
6785.156250; 1.06712E-4
6791.015625; 1.06731E-4
6796.875000; 1.04007E-4
6802.734375; 1.00502E-4
6808.593750; 1.05625E-4
6814.453125; 1.05243E-4
6820.312500; 1.04363E-4
6826.171875; 1.09268E-4
6832.031250; 1.07076E-4
6837.890625; 9.44863E-5
6843.750000; 1.07035E-4
6849.609375; 1.01435E-4
6855.468750; 1.07944E-4
6861.328125; 1.07187E-4
6867.187500; 1.04131E-4
6873.046875; 1.14026E-4
6878.906250; 1.07884E-4
6884.765625; 1.04660E-4
6890.625000; 9.59356E-5
6896.484375; 1.03573E-4
6902.343750; 1.01495E-4
6908.203125; 9.71015E-5
6914.062500; 1.00769E-4
6919.921875; 1.08633E-4
6925.781250; 1.05891E-4
6931.640625; 1.02217E-4
6937.500000; 1.06874E-4
6943.359375; 1.14090E-4
6949.218750; 1.08267E-4
6955.078125; 1.05228E-4
6960.937500; 1.04288E-4
6966.796875; 9.51814E-5
6972.656250; 8.66483E-5
6978.515625; 9.21645E-5
6984.375000; 9.99826E-5
6990.234375; 1.07457E-4
6996.093750; 1.77346E-4
7001.953125; 1.99306E-4
7007.812500; 1.10080E-4
7013.671875; 1.16840E-4
7019.531250; 1.20138E-4
7025.390625; 1.15991E-4
7031.250000; 1.15937E-4
7037.109375; 1.01790E-4
7042.968750; 1.00023E-4
7048.828125; 1.02677E-4
7054.687500; 9.86161E-5
7060.546875; 1.04736E-4
7066.406250; 1.12117E-4
7072.265625; 1.10906E-4
7078.125000; 1.06242E-4
7083.984375; 9.65845E-5
7089.843750; 9.50069E-5
7095.703125; 9.54135E-5
7101.562500; 1.09218E-4
7107.421875; 1.09595E-4
7113.281250; 1.05481E-4
7119.140625; 1.03668E-4
7125.000000; 1.10877E-4
7130.859375; 1.08885E-4
7136.718750; 1.05098E-4
7142.578125; 1.04735E-4
7148.437500; 1.05970E-4
7154.296875; 1.04372E-4
7160.156250; 9.60652E-5
7166.015625; 9.80598E-5
7171.875000; 9.74760E-5
7177.734375; 1.02098E-4
7183.593750; 1.01982E-4
7189.453125; 9.70777E-5
7195.312500; 1.04692E-4
7201.171875; 9.57668E-5
7207.031250; 1.04179E-4
7212.890625; 1.07796E-4
7218.750000; 9.74871E-5
7224.609375; 9.32872E-5
7230.468750; 9.85427E-5
7236.328125; 1.06957E-4
7242.187500; 1.02239E-4
7248.046875; 1.09520E-4
7253.906250; 1.15702E-4
7259.765625; 1.12252E-4
7265.625000; 9.61008E-5
7271.484375; 9.28282E-5
7277.343750; 9.50757E-5
7283.203125; 1.03640E-4
7289.062500; 1.06845E-4
7294.921875; 1.01807E-4
7300.781250; 9.54369E-5
7306.640625; 9.22754E-5
7312.500000; 1.03972E-4
7318.359375; 1.13360E-4
7324.218750; 1.05931E-4
7330.078125; 9.64913E-5
7335.937500; 9.08525E-5
7341.796875; 9.75898E-5
7347.656250; 1.10549E-4
7353.515625; 1.12906E-4
7359.375000; 9.88904E-5
7365.234375; 1.03602E-4
7371.093750; 1.11771E-4
7376.953125; 1.06642E-4
7382.812500; 1.09034E-4
7388.671875; 1.07719E-4
7394.531250; 9.52501E-5
7400.390625; 1.03620E-4
7406.250000; 9.79568E-5
7412.109375; 9.82829E-5
7417.968750; 9.53583E-5
7423.828125; 1.05402E-4
7429.687500; 1.04670E-4
7435.546875; 9.91788E-5
7441.406250; 1.00134E-4
7447.265625; 1.01697E-4
7453.125000; 1.03727E-4
7458.984375; 1.05079E-4
7464.843750; 1.12683E-4
7470.703125; 1.17437E-4
7476.562500; 1.05253E-4
7482.421875; 1.03541E-4
7488.281250; 9.21776E-5
7494.140625; 1.03725E-4
7500.000000; 1.07031E-4
7505.859375; 1.03193E-4
7511.718750; 1.10114E-4
7517.578125; 1.18630E-4
7523.437500; 1.24644E-4
7529.296875; 1.04290E-4
7535.156250; 9.96052E-5
7541.015625; 1.02013E-4
7546.875000; 1.03125E-4
7552.734375; 9.50787E-5
7558.593750; 9.57294E-5
7564.453125; 1.05447E-4
7570.312500; 1.03214E-4
7576.171875; 9.32549E-5
7582.031250; 1.01730E-4
7587.890625; 1.01215E-4
7593.750000; 1.09746E-4
7599.609375; 1.06751E-4
7605.468750; 1.07314E-4
7611.328125; 1.02052E-4
7617.187500; 1.06289E-4
7623.046875; 9.16306E-5
7628.906250; 9.75272E-5
7634.765625; 1.01275E-4
7640.625000; 1.01871E-4
7646.484375; 9.77477E-5
7652.343750; 1.07545E-4
7658.203125; 1.02494E-4
7664.062500; 1.09228E-4
7669.921875; 1.07463E-4
7675.781250; 1.04213E-4
7681.640625; 1.01584E-4
7687.500000; 1.03526E-4
7693.359375; 9.79166E-5
7699.218750; 9.48739E-5
7705.078125; 9.72387E-5
7710.937500; 1.05372E-4
7716.796875; 1.00342E-4
7722.656250; 9.34627E-5
7728.515625; 9.57915E-5
7734.375000; 9.59589E-5
7740.234375; 1.09955E-4
7746.093750; 1.10642E-4
7751.953125; 1.14622E-4
7757.812500; 1.05798E-4
7763.671875; 1.14367E-4
7769.531250; 1.12501E-4
7775.390625; 9.73871E-5
7781.250000; 9.10109E-5
7787.109375; 9.33310E-5
7792.968750; 9.92123E-5
7798.828125; 1.07183E-4
7804.687500; 9.75789E-5
7810.546875; 9.59372E-5
7816.406250; 1.02928E-4
7822.265625; 1.07994E-4
7828.125000; 9.95526E-5
7833.984375; 1.05882E-4
7839.843750; 1.09087E-4
7845.703125; 9.65880E-5
7851.562500; 1.02044E-4
7857.421875; 9.49539E-5
7863.281250; 9.86972E-5
7869.140625; 9.86574E-5
7875.000000; 1.05645E-4
7880.859375; 1.00215E-4
7886.718750; 1.05935E-4
7892.578125; 1.09172E-4
7898.437500; 1.12382E-4
7904.296875; 9.36619E-5
7910.156250; 9.96748E-5
7916.015625; 9.93478E-5
7921.875000; 9.87017E-5
7927.734375; 9.77062E-5
7933.593750; 9.97731E-5
7939.453125; 1.02062E-4
7945.312500; 1.06939E-4
7951.171875; 1.00517E-4
7957.031250; 9.67298E-5
7962.890625; 1.02740E-4
7968.750000; 1.13931E-4
7974.609375; 1.06825E-4
7980.468750; 1.07380E-4
7986.328125; 1.02221E-4
7992.187500; 1.01846E-4
7998.046875; 1.21079E-4
8003.906250; 1.19387E-4
8009.765625; 1.03388E-4
8015.625000; 9.84427E-5
8021.484375; 1.07354E-4
8027.343750; 1.00395E-4
8033.203125; 9.80897E-5
8039.062500; 9.69738E-5
8044.921875; 1.04214E-4
8050.781250; 1.13203E-4
8056.640625; 1.06376E-4
8062.500000; 9.37171E-5
8068.359375; 1.01406E-4
8074.218750; 1.03261E-4
8080.078125; 1.07621E-4
8085.937500; 1.20950E-4
8091.796875; 1.21050E-4
8097.656250; 1.10100E-4
8103.515625; 1.01646E-4
8109.375000; 1.04976E-4
8115.234375; 1.02647E-4
8121.093750; 1.07179E-4
8126.953125; 1.07751E-4
8132.812500; 9.82213E-5
8138.671875; 1.00113E-4
8144.531250; 1.10030E-4
8150.390625; 1.10269E-4
8156.250000; 1.11534E-4
8162.109375; 9.89061E-5
8167.968750; 8.86953E-5
8173.828125; 9.81291E-5
8179.687500; 1.08676E-4
8185.546875; 1.02368E-4
8191.406250; 1.08148E-4
8197.265625; 1.04160E-4
8203.125000; 9.94366E-5
8208.984375; 1.06797E-4
8214.843750; 1.09227E-4
8220.703125; 1.07854E-4
8226.562500; 1.17299E-4
8232.421875; 1.08212E-4
8238.281250; 1.02966E-4
8244.140625; 1.06070E-4
8250.000000; 1.08753E-4
8255.859375; 1.01062E-4
8261.718750; 9.56721E-5
8267.578125; 9.74371E-5
8273.437500; 9.83821E-5
8279.296875; 1.09347E-4
8285.156250; 1.18125E-4
8291.015625; 1.09401E-4
8296.875000; 1.05743E-4
8302.734375; 1.14326E-4
8308.593750; 1.08400E-4
8314.453125; 1.05706E-4
8320.312500; 9.36879E-5
8326.171875; 9.55869E-5
8332.031250; 1.04414E-4
8337.890625; 1.00626E-4
8343.750000; 9.41335E-5
8349.609375; 9.82561E-5
8355.468750; 1.10026E-4
8361.328125; 1.08386E-4
8367.187500; 9.27792E-5
8373.046875; 1.00747E-4
8378.906250; 1.04702E-4
8384.765625; 9.25824E-5
8390.625000; 9.03261E-5
8396.484375; 9.99684E-5
8402.343750; 1.05488E-4
8408.203125; 9.73306E-5
8414.062500; 9.03714E-5
8419.921875; 1.05048E-4
8425.781250; 1.14816E-4
8431.640625; 1.14121E-4
8437.500000; 1.19982E-4
8443.359375; 1.09929E-4
8449.218750; 1.13240E-4
8455.078125; 1.20230E-4
8460.937500; 1.11311E-4
8466.796875; 1.07791E-4
8472.656250; 1.13930E-4
8478.515625; 1.07432E-4
8484.375000; 1.06855E-4
8490.234375; 1.01546E-4
8496.093750; 9.43827E-5
8501.953125; 9.12089E-5
8507.812500; 9.06151E-5
8513.671875; 1.03860E-4
8519.531250; 9.30042E-5
8525.390625; 9.79864E-5
8531.250000; 9.56042E-5
8537.109375; 1.00429E-4
8542.968750; 1.07176E-4
8548.828125; 1.10095E-4
8554.687500; 9.90438E-5
8560.546875; 1.03061E-4
8566.406250; 1.00018E-4
8572.265625; 1.00752E-4
8578.125000; 9.43229E-5
8583.984375; 1.01268E-4
8589.843750; 1.03265E-4
8595.703125; 9.91641E-5
8601.562500; 1.02827E-4
8607.421875; 9.55314E-5
8613.281250; 9.89707E-5
8619.140625; 1.09018E-4
8625.000000; 1.19489E-4
8630.859375; 1.21952E-4
8636.718750; 1.17902E-4
8642.578125; 1.11865E-4
8648.437500; 1.05169E-4
8654.296875; 9.77724E-5
8660.156250; 9.15610E-5
8666.015625; 9.81044E-5
8671.875000; 1.02567E-4
8677.734375; 1.08339E-4
8683.593750; 1.01488E-4
8689.453125; 9.06849E-5
8695.312500; 1.00136E-4
8701.171875; 1.03642E-4
8707.031250; 1.05232E-4
8712.890625; 1.07730E-4
8718.750000; 1.16299E-4
8724.609375; 1.04472E-4
8730.468750; 1.09383E-4
8736.328125; 1.07810E-4
8742.187500; 1.08880E-4
8748.046875; 1.15856E-4
8753.906250; 1.08589E-4
8759.765625; 1.12842E-4
8765.625000; 1.11436E-4
8771.484375; 1.16875E-4
8777.343750; 1.22913E-4
8783.203125; 1.18579E-4
8789.062500; 1.09245E-4
8794.921875; 1.06033E-4
8800.781250; 1.00697E-4
8806.640625; 1.00079E-4
8812.500000; 9.39435E-5
8818.359375; 9.65463E-5
8824.218750; 1.05999E-4
8830.078125; 9.99216E-5
8835.937500; 9.75321E-5
8841.796875; 9.99776E-5
8847.656250; 1.08870E-4
8853.515625; 1.09427E-4
8859.375000; 1.13959E-4
8865.234375; 1.10260E-4
8871.093750; 1.05415E-4
8876.953125; 1.01180E-4
8882.812500; 9.69797E-5
8888.671875; 9.64557E-5
8894.531250; 1.02017E-4
8900.390625; 1.06201E-4
8906.250000; 1.00507E-4
8912.109375; 9.60351E-5
8917.968750; 9.44362E-5
8923.828125; 9.93927E-5
8929.687500; 1.11973E-4
8935.546875; 1.16757E-4
8941.406250; 1.08011E-4
8947.265625; 1.11747E-4
8953.125000; 1.15434E-4
8958.984375; 1.05596E-4
8964.843750; 1.00524E-4
8970.703125; 1.02216E-4
8976.562500; 1.05657E-4
8982.421875; 9.74585E-5
8988.281250; 9.50090E-5
8994.140625; 1.15234E-4
9000.000000; 1.72170E-4
9005.859375; 1.29889E-4
9011.718750; 9.65600E-5
9017.578125; 1.06977E-4
9023.437500; 1.09816E-4
9029.296875; 1.09990E-4
9035.156250; 9.65174E-5
9041.015625; 9.89173E-5
9046.875000; 9.90299E-5
9052.734375; 1.00098E-4
9058.593750; 9.79826E-5
9064.453125; 1.01141E-4
9070.312500; 1.05233E-4
9076.171875; 1.09951E-4
9082.031250; 1.06183E-4
9087.890625; 9.95703E-5
9093.750000; 1.07182E-4
9099.609375; 9.40715E-5
9105.468750; 1.02103E-4
9111.328125; 1.04746E-4
9117.187500; 1.04655E-4
9123.046875; 9.89482E-5
9128.906250; 8.82780E-5
9134.765625; 9.55426E-5
9140.625000; 1.07761E-4
9146.484375; 1.08648E-4
9152.343750; 1.01093E-4
9158.203125; 1.13503E-4
9164.062500; 9.88348E-5
9169.921875; 9.11198E-5
9175.781250; 1.03021E-4
9181.640625; 1.16291E-4
9187.500000; 1.12611E-4
9193.359375; 1.03831E-4
9199.218750; 9.41500E-5
9205.078125; 9.75647E-5
9210.937500; 1.01694E-4
9216.796875; 1.03463E-4
9222.656250; 1.04262E-4
9228.515625; 9.78423E-5
9234.375000; 9.35507E-5
9240.234375; 9.41773E-5
9246.093750; 9.82571E-5
9251.953125; 1.06079E-4
9257.812500; 9.57340E-5
9263.671875; 8.33554E-5
9269.531250; 9.96431E-5
9275.390625; 1.02731E-4
9281.250000; 1.13560E-4
9287.109375; 1.12205E-4
9292.968750; 1.03103E-4
9298.828125; 9.88210E-5
9304.687500; 9.70853E-5
9310.546875; 1.01978E-4
9316.406250; 1.00963E-4
9322.265625; 8.85624E-5
9328.125000; 1.04281E-4
9333.984375; 1.14268E-4
9339.843750; 1.03845E-4
9345.703125; 1.03980E-4
9351.562500; 1.07133E-4
9357.421875; 9.79969E-5
9363.281250; 1.02600E-4
9369.140625; 1.12104E-4
9375.000000; 1.12067E-4
9380.859375; 1.06253E-4
9386.718750; 1.03468E-4
9392.578125; 1.13980E-4
9398.437500; 1.12274E-4
9404.296875; 1.02503E-4
9410.156250; 9.38770E-5
9416.015625; 1.01247E-4
9421.875000; 1.09103E-4
9427.734375; 1.02728E-4
9433.593750; 1.00539E-4
9439.453125; 1.05915E-4
9445.312500; 1.08475E-4
9451.171875; 9.99883E-5
9457.031250; 9.23911E-5
9462.890625; 1.03973E-4
9468.750000; 9.70771E-5
9474.609375; 1.07615E-4
9480.468750; 1.12042E-4
9486.328125; 1.03568E-4
9492.187500; 9.91757E-5
9498.046875; 9.88391E-5
9503.906250; 1.03712E-4
9509.765625; 1.02613E-4
9515.625000; 1.00126E-4
9521.484375; 9.64608E-5
9527.343750; 9.90412E-5
9533.203125; 1.06439E-4
9539.062500; 1.05730E-4
9544.921875; 9.59887E-5
9550.781250; 1.08676E-4
9556.640625; 1.13440E-4
9562.500000; 1.12291E-4
9568.359375; 1.05579E-4
9574.218750; 1.10905E-4
9580.078125; 1.09263E-4
9585.937500; 9.60705E-5
9591.796875; 9.16719E-5
9597.656250; 1.08122E-4
9603.515625; 9.84690E-5
9609.375000; 9.22023E-5
9615.234375; 9.68564E-5
9621.093750; 9.96700E-5
9626.953125; 9.98639E-5
9632.812500; 1.03220E-4
9638.671875; 1.11745E-4
9644.531250; 1.06656E-4
9650.390625; 9.90198E-5
9656.250000; 1.03485E-4
9662.109375; 1.07922E-4
9667.968750; 1.01225E-4
9673.828125; 1.10341E-4
9679.687500; 1.26273E-4
9685.546875; 1.14543E-4
9691.406250; 1.00200E-4
9697.265625; 1.04951E-4
9703.125000; 1.05022E-4
9708.984375; 1.07359E-4
9714.843750; 1.04889E-4
9720.703125; 1.06383E-4
9726.562500; 1.01238E-4
9732.421875; 9.56486E-5
9738.281250; 8.97662E-5
9744.140625; 1.10273E-4
9750.000000; 1.06214E-4
9755.859375; 1.11146E-4
9761.718750; 1.10840E-4
9767.578125; 1.09995E-4
9773.437500; 1.06966E-4
9779.296875; 9.58893E-5
9785.156250; 9.89743E-5
9791.015625; 1.06852E-4
9796.875000; 1.03891E-4
9802.734375; 1.16781E-4
9808.593750; 1.02559E-4
9814.453125; 1.06427E-4
9820.312500; 1.14632E-4
9826.171875; 1.08052E-4
9832.031250; 1.11063E-4
9837.890625; 1.08776E-4
9843.750000; 1.04083E-4
9849.609375; 1.15188E-4
9855.468750; 1.14480E-4
9861.328125; 1.01164E-4
9867.187500; 1.07286E-4
9873.046875; 1.07360E-4
9878.906250; 1.02586E-4
9884.765625; 9.85101E-5
9890.625000; 1.00744E-4
9896.484375; 9.95408E-5
9902.343750; 9.88190E-5
9908.203125; 1.08932E-4
9914.062500; 1.09231E-4
9919.921875; 1.03545E-4
9925.781250; 1.01634E-4
9931.640625; 1.05698E-4
9937.500000; 1.03921E-4
9943.359375; 1.00499E-4
9949.218750; 9.35565E-5
9955.078125; 9.80407E-5
9960.937500; 9.54547E-5
9966.796875; 9.79613E-5
9972.656250; 1.01895E-4
9978.515625; 9.63906E-5
9984.375000; 1.07855E-4
9990.234375; 1.13107E-4
9996.093750; 1.24833E-4
10001.953125; 1.11921E-4
10007.812500; 9.62614E-5
10013.671875; 9.20779E-5
10019.531250; 1.02424E-4
10025.390625; 1.06892E-4
10031.250000; 9.98811E-5
10037.109375; 1.00985E-4
10042.968750; 9.33271E-5
10048.828125; 1.02650E-4
10054.687500; 1.06054E-4
10060.546875; 1.02018E-4
10066.406250; 1.05928E-4
10072.265625; 1.13675E-4
10078.125000; 1.12734E-4
10083.984375; 1.15014E-4
10089.843750; 1.13910E-4
10095.703125; 1.17292E-4
10101.562500; 9.75827E-5
10107.421875; 9.83040E-5
10113.281250; 1.03490E-4
10119.140625; 9.72868E-5
10125.000000; 1.03424E-4
10130.859375; 9.87964E-5
10136.718750; 9.59145E-5
10142.578125; 1.00841E-4
10148.437500; 1.03623E-4
10154.296875; 9.64055E-5
10160.156250; 1.00742E-4
10166.015625; 1.05424E-4
10171.875000; 1.01853E-4
10177.734375; 1.06862E-4
10183.593750; 1.08279E-4
10189.453125; 1.08986E-4
10195.312500; 1.05618E-4
10201.171875; 1.07503E-4
10207.031250; 1.12264E-4
10212.890625; 1.08081E-4
10218.750000; 1.00587E-4
10224.609375; 1.05171E-4
10230.468750; 1.12860E-4
10236.328125; 1.02741E-4
10242.187500; 9.76290E-5
10248.046875; 1.03731E-4
10253.906250; 1.04607E-4
10259.765625; 9.37544E-5
10265.625000; 1.02133E-4
10271.484375; 9.84757E-5
10277.343750; 1.02750E-4
10283.203125; 9.90226E-5
10289.062500; 9.92223E-5
10294.921875; 9.75983E-5
10300.781250; 9.61361E-5
10306.640625; 1.02261E-4
10312.500000; 1.06228E-4
10318.359375; 9.97113E-5
10324.218750; 1.01375E-4
10330.078125; 1.07597E-4
10335.937500; 1.00771E-4
10341.796875; 9.57200E-5
10347.656250; 9.98608E-5
10353.515625; 1.04180E-4
10359.375000; 1.07508E-4
10365.234375; 9.47117E-5
10371.093750; 8.95496E-5
10376.953125; 9.04592E-5
10382.812500; 9.32221E-5
10388.671875; 9.71075E-5
10394.531250; 1.04516E-4
10400.390625; 1.11816E-4
10406.250000; 1.03633E-4
10412.109375; 1.01754E-4
10417.968750; 1.09165E-4
10423.828125; 1.01872E-4
10429.687500; 9.90755E-5
10435.546875; 1.10268E-4
10441.406250; 1.04179E-4
10447.265625; 1.02044E-4
10453.125000; 1.09915E-4
10458.984375; 1.12530E-4
10464.843750; 1.01420E-4
10470.703125; 1.04888E-4
10476.562500; 1.13272E-4
10482.421875; 1.09546E-4
10488.281250; 1.07113E-4
10494.140625; 1.06035E-4
10500.000000; 1.03230E-4
10505.859375; 9.61898E-5
10511.718750; 9.63158E-5
10517.578125; 1.03997E-4
10523.437500; 9.97855E-5
10529.296875; 9.93144E-5
10535.156250; 1.14821E-4
10541.015625; 1.19154E-4
10546.875000; 1.03764E-4
10552.734375; 9.46496E-5
10558.593750; 9.71800E-5
10564.453125; 1.02917E-4
10570.312500; 1.00367E-4
10576.171875; 1.08222E-4
10582.031250; 1.15092E-4
10587.890625; 1.12153E-4
10593.750000; 1.02731E-4
10599.609375; 9.63733E-5
10605.468750; 9.88693E-5
10611.328125; 1.11184E-4
10617.187500; 1.05377E-4
10623.046875; 9.54595E-5
10628.906250; 1.01387E-4
10634.765625; 1.02111E-4
10640.625000; 1.04326E-4
10646.484375; 9.64926E-5
10652.343750; 1.08871E-4
10658.203125; 1.14036E-4
10664.062500; 1.04918E-4
10669.921875; 9.59659E-5
10675.781250; 1.04244E-4
10681.640625; 1.08127E-4
10687.500000; 1.00477E-4
10693.359375; 9.64092E-5
10699.218750; 1.01317E-4
10705.078125; 9.88028E-5
10710.937500; 9.04672E-5
10716.796875; 8.91491E-5
10722.656250; 9.19477E-5
10728.515625; 1.01735E-4
10734.375000; 9.95749E-5
10740.234375; 9.77186E-5
10746.093750; 9.69177E-5
10751.953125; 9.81239E-5
10757.812500; 8.52302E-5
10763.671875; 1.01310E-4
10769.531250; 1.04984E-4
10775.390625; 1.02769E-4
10781.250000; 1.08340E-4
10787.109375; 1.10701E-4
10792.968750; 1.03840E-4
10798.828125; 1.02447E-4
10804.687500; 1.10922E-4
10810.546875; 1.10264E-4
10816.406250; 9.96196E-5
10822.265625; 1.09233E-4
10828.125000; 1.03067E-4
10833.984375; 1.03356E-4
10839.843750; 1.00652E-4
10845.703125; 1.03576E-4
10851.562500; 1.05317E-4
10857.421875; 1.03818E-4
10863.281250; 9.94470E-5
10869.140625; 9.97943E-5
10875.000000; 1.04346E-4
10880.859375; 9.50960E-5
10886.718750; 9.97566E-5
10892.578125; 9.49848E-5
10898.437500; 8.91359E-5
10904.296875; 1.02599E-4
10910.156250; 1.01539E-4
10916.015625; 9.85595E-5
10921.875000; 9.25158E-5
10927.734375; 9.99182E-5
10933.593750; 1.11454E-4
10939.453125; 1.04606E-4
10945.312500; 1.01593E-4
10951.171875; 1.00507E-4
10957.031250; 9.66984E-5
10962.890625; 9.83769E-5
10968.750000; 9.60451E-5
10974.609375; 1.02149E-4
10980.468750; 9.58045E-5
10986.328125; 9.17713E-5
10992.187500; 1.01737E-4
10998.046875; 1.28858E-4
11003.906250; 1.18920E-4
11009.765625; 1.03704E-4
11015.625000; 9.60169E-5
11021.484375; 9.81289E-5
11027.343750; 9.00956E-5
11033.203125; 9.50218E-5
11039.062500; 9.79983E-5
11044.921875; 1.01132E-4
11050.781250; 1.02526E-4
11056.640625; 1.00728E-4
11062.500000; 1.01674E-4
11068.359375; 9.67965E-5
11074.218750; 1.01174E-4
11080.078125; 1.02085E-4
11085.937500; 9.52003E-5
11091.796875; 9.91182E-5
11097.656250; 9.98213E-5
11103.515625; 1.02157E-4
11109.375000; 1.21105E-4
11115.234375; 1.13729E-4
11121.093750; 1.04035E-4
11126.953125; 1.01990E-4
11132.812500; 9.54842E-5
11138.671875; 1.00472E-4
11144.531250; 1.09183E-4
11150.390625; 1.01333E-4
11156.250000; 9.54287E-5
11162.109375; 1.04418E-4
11167.968750; 1.02738E-4
11173.828125; 9.11774E-5
11179.687500; 9.15417E-5
11185.546875; 1.01115E-4
11191.406250; 9.92854E-5
11197.265625; 1.04380E-4
11203.125000; 1.02640E-4
11208.984375; 1.01970E-4
11214.843750; 1.07892E-4
11220.703125; 1.03730E-4
11226.562500; 9.90795E-5
11232.421875; 1.00330E-4
11238.281250; 1.01970E-4
11244.140625; 9.70285E-5
11250.000000; 1.06536E-4
11255.859375; 1.08584E-4
11261.718750; 1.00324E-4
11267.578125; 1.02087E-4
11273.437500; 9.19204E-5
11279.296875; 8.84624E-5
11285.156250; 9.71474E-5
11291.015625; 9.95143E-5
11296.875000; 9.26867E-5
11302.734375; 1.04217E-4
11308.593750; 1.06520E-4
11314.453125; 9.43657E-5
11320.312500; 1.02238E-4
11326.171875; 1.01502E-4
11332.031250; 9.92720E-5
11337.890625; 8.93200E-5
11343.750000; 9.80575E-5
11349.609375; 9.78339E-5
11355.468750; 1.01546E-4
11361.328125; 1.03559E-4
11367.187500; 9.93238E-5
11373.046875; 1.05368E-4
11378.906250; 9.70927E-5
11384.765625; 9.18796E-5
11390.625000; 1.00275E-4
11396.484375; 1.03794E-4
11402.343750; 1.17379E-4
11408.203125; 1.04940E-4
11414.062500; 1.13427E-4
11419.921875; 1.17956E-4
11425.781250; 1.03390E-4
11431.640625; 1.00306E-4
11437.500000; 9.86204E-5
11443.359375; 1.05204E-4
11449.218750; 9.04697E-5
11455.078125; 9.51674E-5
11460.937500; 1.06234E-4
11466.796875; 1.03217E-4
11472.656250; 9.85933E-5
11478.515625; 1.05204E-4
11484.375000; 1.08979E-4
11490.234375; 1.03294E-4
11496.093750; 9.00364E-5
11501.953125; 9.64812E-5
11507.812500; 1.04679E-4
11513.671875; 1.07170E-4
11519.531250; 1.10653E-4
11525.390625; 1.15816E-4
11531.250000; 1.03489E-4
11537.109375; 9.98348E-5
11542.968750; 9.84254E-5
11548.828125; 1.18622E-4
11554.687500; 1.07302E-4
11560.546875; 1.00645E-4
11566.406250; 1.07315E-4
11572.265625; 1.06492E-4
11578.125000; 1.11294E-4
11583.984375; 1.08561E-4
11589.843750; 9.44267E-5
11595.703125; 9.95624E-5
11601.562500; 9.21487E-5
11607.421875; 9.83748E-5
11613.281250; 8.71732E-5
11619.140625; 9.29668E-5
11625.000000; 9.91908E-5
11630.859375; 9.69882E-5
11636.718750; 1.07568E-4
11642.578125; 1.22847E-4
11648.437500; 1.03953E-4
11654.296875; 1.03002E-4
11660.156250; 1.03463E-4
11666.015625; 1.01175E-4
11671.875000; 1.10640E-4
11677.734375; 9.65833E-5
11683.593750; 8.82117E-5
11689.453125; 9.67391E-5
11695.312500; 1.00479E-4
11701.171875; 1.00877E-4
11707.031250; 1.09011E-4
11712.890625; 1.01690E-4
11718.750000; 9.88149E-5
11724.609375; 1.03186E-4
11730.468750; 1.01688E-4
11736.328125; 9.46668E-5
11742.187500; 8.96806E-5
11748.046875; 8.99962E-5
11753.906250; 1.06885E-4
11759.765625; 1.06663E-4
11765.625000; 9.95409E-5
11771.484375; 9.99760E-5
11777.343750; 1.05532E-4
11783.203125; 1.04953E-4
11789.062500; 1.02195E-4
11794.921875; 1.06430E-4
11800.781250; 1.12819E-4
11806.640625; 9.94561E-5
11812.500000; 1.10840E-4
11818.359375; 9.95396E-5
11824.218750; 9.70569E-5
11830.078125; 9.52704E-5
11835.937500; 9.78998E-5
11841.796875; 9.61054E-5
11847.656250; 1.05462E-4
11853.515625; 1.07943E-4
11859.375000; 9.99463E-5
11865.234375; 9.71098E-5
11871.093750; 9.99931E-5
11876.953125; 1.05382E-4
11882.812500; 1.08875E-4
11888.671875; 1.04852E-4
11894.531250; 9.43094E-5
11900.390625; 9.97364E-5
11906.250000; 1.05686E-4
11912.109375; 1.01080E-4
11917.968750; 1.02513E-4
11923.828125; 1.20697E-4
11929.687500; 1.14257E-4
11935.546875; 9.65820E-5
11941.406250; 9.71346E-5
11947.265625; 9.61257E-5
11953.125000; 1.06923E-4
11958.984375; 9.99197E-5
11964.843750; 9.99654E-5
11970.703125; 1.09129E-4
11976.562500; 1.09279E-4
11982.421875; 1.00730E-4
11988.281250; 9.85399E-5
11994.140625; 1.07344E-4
12000.000000; 1.09958E-4
12005.859375; 9.76680E-5
12011.718750; 1.01187E-4
12017.578125; 1.11977E-4
12023.437500; 1.11965E-4
12029.296875; 1.05854E-4
12035.156250; 1.08277E-4
12041.015625; 1.01846E-4
12046.875000; 1.03310E-4
12052.734375; 1.07247E-4
12058.593750; 9.11151E-5
12064.453125; 9.85482E-5
12070.312500; 9.90255E-5
12076.171875; 8.57724E-5
12082.031250; 1.00881E-4
12087.890625; 1.10348E-4
12093.750000; 9.99419E-5
12099.609375; 1.02780E-4
12105.468750; 1.08233E-4
12111.328125; 1.03506E-4
12117.187500; 1.02993E-4
12123.046875; 9.16231E-5
12128.906250; 1.02624E-4
12134.765625; 1.08363E-4
12140.625000; 1.09607E-4
12146.484375; 1.08974E-4
12152.343750; 1.03630E-4
12158.203125; 1.06986E-4
12164.062500; 9.61940E-5
12169.921875; 1.02501E-4
12175.781250; 9.46148E-5
12181.640625; 1.00464E-4
12187.500000; 1.08847E-4
12193.359375; 1.03079E-4
12199.218750; 1.00893E-4
12205.078125; 8.45346E-5
12210.937500; 9.96253E-5
12216.796875; 1.09474E-4
12222.656250; 1.04608E-4
12228.515625; 1.05038E-4
12234.375000; 1.05343E-4
12240.234375; 1.05894E-4
12246.093750; 1.09708E-4
12251.953125; 1.11324E-4
12257.812500; 9.90238E-5
12263.671875; 9.21569E-5
12269.531250; 9.98873E-5
12275.390625; 1.02263E-4
12281.250000; 1.08176E-4
12287.109375; 1.08151E-4
12292.968750; 9.96516E-5
12298.828125; 1.11421E-4
12304.687500; 1.06555E-4
12310.546875; 1.02545E-4
12316.406250; 1.09580E-4
12322.265625; 1.03261E-4
12328.125000; 9.38751E-5
12333.984375; 1.00672E-4
12339.843750; 1.00367E-4
12345.703125; 9.53136E-5
12351.562500; 9.57116E-5
12357.421875; 9.23177E-5
12363.281250; 9.20877E-5
12369.140625; 9.31843E-5
12375.000000; 1.05519E-4
12380.859375; 9.78974E-5
12386.718750; 9.26758E-5
12392.578125; 1.06720E-4
12398.437500; 9.82109E-5
12404.296875; 1.03564E-4
12410.156250; 1.14610E-4
12416.015625; 1.08082E-4
12421.875000; 1.03397E-4
12427.734375; 1.02935E-4
12433.593750; 9.37831E-5
12439.453125; 1.05438E-4
12445.312500; 1.11572E-4
12451.171875; 9.54354E-5
12457.031250; 8.64221E-5
12462.890625; 9.15640E-5
12468.750000; 9.64315E-5
12474.609375; 8.55798E-5
12480.468750; 1.12029E-4
12486.328125; 1.23241E-4
12492.187500; 1.09526E-4
12498.046875; 1.11949E-4
12503.906250; 1.13154E-4
12509.765625; 1.05989E-4
12515.625000; 1.08783E-4
12521.484375; 9.94784E-5
12527.343750; 9.15180E-5
12533.203125; 9.13276E-5
12539.062500; 9.81742E-5
12544.921875; 1.06112E-4
12550.781250; 1.10478E-4
12556.640625; 1.10031E-4
12562.500000; 9.67264E-5
12568.359375; 9.46425E-5
12574.218750; 9.10039E-5
12580.078125; 9.80075E-5
12585.937500; 9.40548E-5
12591.796875; 1.07028E-4
12597.656250; 1.04399E-4
12603.515625; 1.01815E-4
12609.375000; 9.66653E-5
12615.234375; 1.07636E-4
12621.093750; 1.03717E-4
12626.953125; 1.08479E-4
12632.812500; 1.11585E-4
12638.671875; 1.04383E-4
12644.531250; 9.31934E-5
12650.390625; 9.92354E-5
12656.250000; 9.77666E-5
12662.109375; 9.11131E-5
12667.968750; 9.45098E-5
12673.828125; 9.14989E-5
12679.687500; 9.21457E-5
12685.546875; 9.69288E-5
12691.406250; 1.05660E-4
12697.265625; 1.07223E-4
12703.125000; 1.00967E-4
12708.984375; 1.09755E-4
12714.843750; 9.89429E-5
12720.703125; 8.67517E-5
12726.562500; 9.58769E-5
12732.421875; 1.09527E-4
12738.281250; 1.09100E-4
12744.140625; 1.00651E-4
12750.000000; 1.01557E-4
12755.859375; 1.01054E-4
12761.718750; 9.65521E-5
12767.578125; 1.05338E-4
12773.437500; 1.04119E-4
12779.296875; 1.10105E-4
12785.156250; 1.01375E-4
12791.015625; 9.45855E-5
12796.875000; 1.02091E-4
12802.734375; 1.07583E-4
12808.593750; 1.03512E-4
12814.453125; 1.00884E-4
12820.312500; 9.80751E-5
12826.171875; 1.12389E-4
12832.031250; 1.14685E-4
12837.890625; 1.06012E-4
12843.750000; 1.00442E-4
12849.609375; 9.94278E-5
12855.468750; 1.04947E-4
12861.328125; 9.95439E-5
12867.187500; 1.09642E-4
12873.046875; 1.09440E-4
12878.906250; 1.12261E-4
12884.765625; 8.95376E-5
12890.625000; 9.76858E-5
12896.484375; 1.09430E-4
12902.343750; 1.05591E-4
12908.203125; 1.12748E-4
12914.062500; 1.18070E-4
12919.921875; 1.18998E-4
12925.781250; 1.17068E-4
12931.640625; 1.01161E-4
12937.500000; 1.05043E-4
12943.359375; 1.03283E-4
12949.218750; 9.47936E-5
12955.078125; 9.05239E-5
12960.937500; 1.02947E-4
12966.796875; 1.08102E-4
12972.656250; 1.10168E-4
12978.515625; 8.75186E-5
12984.375000; 9.50261E-5
12990.234375; 9.72173E-5
12996.093750; 1.12426E-4
13001.953125; 1.19147E-4
13007.812500; 1.08500E-4
13013.671875; 1.07883E-4
13019.531250; 9.80669E-5
13025.390625; 9.45467E-5
13031.250000; 1.04148E-4
13037.109375; 9.85469E-5
13042.968750; 9.94579E-5
13048.828125; 1.06996E-4
13054.687500; 1.12778E-4
13060.546875; 1.06017E-4
13066.406250; 9.75445E-5
13072.265625; 9.75318E-5
13078.125000; 9.88187E-5
13083.984375; 9.69870E-5
13089.843750; 9.21135E-5
13095.703125; 9.38601E-5
13101.562500; 1.02395E-4
13107.421875; 1.09720E-4
13113.281250; 1.07062E-4
13119.140625; 1.02113E-4
13125.000000; 1.03982E-4
13130.859375; 1.05927E-4
13136.718750; 1.05327E-4
13142.578125; 1.09774E-4
13148.437500; 9.98450E-5
13154.296875; 9.73349E-5
13160.156250; 9.76447E-5
13166.015625; 1.01350E-4
13171.875000; 9.89099E-5
13177.734375; 1.01561E-4
13183.593750; 1.04544E-4
13189.453125; 1.10598E-4
13195.312500; 1.12010E-4
13201.171875; 9.84885E-5
13207.031250; 1.01913E-4
13212.890625; 1.01465E-4
13218.750000; 1.02527E-4
13224.609375; 1.13052E-4
13230.468750; 1.05628E-4
13236.328125; 9.69164E-5
13242.187500; 9.78614E-5
13248.046875; 1.00262E-4
13253.906250; 9.54988E-5
13259.765625; 1.06025E-4
13265.625000; 1.02950E-4
13271.484375; 1.05177E-4
13277.343750; 1.07324E-4
13283.203125; 1.02820E-4
13289.062500; 1.00719E-4
13294.921875; 9.27455E-5
13300.781250; 9.62408E-5
13306.640625; 9.98376E-5
13312.500000; 9.02654E-5
13318.359375; 1.10410E-4
13324.218750; 1.09825E-4
13330.078125; 1.00288E-4
13335.937500; 9.45993E-5
13341.796875; 9.89185E-5
13347.656250; 1.04917E-4
13353.515625; 1.05099E-4
13359.375000; 1.02438E-4
13365.234375; 1.04127E-4
13371.093750; 8.52372E-5
13376.953125; 9.84900E-5
13382.812500; 9.02814E-5
13388.671875; 1.05572E-4
13394.531250; 1.04387E-4
13400.390625; 1.01975E-4
13406.250000; 9.50666E-5
13412.109375; 9.24468E-5
13417.968750; 9.65277E-5
13423.828125; 9.75793E-5
13429.687500; 1.05714E-4
13435.546875; 1.03951E-4
13441.406250; 9.81320E-5
13447.265625; 9.02221E-5
13453.125000; 8.78430E-5
13458.984375; 9.70906E-5
13464.843750; 9.11697E-5
13470.703125; 9.82817E-5
13476.562500; 1.04163E-4
13482.421875; 1.04557E-4
13488.281250; 1.00556E-4
13494.140625; 1.02581E-4
13500.000000; 1.00223E-4
13505.859375; 1.00304E-4
13511.718750; 1.09617E-4
13517.578125; 1.01214E-4
13523.437500; 9.87722E-5
13529.296875; 1.04227E-4
13535.156250; 9.82310E-5
13541.015625; 9.54747E-5
13546.875000; 9.66354E-5
13552.734375; 9.36940E-5
13558.593750; 9.67560E-5
13564.453125; 9.62705E-5
13570.312500; 1.04213E-4
13576.171875; 1.00875E-4
13582.031250; 1.04854E-4
13587.890625; 1.06246E-4
13593.750000; 1.01346E-4
13599.609375; 9.80948E-5
13605.468750; 9.72255E-5
13611.328125; 8.92243E-5
13617.187500; 8.40627E-5
13623.046875; 1.01768E-4
13628.906250; 1.00038E-4
13634.765625; 9.66297E-5
13640.625000; 1.01303E-4
13646.484375; 1.00866E-4
13652.343750; 9.49938E-5
13658.203125; 1.01221E-4
13664.062500; 1.07167E-4
13669.921875; 1.10643E-4
13675.781250; 1.09344E-4
13681.640625; 1.05623E-4
13687.500000; 9.89321E-5
13693.359375; 1.03060E-4
13699.218750; 1.05701E-4
13705.078125; 1.00310E-4
13710.937500; 1.09610E-4
13716.796875; 1.03839E-4
13722.656250; 9.20927E-5
13728.515625; 8.43037E-5
13734.375000; 9.38112E-5
13740.234375; 1.01103E-4
13746.093750; 1.15101E-4
13751.953125; 1.19467E-4
13757.812500; 1.10726E-4
13763.671875; 1.02555E-4
13769.531250; 9.77797E-5
13775.390625; 1.04253E-4
13781.250000; 1.04942E-4
13787.109375; 9.95366E-5
13792.968750; 1.13380E-4
13798.828125; 1.04194E-4
13804.687500; 9.68695E-5
13810.546875; 1.01948E-4
13816.406250; 1.06817E-4
13822.265625; 1.07386E-4
13828.125000; 1.09016E-4
13833.984375; 1.07442E-4
13839.843750; 1.09369E-4
13845.703125; 1.06253E-4
13851.562500; 1.00278E-4
13857.421875; 1.03360E-4
13863.281250; 1.02765E-4
13869.140625; 1.00952E-4
13875.000000; 9.74305E-5
13880.859375; 1.04762E-4
13886.718750; 1.03564E-4
13892.578125; 9.70829E-5
13898.437500; 9.98997E-5
13904.296875; 1.17026E-4
13910.156250; 1.13162E-4
13916.015625; 1.06745E-4
13921.875000; 1.10511E-4
13927.734375; 1.01850E-4
13933.593750; 1.09397E-4
13939.453125; 1.12508E-4
13945.312500; 9.90442E-5
13951.171875; 1.01898E-4
13957.031250; 1.01443E-4
13962.890625; 1.01378E-4
13968.750000; 1.02630E-4
13974.609375; 1.04273E-4
13980.468750; 9.79895E-5
13986.328125; 9.90813E-5
13992.187500; 9.11574E-5
13998.046875; 1.05926E-4
14003.906250; 1.03883E-4
14009.765625; 9.52647E-5
14015.625000; 9.27306E-5
14021.484375; 9.78293E-5
14027.343750; 1.07410E-4
14033.203125; 9.75989E-5
14039.062500; 1.04557E-4
14044.921875; 9.96514E-5
14050.781250; 9.46746E-5
14056.640625; 9.86845E-5
14062.500000; 8.76752E-5
14068.359375; 8.68238E-5
14074.218750; 9.15086E-5
14080.078125; 1.09850E-4
14085.937500; 1.10084E-4
14091.796875; 9.56494E-5
14097.656250; 9.31314E-5
14103.515625; 9.54054E-5
14109.375000; 1.05129E-4
14115.234375; 1.13025E-4
14121.093750; 1.04090E-4
14126.953125; 1.04716E-4
14132.812500; 1.05563E-4
14138.671875; 9.67341E-5
14144.531250; 8.85873E-5
14150.390625; 9.55576E-5
14156.250000; 9.71631E-5
14162.109375; 1.11576E-4
14167.968750; 1.15153E-4
14173.828125; 9.96621E-5
14179.687500; 1.00127E-4
14185.546875; 1.02815E-4
14191.406250; 8.96571E-5
14197.265625; 8.93344E-5
14203.125000; 9.95632E-5
14208.984375; 9.70495E-5
14214.843750; 9.33493E-5
14220.703125; 9.46411E-5
14226.562500; 1.06569E-4
14232.421875; 1.04563E-4
14238.281250; 9.98017E-5
14244.140625; 9.66780E-5
14250.000000; 1.00479E-4
14255.859375; 9.64756E-5
14261.718750; 9.93069E-5
14267.578125; 9.99896E-5
14273.437500; 1.08635E-4
14279.296875; 1.08344E-4
14285.156250; 1.07921E-4
14291.015625; 9.65217E-5
14296.875000; 1.05939E-4
14302.734375; 1.15546E-4
14308.593750; 9.22398E-5
14314.453125; 8.81703E-5
14320.312500; 9.53208E-5
14326.171875; 9.76790E-5
14332.031250; 9.67613E-5
14337.890625; 9.53662E-5
14343.750000; 9.73523E-5
14349.609375; 1.03861E-4
14355.468750; 1.13369E-4
14361.328125; 9.59834E-5
14367.187500; 8.87609E-5
14373.046875; 1.00535E-4
14378.906250; 1.00178E-4
14384.765625; 1.01200E-4
14390.625000; 1.04934E-4
14396.484375; 1.01197E-4
14402.343750; 9.15571E-5
14408.203125; 9.43765E-5
14414.062500; 1.04851E-4
14419.921875; 1.05305E-4
14425.781250; 1.12698E-4
14431.640625; 1.22108E-4
14437.500000; 1.14241E-4
14443.359375; 1.10071E-4
14449.218750; 1.00394E-4
14455.078125; 1.00107E-4
14460.937500; 1.02599E-4
14466.796875; 1.02347E-4
14472.656250; 1.03803E-4
14478.515625; 1.07577E-4
14484.375000; 1.03663E-4
14490.234375; 1.05034E-4
14496.093750; 9.14084E-5
14501.953125; 9.82431E-5
14507.812500; 9.93385E-5
14513.671875; 9.64928E-5
14519.531250; 9.74405E-5
14525.390625; 1.10943E-4
14531.250000; 1.00842E-4
14537.109375; 1.00273E-4
14542.968750; 1.04267E-4
14548.828125; 9.73342E-5
14554.687500; 9.35885E-5
14560.546875; 9.45151E-5
14566.406250; 9.29874E-5
14572.265625; 9.83139E-5
14578.125000; 9.76495E-5
14583.984375; 9.30025E-5
14589.843750; 9.18199E-5
14595.703125; 8.72780E-5
14601.562500; 9.85212E-5
14607.421875; 1.03197E-4
14613.281250; 1.02864E-4
14619.140625; 1.04568E-4
14625.000000; 9.37073E-5
14630.859375; 9.92330E-5
14636.718750; 1.00254E-4
14642.578125; 1.05314E-4
14648.437500; 1.05655E-4
14654.296875; 9.95205E-5
14660.156250; 9.69434E-5
14666.015625; 1.01478E-4
14671.875000; 9.00836E-5
14677.734375; 9.34715E-5
14683.593750; 9.71657E-5
14689.453125; 1.05335E-4
14695.312500; 1.03505E-4
14701.171875; 8.81723E-5
14707.031250; 9.83425E-5
14712.890625; 9.86429E-5
14718.750000; 9.15538E-5
14724.609375; 9.43061E-5
14730.468750; 9.19398E-5
14736.328125; 8.72082E-5
14742.187500; 1.00206E-4
14748.046875; 9.27651E-5
14753.906250; 8.45474E-5
14759.765625; 9.98222E-5
14765.625000; 1.00128E-4
14771.484375; 9.57389E-5
14777.343750; 9.36816E-5
14783.203125; 9.92609E-5
14789.062500; 1.00231E-4
14794.921875; 1.19368E-4
14800.781250; 1.14061E-4
14806.640625; 1.06208E-4
14812.500000; 1.06135E-4
14818.359375; 1.06348E-4
14824.218750; 1.02214E-4
14830.078125; 1.06438E-4
14835.937500; 1.00486E-4
14841.796875; 9.56692E-5
14847.656250; 9.19948E-5
14853.515625; 9.71050E-5
14859.375000; 9.78229E-5
14865.234375; 9.40230E-5
14871.093750; 9.28663E-5
14876.953125; 9.41395E-5
14882.812500; 8.61853E-5
14888.671875; 9.20177E-5
14894.531250; 1.01092E-4
14900.390625; 9.24782E-5
14906.250000; 9.86344E-5
14912.109375; 9.75551E-5
14917.968750; 1.02636E-4
14923.828125; 1.09543E-4
14929.687500; 1.02042E-4
14935.546875; 9.59321E-5
14941.406250; 9.43307E-5
14947.265625; 8.90958E-5
14953.125000; 9.12943E-5
14958.984375; 9.83513E-5
14964.843750; 9.59148E-5
14970.703125; 1.01876E-4
14976.562500; 9.13760E-5
14982.421875; 1.00662E-4
14988.281250; 1.07243E-4
14994.140625; 1.05706E-4
15000.000000; 1.19852E-4
15005.859375; 1.07703E-4
15011.718750; 9.30895E-5
15017.578125; 8.93417E-5
15023.437500; 9.55901E-5
15029.296875; 1.02050E-4
15035.156250; 1.02944E-4
15041.015625; 1.02975E-4
15046.875000; 1.04272E-4
15052.734375; 9.87055E-5
15058.593750; 9.97716E-5
15064.453125; 1.05437E-4
15070.312500; 1.02632E-4
15076.171875; 9.96928E-5
15082.031250; 1.01593E-4
15087.890625; 9.85229E-5
15093.750000; 1.03223E-4
15099.609375; 9.92276E-5
15105.468750; 9.71070E-5
15111.328125; 1.02145E-4
15117.187500; 1.04311E-4
15123.046875; 1.00335E-4
15128.906250; 1.03330E-4
15134.765625; 1.00406E-4
15140.625000; 9.93832E-5
15146.484375; 1.07244E-4
15152.343750; 1.13208E-4
15158.203125; 1.12836E-4
15164.062500; 1.09770E-4
15169.921875; 8.75334E-5
15175.781250; 8.17263E-5
15181.640625; 9.19407E-5
15187.500000; 9.65939E-5
15193.359375; 9.15747E-5
15199.218750; 1.03341E-4
15205.078125; 1.17528E-4
15210.937500; 9.56804E-5
15216.796875; 1.06367E-4
15222.656250; 1.04435E-4
15228.515625; 9.26376E-5
15234.375000; 9.33608E-5
15240.234375; 9.00552E-5
15246.093750; 9.41262E-5
15251.953125; 9.71034E-5
15257.812500; 8.79673E-5
15263.671875; 9.21193E-5
15269.531250; 8.90407E-5
15275.390625; 8.68669E-5
15281.250000; 1.00706E-4
15287.109375; 9.83577E-5
15292.968750; 9.78452E-5
15298.828125; 1.05528E-4
15304.687500; 1.01099E-4
15310.546875; 9.94882E-5
15316.406250; 9.64297E-5
15322.265625; 9.04964E-5
15328.125000; 9.50069E-5
15333.984375; 1.03662E-4
15339.843750; 1.13706E-4
15345.703125; 9.92637E-5
15351.562500; 1.02925E-4
15357.421875; 9.72771E-5
15363.281250; 9.86698E-5
15369.140625; 9.93101E-5
15375.000000; 1.01030E-4
15380.859375; 1.00567E-4
15386.718750; 9.45024E-5
15392.578125; 9.40731E-5
15398.437500; 9.68199E-5
15404.296875; 9.63717E-5
15410.156250; 9.59357E-5
15416.015625; 8.84227E-5
15421.875000; 9.00404E-5
15427.734375; 9.21516E-5
15433.593750; 9.85972E-5
15439.453125; 1.04366E-4
15445.312500; 9.52520E-5
15451.171875; 8.01797E-5
15457.031250; 9.50815E-5
15462.890625; 1.00033E-4
15468.750000; 9.81092E-5
15474.609375; 1.06361E-4
15480.468750; 1.10571E-4
15486.328125; 9.78014E-5
15492.187500; 9.57887E-5
15498.046875; 9.88881E-5
15503.906250; 1.05707E-4
15509.765625; 1.01535E-4
15515.625000; 9.91732E-5
15521.484375; 1.00514E-4
15527.343750; 9.82070E-5
15533.203125; 1.07086E-4
15539.062500; 1.05941E-4
15544.921875; 1.04303E-4
15550.781250; 9.44494E-5
15556.640625; 9.16914E-5
15562.500000; 9.48384E-5
15568.359375; 9.80451E-5
15574.218750; 9.84056E-5
15580.078125; 1.07021E-4
15585.937500; 1.19271E-4
15591.796875; 9.91940E-5
15597.656250; 9.27712E-5
15603.515625; 9.95996E-5
15609.375000; 8.94689E-5
15615.234375; 1.04441E-4
15621.093750; 1.00068E-4
15626.953125; 8.74350E-5
15632.812500; 8.69383E-5
15638.671875; 9.02101E-5
15644.531250; 9.80643E-5
15650.390625; 1.12046E-4
15656.250000; 9.84768E-5
15662.109375; 9.91330E-5
15667.968750; 1.03627E-4
15673.828125; 1.06178E-4
15679.687500; 9.71491E-5
15685.546875; 1.03929E-4
15691.406250; 1.07799E-4
15697.265625; 1.00881E-4
15703.125000; 9.09889E-5
15708.984375; 9.72665E-5
15714.843750; 9.64837E-5
15720.703125; 8.52545E-5
15726.562500; 9.05554E-5
15732.421875; 1.06096E-4
15738.281250; 1.08024E-4
15744.140625; 1.06482E-4
15750.000000; 9.56878E-5
15755.859375; 9.18172E-5
15761.718750; 9.54293E-5
15767.578125; 9.34072E-5
15773.437500; 9.62989E-5
15779.296875; 9.34225E-5
15785.156250; 1.06170E-4
15791.015625; 9.88722E-5
15796.875000; 8.86748E-5
15802.734375; 9.50221E-5
15808.593750; 9.45722E-5
15814.453125; 9.80731E-5
15820.312500; 9.92384E-5
15826.171875; 1.03642E-4
15832.031250; 1.05145E-4
15837.890625; 1.04643E-4
15843.750000; 9.42936E-5
15849.609375; 1.05603E-4
15855.468750; 1.11398E-4
15861.328125; 8.87161E-5
15867.187500; 9.41277E-5
15873.046875; 9.84509E-5
15878.906250; 9.92284E-5
15884.765625; 1.01461E-4
15890.625000; 1.10905E-4
15896.484375; 1.13100E-4
15902.343750; 1.00942E-4
15908.203125; 9.86383E-5
15914.062500; 1.00707E-4
15919.921875; 9.71069E-5
15925.781250; 9.59689E-5
15931.640625; 9.25594E-5
15937.500000; 9.57599E-5
15943.359375; 9.75130E-5
15949.218750; 1.06765E-4
15955.078125; 1.04038E-4
15960.937500; 1.00764E-4
15966.796875; 1.01383E-4
15972.656250; 1.10687E-4
15978.515625; 1.07415E-4
15984.375000; 1.02999E-4
15990.234375; 1.02812E-4
15996.093750; 1.13681E-4
16001.953125; 1.07363E-4
16007.812500; 1.03169E-4
16013.671875; 1.03857E-4
16019.531250; 1.01431E-4
16025.390625; 1.06587E-4
16031.250000; 9.29668E-5
16037.109375; 9.51554E-5
16042.968750; 1.02435E-4
16048.828125; 8.99367E-5
16054.687500; 9.56189E-5
16060.546875; 9.59842E-5
16066.406250; 9.90512E-5
16072.265625; 9.90350E-5
16078.125000; 1.01250E-4
16083.984375; 1.15220E-4
16089.843750; 1.07672E-4
16095.703125; 1.01830E-4
16101.562500; 9.91366E-5
16107.421875; 1.05671E-4
16113.281250; 1.03521E-4
16119.140625; 9.14666E-5
16125.000000; 9.49645E-5
16130.859375; 9.82109E-5
16136.718750; 9.19608E-5
16142.578125; 9.84696E-5
16148.437500; 9.28943E-5
16154.296875; 9.55252E-5
16160.156250; 1.01128E-4
16166.015625; 9.80055E-5
16171.875000; 1.06276E-4
16177.734375; 1.06684E-4
16183.593750; 1.02323E-4
16189.453125; 9.60583E-5
16195.312500; 1.03523E-4
16201.171875; 1.03366E-4
16207.031250; 1.02234E-4
16212.890625; 1.13388E-4
16218.750000; 1.05409E-4
16224.609375; 9.43067E-5
16230.468750; 1.02938E-4
16236.328125; 1.04632E-4
16242.187500; 9.59466E-5
16248.046875; 9.29486E-5
16253.906250; 1.05385E-4
16259.765625; 9.96351E-5
16265.625000; 9.75923E-5
16271.484375; 1.04285E-4
16277.343750; 9.60033E-5
16283.203125; 9.83660E-5
16289.062500; 1.00081E-4
16294.921875; 9.76196E-5
16300.781250; 9.57479E-5
16306.640625; 1.00249E-4
16312.500000; 1.11107E-4
16318.359375; 1.03986E-4
16324.218750; 9.44767E-5
16330.078125; 9.65755E-5
16335.937500; 1.00040E-4
16341.796875; 1.03230E-4
16347.656250; 1.03024E-4
16353.515625; 1.02450E-4
16359.375000; 9.32551E-5
16365.234375; 1.01760E-4
16371.093750; 1.03961E-4
16376.953125; 1.04196E-4
16382.812500; 9.70873E-5
16388.671875; 9.66242E-5
16394.531250; 1.02216E-4
16400.390625; 8.99753E-5
16406.250000; 9.32662E-5
16412.109375; 9.45334E-5
16417.968750; 8.66189E-5
16423.828125; 8.94265E-5
16429.687500; 9.76970E-5
16435.546875; 9.78547E-5
16441.406250; 9.64744E-5
16447.265625; 1.09601E-4
16453.125000; 1.13666E-4
16458.984375; 1.10403E-4
16464.843750; 1.07402E-4
16470.703125; 1.24162E-4
16476.562500; 1.21603E-4
16482.421875; 1.04319E-4
16488.281250; 9.66020E-5
16494.140625; 9.89185E-5
16500.000000; 1.02216E-4
16505.859375; 1.10224E-4
16511.718750; 9.44423E-5
16517.578125; 9.66201E-5
16523.437500; 1.05226E-4
16529.296875; 1.00464E-4
16535.156250; 1.02670E-4
16541.015625; 1.07021E-4
16546.875000; 9.13195E-5
16552.734375; 9.06857E-5
16558.593750; 9.02038E-5
16564.453125; 1.00883E-4
16570.312500; 1.00163E-4
16576.171875; 9.56442E-5
16582.031250; 9.02038E-5
16587.890625; 1.04456E-4
16593.750000; 1.06354E-4
16599.609375; 1.01935E-4
16605.468750; 1.06671E-4
16611.328125; 1.00671E-4
16617.187500; 9.82678E-5
16623.046875; 1.09957E-4
16628.906250; 1.00271E-4
16634.765625; 9.76072E-5
16640.625000; 1.03556E-4
16646.484375; 1.03333E-4
16652.343750; 9.08888E-5
16658.203125; 9.10358E-5
16664.062500; 9.79861E-5
16669.921875; 1.00323E-4
16675.781250; 9.46903E-5
16681.640625; 9.22692E-5
16687.500000; 9.79997E-5
16693.359375; 9.17989E-5
16699.218750; 9.55568E-5
16705.078125; 1.01677E-4
16710.937500; 9.35715E-5
16716.796875; 1.11261E-4
16722.656250; 1.14062E-4
16728.515625; 1.06070E-4
16734.375000; 9.38584E-5
16740.234375; 1.05229E-4
16746.093750; 1.03996E-4
16751.953125; 1.00201E-4
16757.812500; 8.39040E-5
16763.671875; 9.38815E-5
16769.531250; 1.00219E-4
16775.390625; 9.25026E-5
16781.250000; 8.68284E-5
16787.109375; 1.01571E-4
16792.968750; 1.08737E-4
16798.828125; 1.05357E-4
16804.687500; 9.77844E-5
16810.546875; 1.02082E-4
16816.406250; 1.03081E-4
16822.265625; 9.07477E-5
16828.125000; 1.08810E-4
16833.984375; 1.10183E-4
16839.843750; 1.00312E-4
16845.703125; 1.04129E-4
16851.562500; 1.13764E-4
16857.421875; 1.03452E-4
16863.281250; 9.81374E-5
16869.140625; 8.96261E-5
16875.000000; 8.96396E-5
16880.859375; 9.66107E-5
16886.718750; 9.82312E-5
16892.578125; 1.05888E-4
16898.437500; 1.11914E-4
16904.296875; 1.05791E-4
16910.156250; 9.98117E-5
16916.015625; 1.02190E-4
16921.875000; 1.06102E-4
16927.734375; 1.16810E-4
16933.593750; 1.19523E-4
16939.453125; 9.40780E-5
16945.312500; 1.00306E-4
16951.171875; 1.05317E-4
16957.031250; 9.82203E-5
16962.890625; 1.02687E-4
16968.750000; 9.66449E-5
16974.609375; 9.17466E-5
16980.468750; 1.05033E-4
16986.328125; 1.06028E-4
16992.187500; 1.02306E-4
16998.046875; 1.00972E-4
17003.906250; 9.86190E-5
17009.765625; 1.05895E-4
17015.625000; 1.04425E-4
17021.484375; 9.15824E-5
17027.343750; 8.86144E-5
17033.203125; 9.56434E-5
17039.062500; 9.61576E-5
17044.921875; 9.35678E-5
17050.781250; 8.87975E-5
17056.640625; 8.57479E-5
17062.500000; 8.88666E-5
17068.359375; 9.89977E-5
17074.218750; 1.07337E-4
17080.078125; 9.37025E-5
17085.937500; 9.10536E-5
17091.796875; 1.08042E-4
17097.656250; 9.99878E-5
17103.515625; 9.02931E-5
17109.375000; 8.91609E-5
17115.234375; 9.47610E-5
17121.093750; 8.76841E-5
17126.953125; 8.89829E-5
17132.812500; 9.81905E-5
17138.671875; 1.01697E-4
17144.531250; 1.02588E-4
17150.390625; 9.23748E-5
17156.250000; 8.88283E-5
17162.109375; 9.79641E-5
17167.968750; 1.01224E-4
17173.828125; 1.01648E-4
17179.687500; 1.06727E-4
17185.546875; 1.09523E-4
17191.406250; 1.03537E-4
17197.265625; 1.04927E-4
17203.125000; 1.02389E-4
17208.984375; 9.83994E-5
17214.843750; 9.58843E-5
17220.703125; 9.83240E-5
17226.562500; 1.07263E-4
17232.421875; 1.02435E-4
17238.281250; 1.03694E-4
17244.140625; 9.08714E-5
17250.000000; 8.64896E-5
17255.859375; 9.84992E-5
17261.718750; 1.08305E-4
17267.578125; 9.83061E-5
17273.437500; 9.59935E-5
17279.296875; 8.93739E-5
17285.156250; 9.60505E-5
17291.015625; 9.97715E-5
17296.875000; 1.07867E-4
17302.734375; 1.07456E-4
17308.593750; 1.06613E-4
17314.453125; 1.14186E-4
17320.312500; 1.10288E-4
17326.171875; 1.07930E-4
17332.031250; 1.04803E-4
17337.890625; 9.64269E-5
17343.750000; 9.04554E-5
17349.609375; 8.91881E-5
17355.468750; 8.06890E-5
17361.328125; 8.86028E-5
17367.187500; 8.87812E-5
17373.046875; 9.69679E-5
17378.906250; 9.43202E-5
17384.765625; 9.00734E-5
17390.625000; 9.35010E-5
17396.484375; 1.03103E-4
17402.343750; 1.07958E-4
17408.203125; 1.06031E-4
17414.062500; 9.73499E-5
17419.921875; 9.69483E-5
17425.781250; 8.55257E-5
17431.640625; 1.02149E-4
17437.500000; 1.06799E-4
17443.359375; 1.07796E-4
17449.218750; 1.08550E-4
17455.078125; 1.04087E-4
17460.937500; 9.99557E-5
17466.796875; 9.82688E-5
17472.656250; 8.39365E-5
17478.515625; 9.22257E-5
17484.375000; 1.07470E-4
17490.234375; 1.03581E-4
17496.093750; 9.84105E-5
17501.953125; 9.83428E-5
17507.812500; 1.02811E-4
17513.671875; 1.05531E-4
17519.531250; 1.07225E-4
17525.390625; 9.55381E-5
17531.250000; 8.46743E-5
17537.109375; 9.05445E-5
17542.968750; 8.72843E-5
17548.828125; 8.15011E-5
17554.687500; 8.42888E-5
17560.546875; 9.41263E-5
17566.406250; 9.81624E-5
17572.265625; 9.55700E-5
17578.125000; 9.71493E-5
17583.984375; 1.05287E-4
17589.843750; 1.10720E-4
17595.703125; 1.07766E-4
17601.562500; 9.75175E-5
17607.421875; 1.00819E-4
17613.281250; 9.79026E-5
17619.140625; 1.03864E-4
17625.000000; 1.01924E-4
17630.859375; 9.31244E-5
17636.718750; 9.19973E-5
17642.578125; 9.94693E-5
17648.437500; 1.02881E-4
17654.296875; 1.01129E-4
17660.156250; 1.03778E-4
17666.015625; 9.51401E-5
17671.875000; 1.01327E-4
17677.734375; 1.08679E-4
17683.593750; 1.02759E-4
17689.453125; 9.99009E-5
17695.312500; 1.00008E-4
17701.171875; 1.03955E-4
17707.031250; 9.71108E-5
17712.890625; 8.47859E-5
17718.750000; 9.50428E-5
17724.609375; 8.60684E-5
17730.468750; 9.67824E-5
17736.328125; 1.07731E-4
17742.187500; 1.04982E-4
17748.046875; 1.09484E-4
17753.906250; 1.01504E-4
17759.765625; 1.01117E-4
17765.625000; 9.55882E-5
17771.484375; 9.76792E-5
17777.343750; 9.70019E-5
17783.203125; 9.33323E-5
17789.062500; 9.61926E-5
17794.921875; 9.75719E-5
17800.781250; 8.91630E-5
17806.640625; 9.50997E-5
17812.500000; 9.61540E-5
17818.359375; 8.65486E-5
17824.218750; 1.04732E-4
17830.078125; 1.02301E-4
17835.937500; 9.67304E-5
17841.796875; 9.92688E-5
17847.656250; 9.89515E-5
17853.515625; 9.98532E-5
17859.375000; 9.94416E-5
17865.234375; 1.03692E-4
17871.093750; 1.04606E-4
17876.953125; 1.03827E-4
17882.812500; 1.03640E-4
17888.671875; 1.03801E-4
17894.531250; 9.63276E-5
17900.390625; 9.89539E-5
17906.250000; 1.11777E-4
17912.109375; 1.10367E-4
17917.968750; 1.06349E-4
17923.828125; 1.08295E-4
17929.687500; 9.59276E-5
17935.546875; 9.61981E-5
17941.406250; 9.91098E-5
17947.265625; 1.00826E-4
17953.125000; 1.07080E-4
17958.984375; 9.74827E-5
17964.843750; 9.67305E-5
17970.703125; 1.02095E-4
17976.562500; 1.02986E-4
17982.421875; 9.18797E-5
17988.281250; 8.79040E-5
17994.140625; 9.10092E-5
18000.000000; 9.49619E-5
18005.859375; 9.85240E-5
18011.718750; 9.29789E-5
18017.578125; 9.42318E-5
18023.437500; 9.53630E-5
18029.296875; 9.16846E-5
18035.156250; 9.02572E-5
18041.015625; 9.26262E-5
18046.875000; 9.62254E-5
18052.734375; 9.77056E-5
18058.593750; 1.02739E-4
18064.453125; 9.52634E-5
18070.312500; 1.02707E-4
18076.171875; 1.13375E-4
18082.031250; 9.94739E-5
18087.890625; 9.61707E-5
18093.750000; 9.82602E-5
18099.609375; 9.51028E-5
18105.468750; 9.54917E-5
18111.328125; 1.04278E-4
18117.187500; 1.06400E-4
18123.046875; 1.05276E-4
18128.906250; 1.07186E-4
18134.765625; 1.08429E-4
18140.625000; 9.95172E-5
18146.484375; 9.41032E-5
18152.343750; 9.92787E-5
18158.203125; 9.30492E-5
18164.062500; 9.30859E-5
18169.921875; 1.00992E-4
18175.781250; 1.08776E-4
18181.640625; 1.00756E-4
18187.500000; 9.11036E-5
18193.359375; 8.57141E-5
18199.218750; 9.64901E-5
18205.078125; 9.49862E-5
18210.937500; 9.45965E-5
18216.796875; 1.03673E-4
18222.656250; 9.66843E-5
18228.515625; 9.04240E-5
18234.375000; 8.29917E-5
18240.234375; 8.45073E-5
18246.093750; 9.49888E-5
18251.953125; 9.37264E-5
18257.812500; 1.03092E-4
18263.671875; 1.14798E-4
18269.531250; 1.04183E-4
18275.390625; 1.01015E-4
18281.250000; 9.63309E-5
18287.109375; 9.62703E-5
18292.968750; 9.72353E-5
18298.828125; 9.24561E-5
18304.687500; 9.36275E-5
18310.546875; 8.97470E-5
18316.406250; 8.58599E-5
18322.265625; 9.58563E-5
18328.125000; 9.92914E-5
18333.984375; 1.02271E-4
18339.843750; 1.00009E-4
18345.703125; 1.05836E-4
18351.562500; 1.17407E-4
18357.421875; 1.07503E-4
18363.281250; 1.01261E-4
18369.140625; 9.81362E-5
18375.000000; 1.04363E-4
18380.859375; 9.59418E-5
18386.718750; 9.88409E-5
18392.578125; 9.74801E-5
18398.437500; 9.58763E-5
18404.296875; 1.03678E-4
18410.156250; 1.01389E-4
18416.015625; 9.74291E-5
18421.875000; 9.32340E-5
18427.734375; 1.01440E-4
18433.593750; 9.38741E-5
18439.453125; 8.91190E-5
18445.312500; 8.94602E-5
18451.171875; 9.63094E-5
18457.031250; 1.02274E-4
18462.890625; 9.87635E-5
18468.750000; 9.28962E-5
18474.609375; 9.28276E-5
18480.468750; 9.39896E-5
18486.328125; 1.09837E-4
18492.187500; 1.10963E-4
18498.046875; 1.00097E-4
18503.906250; 9.10660E-5
18509.765625; 9.75653E-5
18515.625000; 9.43902E-5
18521.484375; 1.09355E-4
18527.343750; 1.08489E-4
18533.203125; 9.95954E-5
18539.062500; 9.44204E-5
18544.921875; 1.06614E-4
18550.781250; 1.03595E-4
18556.640625; 9.70673E-5
18562.500000; 9.14896E-5
18568.359375; 1.02918E-4
18574.218750; 1.07694E-4
18580.078125; 9.19262E-5
18585.937500; 1.00272E-4
18591.796875; 9.26436E-5
18597.656250; 9.33442E-5
18603.515625; 1.02820E-4
18609.375000; 9.90183E-5
18615.234375; 8.56877E-5
18621.093750; 8.88436E-5
18626.953125; 9.35765E-5
18632.812500; 1.01968E-4
18638.671875; 1.04567E-4
18644.531250; 9.85817E-5
18650.390625; 1.03284E-4
18656.250000; 1.09048E-4
18662.109375; 1.13001E-4
18667.968750; 1.05237E-4
18673.828125; 1.00578E-4
18679.687500; 9.91326E-5
18685.546875; 9.46550E-5
18691.406250; 9.40742E-5
18697.265625; 9.01491E-5
18703.125000; 9.62357E-5
18708.984375; 1.02595E-4
18714.843750; 1.06840E-4
18720.703125; 9.35964E-5
18726.562500; 9.10578E-5
18732.421875; 9.96576E-5
18738.281250; 9.82993E-5
18744.140625; 9.35904E-5
18750.000000; 9.74879E-5
18755.859375; 1.00759E-4
18761.718750; 9.95119E-5
18767.578125; 1.00246E-4
18773.437500; 9.76522E-5
18779.296875; 9.17205E-5
18785.156250; 1.02116E-4
18791.015625; 1.07355E-4
18796.875000; 9.56608E-5
18802.734375; 9.17848E-5
18808.593750; 9.71699E-5
18814.453125; 9.49315E-5
18820.312500; 9.73879E-5
18826.171875; 1.10898E-4
18832.031250; 9.64891E-5
18837.890625; 9.14383E-5
18843.750000; 8.91383E-5
18849.609375; 9.69420E-5
18855.468750; 9.82871E-5
18861.328125; 1.00657E-4
18867.187500; 9.17711E-5
18873.046875; 9.46376E-5
18878.906250; 9.60056E-5
18884.765625; 9.49121E-5
18890.625000; 9.86375E-5
18896.484375; 9.28103E-5
18902.343750; 9.59080E-5
18908.203125; 1.05139E-4
18914.062500; 1.08310E-4
18919.921875; 1.02445E-4
18925.781250; 1.01998E-4
18931.640625; 9.62049E-5
18937.500000; 9.08925E-5
18943.359375; 9.50184E-5
18949.218750; 8.46007E-5
18955.078125; 1.09777E-4
18960.937500; 1.10316E-4
18966.796875; 1.04566E-4
18972.656250; 9.91650E-5
18978.515625; 1.01388E-4
18984.375000; 9.64886E-5
18990.234375; 9.23892E-5
18996.093750; 9.36914E-5
19001.953125; 1.03969E-4
19007.812500; 1.08175E-4
19013.671875; 9.84044E-5
19019.531250; 9.21122E-5
19025.390625; 1.00731E-4
19031.250000; 9.24514E-5
19037.109375; 9.45182E-5
19042.968750; 1.06670E-4
19048.828125; 1.04068E-4
19054.687500; 9.91772E-5
19060.546875; 9.22981E-5
19066.406250; 8.85214E-5
19072.265625; 9.47059E-5
19078.125000; 9.24064E-5
19083.984375; 9.17790E-5
19089.843750; 9.99454E-5
19095.703125; 1.18104E-4
19101.562500; 1.20142E-4
19107.421875; 1.09595E-4
19113.281250; 1.07706E-4
19119.140625; 1.03548E-4
19125.000000; 9.91792E-5
19130.859375; 1.06940E-4
19136.718750; 1.08886E-4
19142.578125; 9.83845E-5
19148.437500; 9.88565E-5
19154.296875; 1.06907E-4
19160.156250; 1.06939E-4
19166.015625; 9.98085E-5
19171.875000; 9.32438E-5
19177.734375; 9.29764E-5
19183.593750; 1.00185E-4
19189.453125; 9.47076E-5
19195.312500; 9.18256E-5
19201.171875; 8.91914E-5
19207.031250; 9.20972E-5
19212.890625; 8.66392E-5
19218.750000; 8.71225E-5
19224.609375; 9.72484E-5
19230.468750; 9.99834E-5
19236.328125; 1.01004E-4
19242.187500; 9.41508E-5
19248.046875; 9.30541E-5
19253.906250; 9.57659E-5
19259.765625; 9.24709E-5
19265.625000; 9.09370E-5
19271.484375; 8.92961E-5
19277.343750; 9.75202E-5
19283.203125; 9.64943E-5
19289.062500; 9.63480E-5
19294.921875; 1.13789E-4
19300.781250; 1.02119E-4
19306.640625; 9.84577E-5
19312.500000; 9.33577E-5
19318.359375; 1.01566E-4
19324.218750; 1.01056E-4
19330.078125; 1.05384E-4
19335.937500; 9.76662E-5
19341.796875; 9.60823E-5
19347.656250; 9.39047E-5
19353.515625; 9.92593E-5
19359.375000; 9.62234E-5
19365.234375; 1.00054E-4
19371.093750; 1.00987E-4
19376.953125; 9.36107E-5
19382.812500; 9.57930E-5
19388.671875; 9.17791E-5
19394.531250; 8.38080E-5
19400.390625; 9.46445E-5
19406.250000; 9.65561E-5
19412.109375; 9.91661E-5
19417.968750; 9.38671E-5
19423.828125; 1.00845E-4
19429.687500; 8.92355E-5
19435.546875; 9.30714E-5
19441.406250; 8.84424E-5
19447.265625; 9.43792E-5
19453.125000; 9.79008E-5
19458.984375; 9.62619E-5
19464.843750; 9.77997E-5
19470.703125; 9.67400E-5
19476.562500; 9.70973E-5
19482.421875; 9.34474E-5
19488.281250; 9.63671E-5
19494.140625; 8.56514E-5
19500.000000; 1.03309E-4
19505.859375; 1.03137E-4
19511.718750; 8.91108E-5
19517.578125; 8.33990E-5
19523.437500; 8.99472E-5
19529.296875; 1.02679E-4
19535.156250; 9.87794E-5
19541.015625; 9.77152E-5
19546.875000; 1.01083E-4
19552.734375; 1.01101E-4
19558.593750; 8.93224E-5
19564.453125; 9.52211E-5
19570.312500; 9.80053E-5
19576.171875; 9.24356E-5
19582.031250; 8.37401E-5
19587.890625; 9.19016E-5
19593.750000; 1.04235E-4
19599.609375; 8.92531E-5
19605.468750; 9.53110E-5
19611.328125; 9.43507E-5
19617.187500; 9.75483E-5
19623.046875; 9.83158E-5
19628.906250; 9.97642E-5
19634.765625; 1.00127E-4
19640.625000; 8.88801E-5
19646.484375; 9.20440E-5
19652.343750; 9.94887E-5
19658.203125; 1.10340E-4
19664.062500; 1.04093E-4
19669.921875; 9.18784E-5
19675.781250; 9.03150E-5
19681.640625; 8.78129E-5
19687.500000; 9.15312E-5
19693.359375; 1.08597E-4
19699.218750; 9.98927E-5
19705.078125; 9.07690E-5
19710.937500; 8.79975E-5
19716.796875; 9.30426E-5
19722.656250; 1.02551E-4
19728.515625; 1.00365E-4
19734.375000; 1.03522E-4
19740.234375; 9.64982E-5
19746.093750; 9.24167E-5
19751.953125; 8.99917E-5
19757.812500; 9.26188E-5
19763.671875; 1.00396E-4
19769.531250; 1.02277E-4
19775.390625; 9.78990E-5
19781.250000; 9.31478E-5
19787.109375; 9.96471E-5
19792.968750; 9.44531E-5
19798.828125; 9.66828E-5
19804.687500; 1.01401E-4
19810.546875; 1.01790E-4
19816.406250; 1.02962E-4
19822.265625; 9.71337E-5
19828.125000; 9.08615E-5
19833.984375; 9.63315E-5
19839.843750; 1.05094E-4
19845.703125; 9.07859E-5
19851.562500; 9.78861E-5
19857.421875; 1.01401E-4
19863.281250; 9.80191E-5
19869.140625; 1.09346E-4
19875.000000; 1.06831E-4
19880.859375; 9.77812E-5
19886.718750; 9.66498E-5
19892.578125; 1.02376E-4
19898.437500; 9.99270E-5
19904.296875; 1.03210E-4
19910.156250; 9.58963E-5
19916.015625; 1.01635E-4
19921.875000; 9.29981E-5
19927.734375; 9.02676E-5
19933.593750; 9.69320E-5
19939.453125; 9.32189E-5
19945.312500; 9.10325E-5
19951.171875; 9.31598E-5
19957.031250; 8.69644E-5
19962.890625; 8.32320E-5
19968.750000; 9.13452E-5
19974.609375; 9.83903E-5
19980.468750; 9.10345E-5
19986.328125; 8.80912E-5
19992.187500; 8.77992E-5
19998.046875; 9.60229E-5
20003.906250; 9.68607E-5
20009.765625; 9.19876E-5
20015.625000; 8.87905E-5
20021.484375; 9.67712E-5
20027.343750; 9.84370E-5
20033.203125; 9.21614E-5
20039.062500; 1.00171E-4
20044.921875; 9.25586E-5
20050.781250; 8.28368E-5
20056.640625; 9.32459E-5
20062.500000; 9.90510E-5
20068.359375; 9.57868E-5
20074.218750; 9.26419E-5
20080.078125; 9.27531E-5
20085.937500; 8.79962E-5
20091.796875; 9.52500E-5
20097.656250; 9.12709E-5
20103.515625; 9.02446E-5
20109.375000; 1.06074E-4
20115.234375; 1.03596E-4
20121.093750; 9.78806E-5
20126.953125; 9.88911E-5
20132.812500; 1.03522E-4
20138.671875; 1.01992E-4
20144.531250; 9.73203E-5
20150.390625; 9.47314E-5
20156.250000; 9.46544E-5
20162.109375; 9.56489E-5
20167.968750; 9.95815E-5
20173.828125; 9.79815E-5
20179.687500; 9.32749E-5
20185.546875; 1.03880E-4
20191.406250; 1.00563E-4
20197.265625; 1.02326E-4
20203.125000; 9.65005E-5
20208.984375; 1.02263E-4
20214.843750; 1.00623E-4
20220.703125; 1.02383E-4
20226.562500; 1.05346E-4
20232.421875; 9.89197E-5
20238.281250; 9.46690E-5
20244.140625; 9.72660E-5
20250.000000; 9.86276E-5
20255.859375; 1.06206E-4
20261.718750; 1.04167E-4
20267.578125; 9.65319E-5
20273.437500; 1.09630E-4
20279.296875; 1.05283E-4
20285.156250; 9.52192E-5
20291.015625; 9.16833E-5
20296.875000; 8.65891E-5
20302.734375; 8.64602E-5
20308.593750; 8.90710E-5
20314.453125; 9.32837E-5
20320.312500; 9.09038E-5
20326.171875; 9.29180E-5
20332.031250; 1.00764E-4
20337.890625; 9.64331E-5
20343.750000; 9.10143E-5
20349.609375; 1.01785E-4
20355.468750; 9.01905E-5
20361.328125; 9.96262E-5
20367.187500; 9.58202E-5
20373.046875; 9.79458E-5
20378.906250; 1.03784E-4
20384.765625; 1.08270E-4
20390.625000; 1.03527E-4
20396.484375; 9.93434E-5
20402.343750; 1.04081E-4
20408.203125; 9.33097E-5
20414.062500; 9.21950E-5
20419.921875; 8.94960E-5
20425.781250; 9.88167E-5
20431.640625; 1.05337E-4
20437.500000; 1.00601E-4
20443.359375; 9.25108E-5
20449.218750; 9.60187E-5
20455.078125; 1.07559E-4
20460.937500; 1.02259E-4
20466.796875; 9.49889E-5
20472.656250; 9.80538E-5
20478.515625; 9.98240E-5
20484.375000; 9.12333E-5
20490.234375; 9.72460E-5
20496.093750; 1.11328E-4
20501.953125; 1.05391E-4
20507.812500; 9.69034E-5
20513.671875; 9.38425E-5
20519.531250; 9.40366E-5
20525.390625; 9.86175E-5
20531.250000; 1.05841E-4
20537.109375; 9.69601E-5
20542.968750; 9.60618E-5
20548.828125; 1.02396E-4
20554.687500; 9.41115E-5
20560.546875; 9.62749E-5
20566.406250; 9.46208E-5
20572.265625; 1.00760E-4
20578.125000; 9.30230E-5
20583.984375; 9.08377E-5
20589.843750; 9.45246E-5
20595.703125; 9.67917E-5
20601.562500; 9.27950E-5
20607.421875; 8.78988E-5
20613.281250; 9.01634E-5
20619.140625; 1.05753E-4
20625.000000; 1.09751E-4
20630.859375; 1.04881E-4
20636.718750; 9.50488E-5
20642.578125; 9.12873E-5
20648.437500; 9.90411E-5
20654.296875; 1.05514E-4
20660.156250; 1.06714E-4
20666.015625; 1.05702E-4
20671.875000; 1.01295E-4
20677.734375; 9.41065E-5
20683.593750; 9.37789E-5
20689.453125; 9.55185E-5
20695.312500; 9.03706E-5
20701.171875; 9.11684E-5
20707.031250; 9.73404E-5
20712.890625; 1.03873E-4
20718.750000; 1.02599E-4
20724.609375; 8.33866E-5
20730.468750; 7.91317E-5
20736.328125; 8.50447E-5
20742.187500; 8.50576E-5
20748.046875; 1.02254E-4
20753.906250; 1.01184E-4
20759.765625; 9.76129E-5
20765.625000; 1.01700E-4
20771.484375; 1.00533E-4
20777.343750; 8.67358E-5
20783.203125; 9.52130E-5
20789.062500; 1.02058E-4
20794.921875; 9.70220E-5
20800.781250; 9.52794E-5
20806.640625; 9.61186E-5
20812.500000; 9.56355E-5
20818.359375; 9.66995E-5
20824.218750; 9.56447E-5
20830.078125; 1.01590E-4
20835.937500; 9.72762E-5
20841.796875; 8.92339E-5
20847.656250; 8.96400E-5
20853.515625; 9.68948E-5
20859.375000; 1.01972E-4
20865.234375; 9.87754E-5
20871.093750; 9.99848E-5
20876.953125; 9.34081E-5
20882.812500; 8.94147E-5
20888.671875; 9.36186E-5
20894.531250; 9.68625E-5
20900.390625; 9.83396E-5
20906.250000; 1.10289E-4
20912.109375; 1.07251E-4
20917.968750; 1.00404E-4
20923.828125; 9.58980E-5
20929.687500; 9.39143E-5
20935.546875; 9.92445E-5
20941.406250; 9.36046E-5
20947.265625; 9.19263E-5
20953.125000; 9.85609E-5
20958.984375; 9.44664E-5
20964.843750; 9.67265E-5
20970.703125; 9.96980E-5
20976.562500; 1.04715E-4
20982.421875; 9.26504E-5
20988.281250; 9.30159E-5
20994.140625; 1.00713E-4
21000.000000; 8.89305E-5
21005.859375; 1.00332E-4
21011.718750; 1.00417E-4
21017.578125; 9.56068E-5
21023.437500; 9.21258E-5
21029.296875; 9.19695E-5
21035.156250; 9.32023E-5
21041.015625; 1.01298E-4
21046.875000; 9.29086E-5
21052.734375; 8.31605E-5
21058.593750; 9.58387E-5
21064.453125; 1.06166E-4
21070.312500; 1.03848E-4
21076.171875; 1.00526E-4
21082.031250; 1.05902E-4
21087.890625; 9.51024E-5
21093.750000; 8.81921E-5
21099.609375; 9.15313E-5
21105.468750; 1.01135E-4
21111.328125; 1.04987E-4
21117.187500; 9.73194E-5
21123.046875; 9.14139E-5
21128.906250; 9.84464E-5
21134.765625; 9.68443E-5
21140.625000; 8.99311E-5
21146.484375; 9.16731E-5
21152.343750; 9.92000E-5
21158.203125; 1.02189E-4
21164.062500; 8.84228E-5
21169.921875; 9.06818E-5
21175.781250; 9.34386E-5
21181.640625; 9.71477E-5
21187.500000; 9.05833E-5
21193.359375; 9.24848E-5
21199.218750; 1.08014E-4
21205.078125; 1.05552E-4
21210.937500; 9.43925E-5
21216.796875; 8.98764E-5
21222.656250; 9.31326E-5
21228.515625; 9.69926E-5
21234.375000; 9.97337E-5
21240.234375; 8.72948E-5
21246.093750; 1.01186E-4
21251.953125; 9.98606E-5
21257.812500; 9.92475E-5
21263.671875; 9.81404E-5
21269.531250; 9.06704E-5
21275.390625; 9.54457E-5
21281.250000; 9.75513E-5
21287.109375; 9.45968E-5
21292.968750; 9.30987E-5
21298.828125; 9.36326E-5
21304.687500; 1.05534E-4
21310.546875; 1.04905E-4
21316.406250; 9.12022E-5
21322.265625; 8.67255E-5
21328.125000; 9.25418E-5
21333.984375; 8.94733E-5
21339.843750; 8.83267E-5
21345.703125; 9.71035E-5
21351.562500; 1.06384E-4
21357.421875; 1.06087E-4
21363.281250; 8.77571E-5
21369.140625; 8.91547E-5
21375.000000; 9.68443E-5
21380.859375; 9.07961E-5
21386.718750; 9.88153E-5
21392.578125; 9.81271E-5
21398.437500; 9.84443E-5
21404.296875; 9.97479E-5
21410.156250; 1.02644E-4
21416.015625; 9.67788E-5
21421.875000; 9.34000E-5
21427.734375; 1.07839E-4
21433.593750; 1.10270E-4
21439.453125; 9.45953E-5
21445.312500; 8.51830E-5
21451.171875; 8.94383E-5
21457.031250; 9.80113E-5
21462.890625; 9.30834E-5
21468.750000; 9.62965E-5
21474.609375; 1.17031E-4
21480.468750; 1.13713E-4
21486.328125; 9.88604E-5
21492.187500; 9.22908E-5
21498.046875; 9.89258E-5
21503.906250; 9.89712E-5
21509.765625; 9.27678E-5
21515.625000; 9.22456E-5
21521.484375; 1.09128E-4
21527.343750; 1.08455E-4
21533.203125; 8.69484E-5
21539.062500; 8.79014E-5
21544.921875; 8.26748E-5
21550.781250; 7.92239E-5
21556.640625; 9.37436E-5
21562.500000; 1.00452E-4
21568.359375; 1.02070E-4
21574.218750; 1.00179E-4
21580.078125; 9.29882E-5
21585.937500; 8.40715E-5
21591.796875; 8.81556E-5
21597.656250; 9.59635E-5
21603.515625; 9.68129E-5
21609.375000; 9.45414E-5
21615.234375; 1.02626E-4
21621.093750; 1.05328E-4
21626.953125; 1.00417E-4
21632.812500; 9.70056E-5
21638.671875; 9.10331E-5
21644.531250; 9.13576E-5
21650.390625; 9.29057E-5
21656.250000; 9.11818E-5
21662.109375; 8.98323E-5
21667.968750; 9.49975E-5
21673.828125; 9.03386E-5
21679.687500; 9.89398E-5
21685.546875; 1.01725E-4
21691.406250; 8.79726E-5
21697.265625; 8.48681E-5
21703.125000; 8.84691E-5
21708.984375; 8.75866E-5
21714.843750; 9.00147E-5
21720.703125; 9.11681E-5
21726.562500; 9.66376E-5
21732.421875; 9.40800E-5
21738.281250; 8.50616E-5
21744.140625; 9.24394E-5
21750.000000; 9.57099E-5
21755.859375; 8.53778E-5
21761.718750; 8.50335E-5
21767.578125; 8.64384E-5
21773.437500; 9.32701E-5
21779.296875; 9.00615E-5
21785.156250; 8.95887E-5
21791.015625; 1.00823E-4
21796.875000; 1.05662E-4
21802.734375; 1.00769E-4
21808.593750; 9.46981E-5
21814.453125; 8.63553E-5
21820.312500; 9.18559E-5
21826.171875; 9.41846E-5
21832.031250; 9.68637E-5
21837.890625; 9.31633E-5
21843.750000; 8.98418E-5
21849.609375; 9.82697E-5
21855.468750; 9.70124E-5
21861.328125; 9.68154E-5
21867.187500; 9.36338E-5
21873.046875; 9.66345E-5
21878.906250; 9.91116E-5
21884.765625; 9.14517E-5
21890.625000; 9.59975E-5
21896.484375; 8.95837E-5
21902.343750; 9.39599E-5
21908.203125; 9.51253E-5
21914.062500; 9.06922E-5
21919.921875; 1.00219E-4
21925.781250; 9.99638E-5
21931.640625; 1.06972E-4
21937.500000; 1.09075E-4
21943.359375; 1.08918E-4
21949.218750; 1.03300E-4
21955.078125; 9.19603E-5
21960.937500; 1.02988E-4
21966.796875; 1.03180E-4
21972.656250; 9.58847E-5
21978.515625; 8.88857E-5
21984.375000; 9.02060E-5
21990.234375; 8.07899E-5
21996.093750; 9.19388E-5
22001.953125; 8.83602E-5
22007.812500; 8.95164E-5
22013.671875; 9.35149E-5
22019.531250; 9.71650E-5
22025.390625; 1.02251E-4
22031.250000; 9.24438E-5
22037.109375; 8.54326E-5
22042.968750; 9.64282E-5
22048.828125; 9.93386E-5
22054.687500; 9.63910E-5
22060.546875; 1.07393E-4
22066.406250; 1.02357E-4
22072.265625; 9.19292E-5
22078.125000; 8.67488E-5
22083.984375; 9.51348E-5
22089.843750; 9.42347E-5
22095.703125; 9.36309E-5
22101.562500; 8.69005E-5
22107.421875; 9.00921E-5
22113.281250; 9.37172E-5
22119.140625; 8.98035E-5
22125.000000; 8.54121E-5
22130.859375; 8.98085E-5
22136.718750; 9.43932E-5
22142.578125; 9.58193E-5
22148.437500; 9.65835E-5
22154.296875; 9.84591E-5
22160.156250; 9.29217E-5
22166.015625; 9.13114E-5
22171.875000; 9.55261E-5
22177.734375; 9.10178E-5
22183.593750; 9.35343E-5
22189.453125; 9.37189E-5
22195.312500; 9.01085E-5
22201.171875; 9.16252E-5
22207.031250; 9.19434E-5
22212.890625; 9.86611E-5
22218.750000; 8.66130E-5
22224.609375; 8.49545E-5
22230.468750; 9.22938E-5
22236.328125; 9.31207E-5
22242.187500; 8.68634E-5
22248.046875; 8.90101E-5
22253.906250; 9.55795E-5
22259.765625; 8.35222E-5
22265.625000; 9.04260E-5
22271.484375; 9.85333E-5
22277.343750; 9.29977E-5
22283.203125; 8.75780E-5
22289.062500; 8.42882E-5
22294.921875; 8.07791E-5
22300.781250; 9.80696E-5
22306.640625; 9.63076E-5
22312.500000; 9.35865E-5
22318.359375; 8.99657E-5
22324.218750; 9.27831E-5
22330.078125; 8.73873E-5
22335.937500; 8.06789E-5
22341.796875; 8.06516E-5
22347.656250; 8.09357E-5
22353.515625; 9.46054E-5
22359.375000; 9.42280E-5
22365.234375; 9.69627E-5
22371.093750; 9.36551E-5
22376.953125; 8.85610E-5
22382.812500; 8.28895E-5
22388.671875; 9.31579E-5
22394.531250; 9.04920E-5
22400.390625; 8.43388E-5
22406.250000; 8.76833E-5
22412.109375; 9.38384E-5
22417.968750; 9.38111E-5
22423.828125; 9.70795E-5
22429.687500; 9.52524E-5
22435.546875; 9.03962E-5
22441.406250; 9.29233E-5
22447.265625; 9.77179E-5
22453.125000; 8.71556E-5
22458.984375; 9.33328E-5
22464.843750; 1.02881E-4
22470.703125; 1.02277E-4
22476.562500; 1.12208E-4
22482.421875; 9.52893E-5
22488.281250; 9.13349E-5
22494.140625; 8.56708E-5
22500.000000; 8.31995E-5
22505.859375; 8.38122E-5
22511.718750; 8.46611E-5
22517.578125; 9.03844E-5
22523.437500; 1.05484E-4
22529.296875; 1.08979E-4
22535.156250; 8.72759E-5
22541.015625; 8.53329E-5
22546.875000; 7.58474E-5
22552.734375; 7.84954E-5
22558.593750; 8.74240E-5
22564.453125; 8.65260E-5
22570.312500; 8.77634E-5
22576.171875; 8.36670E-5
22582.031250; 8.63773E-5
22587.890625; 8.81216E-5
22593.750000; 8.09358E-5
22599.609375; 9.10547E-5
22605.468750; 9.10160E-5
22611.328125; 7.46543E-5
22617.187500; 8.16731E-5
22623.046875; 8.51102E-5
22628.906250; 8.69933E-5
22634.765625; 8.52325E-5
22640.625000; 8.50878E-5
22646.484375; 7.79759E-5
22652.343750; 8.10885E-5
22658.203125; 8.90322E-5
22664.062500; 9.48299E-5
22669.921875; 9.08313E-5
22675.781250; 8.42618E-5
22681.640625; 8.30570E-5
22687.500000; 8.38049E-5
22693.359375; 7.75044E-5
22699.218750; 7.91801E-5
22705.078125; 8.25816E-5
22710.937500; 8.28632E-5
22716.796875; 8.32997E-5
22722.656250; 9.36265E-5
22728.515625; 7.95455E-5
22734.375000; 8.35913E-5
22740.234375; 8.18642E-5
22746.093750; 8.72567E-5
22751.953125; 9.82509E-5
22757.812500; 8.29832E-5
22763.671875; 8.24856E-5
22769.531250; 7.94233E-5
22775.390625; 8.47636E-5
22781.250000; 8.39678E-5
22787.109375; 8.50604E-5
22792.968750; 8.32134E-5
22798.828125; 8.03585E-5
22804.687500; 8.67239E-5
22810.546875; 8.43294E-5
22816.406250; 8.07304E-5
22822.265625; 7.82868E-5
22828.125000; 7.33545E-5
22833.984375; 7.30257E-5
22839.843750; 7.71823E-5
22845.703125; 7.80105E-5
22851.562500; 8.31359E-5
22857.421875; 8.64380E-5
22863.281250; 9.35331E-5
22869.140625; 9.42526E-5
22875.000000; 8.75245E-5
22880.859375; 7.42042E-5
22886.718750; 7.76736E-5
22892.578125; 7.48343E-5
22898.437500; 7.44864E-5
22904.296875; 7.66329E-5
22910.156250; 6.90387E-5
22916.015625; 6.66755E-5
22921.875000; 7.45299E-5
22927.734375; 8.17176E-5
22933.593750; 8.33860E-5
22939.453125; 7.73249E-5
22945.312500; 7.42414E-5
22951.171875; 8.09152E-5
22957.031250; 6.96996E-5
22962.890625; 6.98236E-5
22968.750000; 6.83270E-5
22974.609375; 7.07525E-5
22980.468750; 8.08609E-5
22986.328125; 6.96808E-5
22992.187500; 6.70742E-5
22998.046875; 7.07922E-5
23003.906250; 7.07115E-5
23009.765625; 6.74272E-5
23015.625000; 7.00062E-5
23021.484375; 8.01699E-5
23027.343750; 6.92950E-5
23033.203125; 7.02045E-5
23039.062500; 7.41351E-5
23044.921875; 7.41511E-5
23050.781250; 7.24788E-5
23056.640625; 7.61806E-5
23062.500000; 7.37173E-5
23068.359375; 6.81042E-5
23074.218750; 7.18161E-5
23080.078125; 7.03654E-5
23085.937500; 7.31660E-5
23091.796875; 7.07991E-5
23097.656250; 8.01177E-5
23103.515625; 7.32053E-5
23109.375000; 7.24790E-5
23115.234375; 7.10298E-5
23121.093750; 6.81108E-5
23126.953125; 6.24106E-5
23132.812500; 6.90028E-5
23138.671875; 7.23081E-5
23144.531250; 6.70693E-5
23150.390625; 5.96815E-5
23156.250000; 7.16577E-5
23162.109375; 7.63355E-5
23167.968750; 6.37712E-5
23173.828125; 6.34949E-5
23179.687500; 6.76441E-5
23185.546875; 6.80814E-5
23191.406250; 6.80601E-5
23197.265625; 6.58335E-5
23203.125000; 6.86413E-5
23208.984375; 6.70223E-5
23214.843750; 6.30699E-5
23220.703125; 7.34916E-5
23226.562500; 6.53620E-5
23232.421875; 6.87465E-5
23238.281250; 6.65502E-5
23244.140625; 5.74182E-5
23250.000000; 6.12602E-5
23255.859375; 5.70123E-5
23261.718750; 5.71989E-5
23267.578125; 6.19866E-5
23273.437500; 5.82577E-5
23279.296875; 5.84840E-5
23285.156250; 6.15650E-5
23291.015625; 6.20158E-5
23296.875000; 6.39075E-5
23302.734375; 5.68825E-5
23308.593750; 5.61766E-5
23314.453125; 5.82144E-5
23320.312500; 4.87138E-5
23326.171875; 5.28077E-5
23332.031250; 5.63417E-5
23337.890625; 5.43438E-5
23343.750000; 5.14167E-5
23349.609375; 5.87398E-5
23355.468750; 6.00987E-5
23361.328125; 5.55890E-5
23367.187500; 5.36876E-5
23373.046875; 5.35837E-5
23378.906250; 5.10764E-5
23384.765625; 4.83572E-5
23390.625000; 4.95736E-5
23396.484375; 5.55034E-5
23402.343750; 5.23817E-5
23408.203125; 5.15581E-5
23414.062500; 5.42572E-5
23419.921875; 4.86986E-5
23425.781250; 4.84480E-5
23431.640625; 5.21998E-5
23437.500000; 5.01223E-5
23443.359375; 5.38496E-5
23449.218750; 4.91202E-5
23455.078125; 4.85001E-5
23460.937500; 4.87068E-5
23466.796875; 4.84006E-5
23472.656250; 5.64866E-5
23478.515625; 5.23870E-5
23484.375000; 5.05680E-5
23490.234375; 4.97045E-5
23496.093750; 4.61299E-5
23501.953125; 4.42260E-5
23507.812500; 3.79405E-5
23513.671875; 4.48628E-5
23519.531250; 4.66697E-5
23525.390625; 4.29568E-5
23531.250000; 5.15595E-5
23537.109375; 4.65039E-5
23542.968750; 4.60256E-5
23548.828125; 4.48545E-5
23554.687500; 4.21346E-5
23560.546875; 4.46536E-5
23566.406250; 4.51288E-5
23572.265625; 4.12038E-5
23578.125000; 4.22790E-5
23583.984375; 4.67117E-5
23589.843750; 4.74480E-5
23595.703125; 4.44482E-5
23601.562500; 4.49223E-5
23607.421875; 4.33315E-5
23613.281250; 4.44991E-5
23619.140625; 4.36261E-5
23625.000000; 4.63453E-5
23630.859375; 4.30194E-5
23636.718750; 4.04867E-5
23642.578125; 4.05443E-5
23648.437500; 4.31921E-5
23654.296875; 4.43631E-5
23660.156250; 4.35370E-5
23666.015625; 4.34412E-5
23671.875000; 4.00382E-5
23677.734375; 4.25094E-5
23683.593750; 4.24878E-5
23689.453125; 3.79565E-5
23695.312500; 4.03404E-5
23701.171875; 4.06557E-5
23707.031250; 3.98238E-5
23712.890625; 3.82588E-5
23718.750000; 3.85848E-5
23724.609375; 3.76064E-5
23730.468750; 3.73383E-5
23736.328125; 3.80367E-5
23742.187500; 4.02459E-5
23748.046875; 3.78727E-5
23753.906250; 3.83272E-5
23759.765625; 3.70990E-5
23765.625000; 3.97191E-5
23771.484375; 3.92351E-5
23777.343750; 3.72837E-5
23783.203125; 3.97092E-5
23789.062500; 3.32334E-5
23794.921875; 3.34802E-5
23800.781250; 3.44911E-5
23806.640625; 3.29008E-5
23812.500000; 3.15808E-5
23818.359375; 3.43720E-5
23824.218750; 3.57181E-5
23830.078125; 3.51753E-5
23835.937500; 3.50180E-5
23841.796875; 3.42835E-5
23847.656250; 3.52484E-5
23853.515625; 3.69379E-5
23859.375000; 3.73563E-5
23865.234375; 3.65841E-5
23871.093750; 3.63493E-5
23876.953125; 3.95201E-5
23882.812500; 3.88708E-5
23888.671875; 3.79099E-5
23894.531250; 3.62629E-5
23900.390625; 3.72778E-5
23906.250000; 3.43978E-5
23912.109375; 3.53451E-5
23917.968750; 3.62345E-5
23923.828125; 3.40919E-5
23929.687500; 3.43150E-5
23935.546875; 3.52951E-5
23941.406250; 3.42150E-5
23947.265625; 3.53793E-5
23953.125000; 3.81896E-5
23958.984375; 3.57178E-5
23964.843750; 3.38036E-5
23970.703125; 3.11638E-5
23976.562500; 3.24020E-5
23982.421875; 3.23066E-5
23988.281250; 3.42155E-5
23994.140625; 3.47397E-5
