* Measurement data measured by REW V5.31.3
* Source: PCM: default, no input selected, 2, volume: no control
* Format: 8192-point spectrum using Hann window and exponential averaging 0.97 
* Dated: Mar 9, 2025 12:49:35 PM
* REW Settings:
*  C-weighting compensation: Off
*  Target level: 75.0 dB
* Note: OSDEHA ANODE-OUTPUT; 8192-point spectrum using Hann window and exponential averaging 0.97  Input RMS 56.18 V 56.18 VC, 56.18 VA 56.18 V 22 - 22k UNW 885.2 uV >22k Distortion at 1,000.0 Hz, -5.01 dBFS: Gain: 29.34 dB THD: 0.032 % based on 21 harmonics  [0..22800 Hz] HHD: 0.00066 %  [10 .. 22] N: 0.023 %  [0..22800 Hz] N+D: 21.03 mV A THD+N: 0.039 %  [0..22800 Hz] SNR: 72.9 dB ENOB: 12.4 bits 2nd harmonic 0.031 % -135 deg 3rd harmonic 0.0074 % -132 deg 4th harmonic 0.0030 % 156 deg 5th harmonic 0.0021 % -25 deg 6th harmonic 0.00075 % 142 deg 7th harmonic 0.00034 % -2 deg 8th harmonic 0.00023 % 85 deg 9th harmonic 0.00022 % 54 deg 
* Measurement: OSDEHA A-OUT 56.2
* Smoothing: None
* Frequency Step: 5.859375 Hz
* Start Frequency: 5.859375 Hz
*
* Freq(Hz); V(V)
5.859375; 2.66366E-4
11.718750; 2.89496E-4
17.578125; 2.39447E-4
23.437500; 2.10086E-4
29.296875; 1.81397E-4
35.156250; 1.76703E-4
41.015625; 1.77210E-4
46.875000; 3.92256E-4
52.734375; 3.97983E-4
58.593750; 1.62989E-4
64.453125; 1.58815E-4
70.312500; 1.43200E-4
76.171875; 1.38713E-4
82.031250; 1.36931E-4
87.890625; 1.69792E-4
93.750000; 5.18549E-3
99.609375; 1.14235E-2
105.468750; 6.26857E-3
111.328125; 2.01119E-4
117.187500; 1.38379E-4
123.046875; 1.38573E-4
128.906250; 1.31942E-4
134.765625; 1.34768E-4
140.625000; 1.32791E-4
146.484375; 1.58023E-4
152.343750; 1.56717E-4
158.203125; 1.20026E-4
164.062500; 1.32213E-4
169.921875; 1.43668E-4
175.781250; 1.24222E-4
181.640625; 1.30728E-4
187.500000; 1.39524E-4
193.359375; 6.15998E-4
199.218750; 1.47681E-3
205.078125; 8.92990E-4
210.937500; 1.39115E-4
216.796875; 1.14600E-4
222.656250; 1.13357E-4
228.515625; 1.30297E-4
234.375000; 1.23572E-4
240.234375; 1.28593E-4
246.093750; 1.53452E-4
251.953125; 1.59673E-4
257.812500; 1.17281E-4
263.671875; 1.23697E-4
269.531250; 1.21249E-4
275.390625; 1.22467E-4
281.250000; 1.20726E-4
287.109375; 1.10873E-4
292.968750; 1.42260E-4
298.828125; 2.39735E-4
304.687500; 1.82607E-4
310.546875; 1.03149E-4
316.406250; 1.10113E-4
322.265625; 1.01455E-4
328.125000; 1.01369E-4
333.984375; 1.06665E-4
339.843750; 1.04831E-4
345.703125; 1.52356E-4
351.562500; 1.86514E-4
357.421875; 1.21367E-4
363.281250; 1.11392E-4
369.140625; 1.04734E-4
375.000000; 9.83818E-5
380.859375; 1.03372E-4
386.718750; 1.12793E-4
392.578125; 1.74839E-4
398.437500; 4.28150E-4
404.296875; 3.23599E-4
410.156250; 1.17440E-4
416.015625; 9.63686E-5
421.875000; 1.02308E-4
427.734375; 1.12840E-4
433.593750; 1.31047E-4
439.453125; 1.26503E-4
445.312500; 1.26434E-4
451.171875; 1.53335E-4
457.031250; 1.34558E-4
462.890625; 1.16004E-4
468.750000; 1.18500E-4
474.609375; 1.14088E-4
480.468750; 1.02789E-4
486.328125; 1.03578E-4
492.187500; 1.36307E-4
498.046875; 3.04198E-4
503.906250; 2.53573E-4
509.765625; 1.14102E-4
515.625000; 1.08854E-4
521.484375; 1.21628E-4
527.343750; 1.28558E-4
533.203125; 1.27572E-4
539.062500; 1.13265E-4
544.921875; 1.09076E-4
550.781250; 1.32914E-4
556.640625; 1.10961E-4
562.500000; 1.25620E-4
568.359375; 1.17517E-4
574.218750; 1.10382E-4
580.078125; 1.20380E-4
585.937500; 1.21100E-4
591.796875; 1.34838E-4
597.656250; 1.39977E-4
603.515625; 1.29783E-4
609.375000; 1.24806E-4
615.234375; 1.24706E-4
621.093750; 1.19218E-4
626.953125; 1.22001E-4
632.812500; 1.45692E-4
638.671875; 1.15298E-4
644.531250; 1.40575E-4
650.390625; 1.59207E-4
656.250000; 1.23053E-4
662.109375; 1.39906E-4
667.968750; 1.38466E-4
673.828125; 1.39439E-4
679.687500; 1.57042E-4
685.546875; 1.49586E-4
691.406250; 1.53891E-4
697.265625; 2.36209E-4
703.125000; 2.18144E-4
708.984375; 1.75931E-4
714.843750; 1.58055E-4
720.703125; 1.79817E-4
726.562500; 1.98666E-4
732.421875; 1.94345E-4
738.281250; 1.93063E-4
744.140625; 2.43144E-4
750.000000; 2.23702E-4
755.859375; 2.46642E-4
761.718750; 2.53080E-4
767.578125; 2.86289E-4
773.437500; 2.94013E-4
779.296875; 3.09217E-4
785.156250; 3.30116E-4
791.015625; 3.61462E-4
796.875000; 3.83222E-4
802.734375; 4.31718E-4
808.593750; 4.75974E-4
814.453125; 4.86561E-4
820.312500; 5.55806E-4
826.171875; 6.11535E-4
832.031250; 6.56610E-4
837.890625; 7.47072E-4
843.750000; 8.26256E-4
849.609375; 9.24913E-4
855.468750; 1.04118E-3
861.328125; 1.18181E-3
867.187500; 1.32498E-3
873.046875; 1.54526E-3
878.906250; 1.74765E-3
884.765625; 2.04259E-3
890.625000; 2.39478E-3
896.484375; 2.81868E-3
902.343750; 3.36465E-3
908.203125; 4.05823E-3
914.062500; 4.91930E-3
919.921875; 6.10942E-3
925.781250; 7.65739E-3
931.640625; 9.83517E-3
937.500000; 1.28695E-2
943.359375; 1.73336E-2
949.218750; 2.41103E-2
955.078125; 3.49649E-2
960.937500; 5.34679E-2
966.796875; 8.78412E-2
972.656250; 1.59718E-1
978.515625; 3.39410E-1
984.375000; 9.50308E-1
990.234375; 5.22679E0
996.093750; 4.18142E1
1001.953125; 5.22677E1
1007.812500; 1.49336E1
1013.671875; 1.49336E0
1019.531250; 4.59494E-1
1025.390625; 2.01034E-1
1031.250000; 1.05809E-1
1037.109375; 6.25143E-2
1042.968750; 4.00136E-2
1048.828125; 2.71610E-2
1054.687500; 1.92535E-2
1060.546875; 1.41853E-2
1066.406250; 1.07117E-2
1072.265625; 8.31830E-3
1078.125000; 6.56744E-3
1083.984375; 5.28575E-3
1089.843750; 4.32380E-3
1095.703125; 3.56306E-3
1101.562500; 2.98915E-3
1107.421875; 2.52121E-3
1113.281250; 2.15568E-3
1119.140625; 1.85688E-3
1125.000000; 1.58721E-3
1130.859375; 1.40961E-3
1136.718750; 1.22587E-3
1142.578125; 1.08538E-3
1148.437500; 9.41838E-4
1154.296875; 8.70820E-4
1160.156250; 7.63269E-4
1166.015625; 6.98156E-4
1171.875000; 6.17154E-4
1177.734375; 5.62435E-4
1183.593750; 5.13237E-4
1189.453125; 4.78555E-4
1195.312500; 4.37959E-4
1201.171875; 3.94539E-4
1207.031250; 3.70460E-4
1212.890625; 3.55113E-4
1218.750000; 3.21955E-4
1224.609375; 2.90384E-4
1230.468750; 2.70081E-4
1236.328125; 2.61283E-4
1242.187500; 2.49701E-4
1248.046875; 2.28422E-4
1253.906250; 2.28505E-4
1259.765625; 2.00903E-4
1265.625000; 2.06029E-4
1271.484375; 1.87745E-4
1277.343750; 1.79892E-4
1283.203125; 1.67861E-4
1289.062500; 1.73595E-4
1294.921875; 1.71094E-4
1300.781250; 1.58779E-4
1306.640625; 1.38076E-4
1312.500000; 1.66690E-4
1318.359375; 1.39126E-4
1324.218750; 1.52851E-4
1330.078125; 1.44363E-4
1335.937500; 1.35756E-4
1341.796875; 1.39078E-4
1347.656250; 1.39363E-4
1353.515625; 1.34440E-4
1359.375000; 1.13944E-4
1365.234375; 1.31963E-4
1371.093750; 1.34093E-4
1376.953125; 1.25178E-4
1382.812500; 1.16369E-4
1388.671875; 1.09478E-4
1394.531250; 1.23062E-4
1400.390625; 1.18402E-4
1406.250000; 1.12930E-4
1412.109375; 9.79854E-5
1417.968750; 1.20407E-4
1423.828125; 1.16330E-4
1429.687500; 1.13388E-4
1435.546875; 1.19068E-4
1441.406250; 1.16881E-4
1447.265625; 1.17459E-4
1453.125000; 1.28227E-4
1458.984375; 1.10731E-4
1464.843750; 1.24369E-4
1470.703125; 1.22795E-4
1476.562500; 1.01792E-4
1482.421875; 1.04709E-4
1488.281250; 1.07914E-4
1494.140625; 1.04311E-4
1500.000000; 1.07802E-4
1505.859375; 1.08088E-4
1511.718750; 1.11614E-4
1517.578125; 1.24144E-4
1523.437500; 1.24092E-4
1529.296875; 1.12899E-4
1535.156250; 1.07963E-4
1541.015625; 1.08800E-4
1546.875000; 1.09290E-4
1552.734375; 1.18112E-4
1558.593750; 1.02165E-4
1564.453125; 1.09325E-4
1570.312500; 1.07200E-4
1576.171875; 1.11310E-4
1582.031250; 1.16648E-4
1587.890625; 1.23074E-4
1593.750000; 1.23577E-4
1599.609375; 1.22223E-4
1605.468750; 1.19142E-4
1611.328125; 1.11658E-4
1617.187500; 1.08967E-4
1623.046875; 1.06540E-4
1628.906250; 1.04618E-4
1634.765625; 1.07482E-4
1640.625000; 1.05355E-4
1646.484375; 9.92295E-5
1652.343750; 9.59916E-5
1658.203125; 1.00612E-4
1664.062500; 1.00230E-4
1669.921875; 1.03101E-4
1675.781250; 1.02970E-4
1681.640625; 9.51304E-5
1687.500000; 9.72818E-5
1693.359375; 1.11151E-4
1699.218750; 1.16560E-4
1705.078125; 1.00126E-4
1710.937500; 1.00957E-4
1716.796875; 1.10799E-4
1722.656250; 1.13800E-4
1728.515625; 1.12564E-4
1734.375000; 1.04248E-4
1740.234375; 1.10665E-4
1746.093750; 1.20023E-4
1751.953125; 1.23715E-4
1757.812500; 1.15635E-4
1763.671875; 1.11527E-4
1769.531250; 1.18591E-4
1775.390625; 1.18105E-4
1781.250000; 1.14104E-4
1787.109375; 1.05700E-4
1792.968750; 1.15176E-4
1798.828125; 1.16405E-4
1804.687500; 1.00211E-4
1810.546875; 1.03320E-4
1816.406250; 1.03744E-4
1822.265625; 1.06616E-4
1828.125000; 1.11834E-4
1833.984375; 1.07231E-4
1839.843750; 1.01593E-4
1845.703125; 1.13550E-4
1851.562500; 1.12480E-4
1857.421875; 1.08992E-4
1863.281250; 1.19431E-4
1869.140625; 1.06970E-4
1875.000000; 9.81926E-5
1880.859375; 1.06855E-4
1886.718750; 1.07172E-4
1892.578125; 1.20419E-4
1898.437500; 1.29371E-4
1904.296875; 1.20206E-4
1910.156250; 1.07764E-4
1916.015625; 1.07735E-4
1921.875000; 1.04523E-4
1927.734375; 1.08651E-4
1933.593750; 1.10138E-4
1939.453125; 1.09684E-4
1945.312500; 1.08760E-4
1951.171875; 1.04898E-4
1957.031250; 1.09492E-4
1962.890625; 1.17747E-4
1968.750000; 1.06684E-4
1974.609375; 1.14507E-4
1980.468750; 1.72656E-4
1986.328125; 4.74289E-4
1992.187500; 4.60784E-3
1998.046875; 1.61373E-2
2003.906250; 1.29147E-2
2009.765625; 1.62734E-3
2015.625000; 3.02272E-4
2021.484375; 1.48950E-4
2027.343750; 1.22362E-4
2033.203125; 1.08109E-4
2039.062500; 1.02232E-4
2044.921875; 1.06085E-4
2050.781250; 1.04878E-4
2056.640625; 1.07956E-4
2062.500000; 1.04497E-4
2068.359375; 1.08420E-4
2074.218750; 1.02563E-4
2080.078125; 1.01433E-4
2085.937500; 1.09218E-4
2091.796875; 1.08982E-4
2097.656250; 1.06772E-4
2103.515625; 1.04368E-4
2109.375000; 1.20538E-4
2115.234375; 1.11421E-4
2121.093750; 1.20066E-4
2126.953125; 1.14568E-4
2132.812500; 1.09257E-4
2138.671875; 1.11316E-4
2144.531250; 1.08232E-4
2150.390625; 1.16557E-4
2156.250000; 1.11472E-4
2162.109375; 9.77868E-5
2167.968750; 1.00045E-4
2173.828125; 1.05692E-4
2179.687500; 1.06635E-4
2185.546875; 1.15750E-4
2191.406250; 1.17240E-4
2197.265625; 1.12543E-4
2203.125000; 1.09917E-4
2208.984375; 1.05344E-4
2214.843750; 1.11138E-4
2220.703125; 1.02784E-4
2226.562500; 1.07031E-4
2232.421875; 1.17307E-4
2238.281250; 1.13895E-4
2244.140625; 1.09050E-4
2250.000000; 1.09068E-4
2255.859375; 9.96997E-5
2261.718750; 1.00849E-4
2267.578125; 1.01562E-4
2273.437500; 9.52981E-5
2279.296875; 1.00642E-4
2285.156250; 1.17432E-4
2291.015625; 1.14978E-4
2296.875000; 1.04412E-4
2302.734375; 1.09680E-4
2308.593750; 1.03389E-4
2314.453125; 9.96508E-5
2320.312500; 1.06414E-4
2326.171875; 1.01199E-4
2332.031250; 9.34451E-5
2337.890625; 1.01474E-4
2343.750000; 1.06837E-4
2349.609375; 1.14734E-4
2355.468750; 1.08347E-4
2361.328125; 1.07000E-4
2367.187500; 1.09498E-4
2373.046875; 1.09990E-4
2378.906250; 1.06033E-4
2384.765625; 1.00318E-4
2390.625000; 9.49610E-5
2396.484375; 1.08913E-4
2402.343750; 1.01345E-4
2408.203125; 1.03502E-4
2414.062500; 1.03129E-4
2419.921875; 1.04665E-4
2425.781250; 1.10132E-4
2431.640625; 1.02160E-4
2437.500000; 1.04842E-4
2443.359375; 1.10138E-4
2449.218750; 1.02554E-4
2455.078125; 9.39835E-5
2460.937500; 9.99697E-5
2466.796875; 1.01878E-4
2472.656250; 1.08229E-4
2478.515625; 1.20898E-4
2484.375000; 1.13454E-4
2490.234375; 1.05430E-4
2496.093750; 9.89588E-5
2501.953125; 1.10296E-4
2507.812500; 1.08797E-4
2513.671875; 1.07233E-4
2519.531250; 1.09544E-4
2525.390625; 1.10359E-4
2531.250000; 1.06582E-4
2537.109375; 9.69548E-5
2542.968750; 9.29076E-5
2548.828125; 1.02889E-4
2554.687500; 1.23518E-4
2560.546875; 1.18400E-4
2566.406250; 1.11681E-4
2572.265625; 1.10659E-4
2578.125000; 1.05766E-4
2583.984375; 1.05030E-4
2589.843750; 1.00670E-4
2595.703125; 1.04236E-4
2601.562500; 1.08387E-4
2607.421875; 1.00195E-4
2613.281250; 1.08409E-4
2619.140625; 1.06920E-4
2625.000000; 1.04209E-4
2630.859375; 1.14029E-4
2636.718750; 1.22128E-4
2642.578125; 1.13553E-4
2648.437500; 1.09459E-4
2654.296875; 1.07096E-4
2660.156250; 1.08733E-4
2666.015625; 1.00993E-4
2671.875000; 9.03466E-5
2677.734375; 1.03290E-4
2683.593750; 1.16058E-4
2689.453125; 1.21006E-4
2695.312500; 1.17250E-4
2701.171875; 1.13976E-4
2707.031250; 1.17659E-4
2712.890625; 1.06030E-4
2718.750000; 1.04777E-4
2724.609375; 1.04989E-4
2730.468750; 1.12848E-4
2736.328125; 1.05114E-4
2742.187500; 1.04000E-4
2748.046875; 1.19945E-4
2753.906250; 1.15593E-4
2759.765625; 1.12191E-4
2765.625000; 1.13491E-4
2771.484375; 1.02153E-4
2777.343750; 1.01890E-4
2783.203125; 1.05236E-4
2789.062500; 1.07398E-4
2794.921875; 1.06286E-4
2800.781250; 1.06035E-4
2806.640625; 1.03693E-4
2812.500000; 1.13471E-4
2818.359375; 1.12638E-4
2824.218750; 9.99981E-5
2830.078125; 8.95889E-5
2835.937500; 1.04191E-4
2841.796875; 1.15424E-4
2847.656250; 1.09149E-4
2853.515625; 9.85200E-5
2859.375000; 1.00982E-4
2865.234375; 1.05283E-4
2871.093750; 1.14035E-4
2876.953125; 1.08597E-4
2882.812500; 1.00573E-4
2888.671875; 1.05219E-4
2894.531250; 1.05759E-4
2900.390625; 1.09166E-4
2906.250000; 1.02719E-4
2912.109375; 1.08824E-4
2917.968750; 9.65408E-5
2923.828125; 9.60755E-5
2929.687500; 1.06978E-4
2935.546875; 1.12271E-4
2941.406250; 1.09478E-4
2947.265625; 1.11582E-4
2953.125000; 1.09481E-4
2958.984375; 1.05053E-4
2964.843750; 1.04896E-4
2970.703125; 1.07688E-4
2976.562500; 1.03697E-4
2982.421875; 1.04569E-4
2988.281250; 9.87065E-5
2994.140625; 2.06612E-3
3000.000000; 4.12563E-3
3005.859375; 2.06485E-3
3011.718750; 9.48824E-5
3017.578125; 9.17531E-5
3023.437500; 1.08042E-4
3029.296875; 1.18939E-4
3035.156250; 1.16627E-4
3041.015625; 1.09753E-4
3046.875000; 9.93999E-5
3052.734375; 1.05047E-4
3058.593750; 1.02840E-4
3064.453125; 9.07260E-5
3070.312500; 1.04662E-4
3076.171875; 1.07863E-4
3082.031250; 1.18978E-4
3087.890625; 1.19348E-4
3093.750000; 1.22444E-4
3099.609375; 1.13546E-4
3105.468750; 1.07044E-4
3111.328125; 1.15571E-4
3117.187500; 1.04567E-4
3123.046875; 1.06473E-4
3128.906250; 1.06370E-4
3134.765625; 1.01162E-4
3140.625000; 9.91404E-5
3146.484375; 9.63034E-5
3152.343750; 9.82714E-5
3158.203125; 1.09036E-4
3164.062500; 1.26181E-4
3169.921875; 1.15202E-4
3175.781250; 1.15395E-4
3181.640625; 1.11760E-4
3187.500000; 1.09311E-4
3193.359375; 1.12752E-4
3199.218750; 1.05032E-4
3205.078125; 9.07445E-5
3210.937500; 9.38626E-5
3216.796875; 1.09512E-4
3222.656250; 1.10753E-4
3228.515625; 1.10171E-4
3234.375000; 1.10579E-4
3240.234375; 1.05203E-4
3246.093750; 1.02093E-4
3251.953125; 1.07796E-4
3257.812500; 1.09183E-4
3263.671875; 1.05189E-4
3269.531250; 1.07942E-4
3275.390625; 1.02351E-4
3281.250000; 1.11882E-4
3287.109375; 1.14578E-4
3292.968750; 1.09644E-4
3298.828125; 1.01470E-4
3304.687500; 9.36359E-5
3310.546875; 9.53681E-5
3316.406250; 9.72862E-5
3322.265625; 1.01960E-4
3328.125000; 1.01948E-4
3333.984375; 8.84666E-5
3339.843750; 9.93143E-5
3345.703125; 1.18508E-4
3351.562500; 1.11535E-4
3357.421875; 1.09329E-4
3363.281250; 9.44940E-5
3369.140625; 1.06343E-4
3375.000000; 1.12209E-4
3380.859375; 1.08778E-4
3386.718750; 1.03412E-4
3392.578125; 1.07065E-4
3398.437500; 1.27101E-4
3404.296875; 1.17020E-4
3410.156250; 1.20426E-4
3416.015625; 1.16881E-4
3421.875000; 1.16748E-4
3427.734375; 1.06627E-4
3433.593750; 9.28555E-5
3439.453125; 8.78950E-5
3445.312500; 9.25408E-5
3451.171875; 9.92096E-5
3457.031250; 1.10953E-4
3462.890625; 1.07759E-4
3468.750000; 1.00667E-4
3474.609375; 9.96039E-5
3480.468750; 9.47958E-5
3486.328125; 1.06542E-4
3492.187500; 1.15688E-4
3498.046875; 1.11061E-4
3503.906250; 1.01301E-4
3509.765625; 1.00873E-4
3515.625000; 9.79837E-5
3521.484375; 9.33831E-5
3527.343750; 9.77134E-5
3533.203125; 1.02932E-4
3539.062500; 9.95688E-5
3544.921875; 1.07828E-4
3550.781250; 1.09047E-4
3556.640625; 9.74936E-5
3562.500000; 9.98847E-5
3568.359375; 1.05393E-4
3574.218750; 1.09893E-4
3580.078125; 1.10054E-4
3585.937500; 9.86669E-5
3591.796875; 9.80519E-5
3597.656250; 1.14519E-4
3603.515625; 1.01681E-4
3609.375000; 1.00988E-4
3615.234375; 1.08976E-4
3621.093750; 1.12313E-4
3626.953125; 1.03764E-4
3632.812500; 1.01531E-4
3638.671875; 9.06215E-5
3644.531250; 9.63160E-5
3650.390625; 9.13051E-5
3656.250000; 1.01083E-4
3662.109375; 1.03299E-4
3667.968750; 1.03086E-4
3673.828125; 1.03114E-4
3679.687500; 1.09734E-4
3685.546875; 1.10501E-4
3691.406250; 1.08447E-4
3697.265625; 1.07813E-4
3703.125000; 1.03926E-4
3708.984375; 9.88443E-5
3714.843750; 9.68133E-5
3720.703125; 1.02168E-4
3726.562500; 9.74770E-5
3732.421875; 1.03481E-4
3738.281250; 1.02294E-4
3744.140625; 1.06342E-4
3750.000000; 1.16460E-4
3755.859375; 1.10410E-4
3761.718750; 1.08747E-4
3767.578125; 1.05469E-4
3773.437500; 9.85187E-5
3779.296875; 1.01179E-4
3785.156250; 9.67787E-5
3791.015625; 9.45585E-5
3796.875000; 1.03115E-4
3802.734375; 1.13125E-4
3808.593750; 1.07635E-4
3814.453125; 1.06123E-4
3820.312500; 1.14026E-4
3826.171875; 1.09246E-4
3832.031250; 1.02851E-4
3837.890625; 1.05485E-4
3843.750000; 9.46766E-5
3849.609375; 9.45146E-5
3855.468750; 1.01930E-4
3861.328125; 1.05614E-4
3867.187500; 9.76007E-5
3873.046875; 1.08929E-4
3878.906250; 1.11409E-4
3884.765625; 1.11416E-4
3890.625000; 1.09606E-4
3896.484375; 1.13088E-4
3902.343750; 1.05157E-4
3908.203125; 1.06494E-4
3914.062500; 9.54892E-5
3919.921875; 9.23926E-5
3925.781250; 1.00900E-4
3931.640625; 9.60757E-5
3937.500000; 1.06875E-4
3943.359375; 1.12652E-4
3949.218750; 1.13675E-4
3955.078125; 1.05199E-4
3960.937500; 9.99280E-5
3966.796875; 1.10864E-4
3972.656250; 1.11515E-4
3978.515625; 1.11730E-4
3984.375000; 1.18141E-4
3990.234375; 2.03461E-4
3996.093750; 1.24566E-3
4001.953125; 1.53848E-3
4007.812500; 4.47532E-4
4013.671875; 1.20188E-4
4019.531250; 1.11190E-4
4025.390625; 1.01352E-4
4031.250000; 1.03050E-4
4037.109375; 9.92815E-5
4042.968750; 1.03677E-4
4048.828125; 9.65095E-5
4054.687500; 9.39270E-5
4060.546875; 9.83377E-5
4066.406250; 9.95427E-5
4072.265625; 1.01050E-4
4078.125000; 1.06936E-4
4083.984375; 1.09989E-4
4089.843750; 1.07271E-4
4095.703125; 1.14035E-4
4101.562500; 1.00862E-4
4107.421875; 1.02112E-4
4113.281250; 1.00861E-4
4119.140625; 1.02942E-4
4125.000000; 9.69739E-5
4130.859375; 1.00923E-4
4136.718750; 1.12740E-4
4142.578125; 1.14767E-4
4148.437500; 9.39821E-5
4154.296875; 1.07706E-4
4160.156250; 1.20517E-4
4166.015625; 1.11273E-4
4171.875000; 9.59621E-5
4177.734375; 1.01129E-4
4183.593750; 1.07790E-4
4189.453125; 1.15474E-4
4195.312500; 1.15526E-4
4201.171875; 1.12545E-4
4207.031250; 1.04149E-4
4212.890625; 1.01629E-4
4218.750000; 1.12902E-4
4224.609375; 1.03591E-4
4230.468750; 9.98302E-5
4236.328125; 1.09196E-4
4242.187500; 1.04621E-4
4248.046875; 1.15899E-4
4253.906250; 9.81501E-5
4259.765625; 1.13531E-4
4265.625000; 1.19681E-4
4271.484375; 1.06989E-4
4277.343750; 9.57395E-5
4283.203125; 9.29409E-5
4289.062500; 9.84917E-5
4294.921875; 1.09402E-4
4300.781250; 1.11951E-4
4306.640625; 1.16000E-4
4312.500000; 1.20708E-4
4318.359375; 1.04788E-4
4324.218750; 1.06190E-4
4330.078125; 1.06207E-4
4335.937500; 1.07940E-4
4341.796875; 9.93540E-5
4347.656250; 1.04779E-4
4353.515625; 1.00660E-4
4359.375000; 1.02382E-4
4365.234375; 1.14885E-4
4371.093750; 1.08689E-4
4376.953125; 1.09047E-4
4382.812500; 1.09010E-4
4388.671875; 1.01277E-4
4394.531250; 9.73554E-5
4400.390625; 9.99687E-5
4406.250000; 1.05179E-4
4412.109375; 1.09460E-4
4417.968750; 1.08062E-4
4423.828125; 1.02541E-4
4429.687500; 9.87190E-5
4435.546875; 9.49806E-5
4441.406250; 1.01603E-4
4447.265625; 1.06950E-4
4453.125000; 1.00363E-4
4458.984375; 1.01946E-4
4464.843750; 1.14611E-4
4470.703125; 9.97822E-5
4476.562500; 9.46959E-5
4482.421875; 1.14154E-4
4488.281250; 1.19233E-4
4494.140625; 9.97273E-5
4500.000000; 9.86724E-5
4505.859375; 1.11790E-4
4511.718750; 1.14099E-4
4517.578125; 1.05754E-4
4523.437500; 1.01540E-4
4529.296875; 1.04511E-4
4535.156250; 1.00732E-4
4541.015625; 1.00272E-4
4546.875000; 1.05349E-4
4552.734375; 1.07503E-4
4558.593750; 1.04591E-4
4564.453125; 1.01249E-4
4570.312500; 1.07169E-4
4576.171875; 1.09731E-4
4582.031250; 9.53866E-5
4587.890625; 9.62298E-5
4593.750000; 1.04914E-4
4599.609375; 1.09189E-4
4605.468750; 1.13399E-4
4611.328125; 1.11072E-4
4617.187500; 1.05755E-4
4623.046875; 1.05039E-4
4628.906250; 1.06098E-4
4634.765625; 1.03401E-4
4640.625000; 9.42252E-5
4646.484375; 1.12504E-4
4652.343750; 1.13370E-4
4658.203125; 1.04125E-4
4664.062500; 1.01510E-4
4669.921875; 1.06707E-4
4675.781250; 1.10231E-4
4681.640625; 9.89017E-5
4687.500000; 9.44435E-5
4693.359375; 1.09985E-4
4699.218750; 1.11352E-4
4705.078125; 1.06838E-4
4710.937500; 1.10584E-4
4716.796875; 1.03167E-4
4722.656250; 9.56705E-5
4728.515625; 9.63667E-5
4734.375000; 9.62867E-5
4740.234375; 9.71988E-5
4746.093750; 1.09290E-4
4751.953125; 1.14418E-4
4757.812500; 1.00089E-4
4763.671875; 1.01086E-4
4769.531250; 1.08672E-4
4775.390625; 1.05945E-4
4781.250000; 9.41066E-5
4787.109375; 9.93735E-5
4792.968750; 1.03174E-4
4798.828125; 1.03183E-4
4804.687500; 1.02808E-4
4810.546875; 1.07478E-4
4816.406250; 1.11932E-4
4822.265625; 1.07439E-4
4828.125000; 9.29476E-5
4833.984375; 9.54378E-5
4839.843750; 1.03382E-4
4845.703125; 1.02557E-4
4851.562500; 1.01843E-4
4857.421875; 1.04123E-4
4863.281250; 1.13846E-4
4869.140625; 1.19658E-4
4875.000000; 9.98267E-5
4880.859375; 9.42754E-5
4886.718750; 9.41653E-5
4892.578125; 9.59058E-5
4898.437500; 9.90668E-5
4904.296875; 9.96184E-5
4910.156250; 1.08609E-4
4916.015625; 1.02084E-4
4921.875000; 9.72725E-5
4927.734375; 1.03399E-4
4933.593750; 1.00925E-4
4939.453125; 9.74513E-5
4945.312500; 9.63791E-5
4951.171875; 1.09821E-4
4957.031250; 1.05135E-4
4962.890625; 1.11298E-4
4968.750000; 1.04778E-4
4974.609375; 9.75498E-5
4980.468750; 9.76658E-5
4986.328125; 1.00639E-4
4992.187500; 3.35210E-4
4998.046875; 1.09996E-3
5003.906250; 8.71810E-4
5009.765625; 1.48864E-4
5015.625000; 1.06054E-4
5021.484375; 1.01767E-4
5027.343750; 1.12719E-4
5033.203125; 1.08251E-4
5039.062500; 1.02063E-4
5044.921875; 9.86024E-5
5050.781250; 1.02542E-4
5056.640625; 1.03583E-4
5062.500000; 1.00407E-4
5068.359375; 9.86809E-5
5074.218750; 1.01929E-4
5080.078125; 1.01676E-4
5085.937500; 1.02961E-4
5091.796875; 1.09477E-4
5097.656250; 1.02545E-4
5103.515625; 1.06569E-4
5109.375000; 1.10230E-4
5115.234375; 1.04121E-4
5121.093750; 1.07334E-4
5126.953125; 1.05113E-4
5132.812500; 1.11668E-4
5138.671875; 1.10441E-4
5144.531250; 1.08866E-4
5150.390625; 1.18510E-4
5156.250000; 1.12759E-4
5162.109375; 1.02362E-4
5167.968750; 1.12238E-4
5173.828125; 1.05075E-4
5179.687500; 1.01027E-4
5185.546875; 9.94995E-5
5191.406250; 9.95758E-5
5197.265625; 1.02289E-4
5203.125000; 1.02530E-4
5208.984375; 1.03217E-4
5214.843750; 1.05038E-4
5220.703125; 1.17791E-4
5226.562500; 1.08796E-4
5232.421875; 1.00372E-4
5238.281250; 1.07476E-4
5244.140625; 9.98015E-5
5250.000000; 9.14068E-5
5255.859375; 8.86311E-5
5261.718750; 9.95934E-5
5267.578125; 9.75025E-5
5273.437500; 1.01900E-4
5279.296875; 1.00341E-4
5285.156250; 1.01295E-4
5291.015625; 9.93001E-5
5296.875000; 1.05562E-4
5302.734375; 9.93373E-5
5308.593750; 1.04210E-4
5314.453125; 1.05738E-4
5320.312500; 1.10216E-4
5326.171875; 1.09000E-4
5332.031250; 1.02123E-4
5337.890625; 1.03542E-4
5343.750000; 1.02511E-4
5349.609375; 1.01090E-4
5355.468750; 1.05794E-4
5361.328125; 1.06133E-4
5367.187500; 9.99286E-5
5373.046875; 1.00644E-4
5378.906250; 1.06975E-4
5384.765625; 1.06010E-4
5390.625000; 9.02950E-5
5396.484375; 9.56063E-5
5402.343750; 1.13497E-4
5408.203125; 1.08117E-4
5414.062500; 1.03596E-4
5419.921875; 1.08771E-4
5425.781250; 1.13964E-4
5431.640625; 1.10546E-4
5437.500000; 1.04628E-4
5443.359375; 1.00131E-4
5449.218750; 9.17195E-5
5455.078125; 1.04945E-4
5460.937500; 1.05698E-4
5466.796875; 9.98852E-5
5472.656250; 9.74536E-5
5478.515625; 1.06144E-4
5484.375000; 1.09689E-4
5490.234375; 1.00798E-4
5496.093750; 1.05872E-4
5501.953125; 1.02541E-4
5507.812500; 9.20517E-5
5513.671875; 9.92986E-5
5519.531250; 1.01534E-4
5525.390625; 9.75593E-5
5531.250000; 1.02335E-4
5537.109375; 9.47023E-5
5542.968750; 9.64564E-5
5548.828125; 1.11039E-4
5554.687500; 1.14372E-4
5560.546875; 1.01361E-4
5566.406250; 9.83947E-5
5572.265625; 1.02144E-4
5578.125000; 9.93629E-5
5583.984375; 9.71874E-5
5589.843750; 9.66976E-5
5595.703125; 9.92871E-5
5601.562500; 9.71140E-5
5607.421875; 1.07262E-4
5613.281250; 1.13472E-4
5619.140625; 9.68819E-5
5625.000000; 1.00479E-4
5630.859375; 1.14767E-4
5636.718750; 1.06134E-4
5642.578125; 1.07869E-4
5648.437500; 1.14687E-4
5654.296875; 1.08824E-4
5660.156250; 1.05223E-4
5666.015625; 9.75092E-5
5671.875000; 1.02360E-4
5677.734375; 1.04057E-4
5683.593750; 9.87849E-5
5689.453125; 1.02359E-4
5695.312500; 8.78612E-5
5701.171875; 9.90249E-5
5707.031250; 9.82529E-5
5712.890625; 9.94243E-5
5718.750000; 1.06006E-4
5724.609375; 1.02698E-4
5730.468750; 1.05364E-4
5736.328125; 1.12001E-4
5742.187500; 1.11053E-4
5748.046875; 9.39089E-5
5753.906250; 1.00165E-4
5759.765625; 1.00907E-4
5765.625000; 9.61003E-5
5771.484375; 9.68392E-5
5777.343750; 1.06657E-4
5783.203125; 1.15110E-4
5789.062500; 1.10072E-4
5794.921875; 1.00108E-4
5800.781250; 9.83375E-5
5806.640625; 1.10781E-4
5812.500000; 1.08347E-4
5818.359375; 9.62126E-5
5824.218750; 1.00014E-4
5830.078125; 1.07983E-4
5835.937500; 1.17990E-4
5841.796875; 1.08766E-4
5847.656250; 1.01945E-4
5853.515625; 1.02806E-4
5859.375000; 1.01734E-4
5865.234375; 1.00432E-4
5871.093750; 1.06828E-4
5876.953125; 1.04920E-4
5882.812500; 9.92292E-5
5888.671875; 1.05736E-4
5894.531250; 1.07747E-4
5900.390625; 1.08516E-4
5906.250000; 9.96070E-5
5912.109375; 1.11376E-4
5917.968750; 1.04792E-4
5923.828125; 1.01033E-4
5929.687500; 1.06634E-4
5935.546875; 1.00706E-4
5941.406250; 1.06488E-4
5947.265625; 1.09114E-4
5953.125000; 1.06661E-4
5958.984375; 1.01360E-4
5964.843750; 1.09204E-4
5970.703125; 1.11015E-4
5976.562500; 1.06478E-4
5982.421875; 1.18833E-4
5988.281250; 1.13231E-4
5994.140625; 2.04806E-4
6000.000000; 3.67449E-4
6005.859375; 2.11253E-4
6011.718750; 1.05192E-4
6017.578125; 9.48877E-5
6023.437500; 9.54813E-5
6029.296875; 9.64775E-5
6035.156250; 1.04787E-4
6041.015625; 9.81177E-5
6046.875000; 1.02031E-4
6052.734375; 1.03216E-4
6058.593750; 1.00731E-4
6064.453125; 9.85364E-5
6070.312500; 1.09485E-4
6076.171875; 1.05719E-4
6082.031250; 9.92666E-5
6087.890625; 1.05496E-4
6093.750000; 1.12096E-4
6099.609375; 1.16240E-4
6105.468750; 9.99573E-5
6111.328125; 9.98540E-5
6117.187500; 1.04445E-4
6123.046875; 9.60913E-5
6128.906250; 9.80650E-5
6134.765625; 1.00532E-4
6140.625000; 1.06029E-4
6146.484375; 1.06132E-4
6152.343750; 1.05537E-4
6158.203125; 1.08158E-4
6164.062500; 1.03237E-4
6169.921875; 1.00936E-4
6175.781250; 1.08001E-4
6181.640625; 1.01886E-4
6187.500000; 1.06524E-4
6193.359375; 1.09475E-4
6199.218750; 1.00054E-4
6205.078125; 9.93047E-5
6210.937500; 9.84041E-5
6216.796875; 9.55791E-5
6222.656250; 1.07296E-4
6228.515625; 1.26575E-4
6234.375000; 1.20048E-4
6240.234375; 1.09033E-4
6246.093750; 1.10063E-4
6251.953125; 1.08131E-4
6257.812500; 9.66110E-5
6263.671875; 1.04716E-4
6269.531250; 1.12840E-4
6275.390625; 1.16049E-4
6281.250000; 1.06295E-4
6287.109375; 1.04760E-4
6292.968750; 1.00652E-4
6298.828125; 1.04584E-4
6304.687500; 1.08478E-4
6310.546875; 9.88997E-5
6316.406250; 1.04834E-4
6322.265625; 1.00414E-4
6328.125000; 1.11690E-4
6333.984375; 1.02927E-4
6339.843750; 1.06752E-4
6345.703125; 1.08709E-4
6351.562500; 1.00221E-4
6357.421875; 1.01983E-4
6363.281250; 1.07154E-4
6369.140625; 1.05888E-4
6375.000000; 1.07648E-4
6380.859375; 1.14516E-4
6386.718750; 1.10254E-4
6392.578125; 1.06040E-4
6398.437500; 1.03876E-4
6404.296875; 1.07747E-4
6410.156250; 1.13791E-4
6416.015625; 1.04269E-4
6421.875000; 1.03698E-4
6427.734375; 1.02741E-4
6433.593750; 9.31183E-5
6439.453125; 9.11035E-5
6445.312500; 1.02234E-4
6451.171875; 1.02838E-4
6457.031250; 9.69819E-5
6462.890625; 1.04029E-4
6468.750000; 9.88328E-5
6474.609375; 1.00128E-4
6480.468750; 1.01679E-4
6486.328125; 9.95768E-5
6492.187500; 1.02435E-4
6498.046875; 1.05476E-4
6503.906250; 1.11788E-4
6509.765625; 1.03724E-4
6515.625000; 1.00630E-4
6521.484375; 9.73829E-5
6527.343750; 9.78117E-5
6533.203125; 1.07145E-4
6539.062500; 1.10049E-4
6544.921875; 1.02409E-4
6550.781250; 1.00934E-4
6556.640625; 1.02117E-4
6562.500000; 9.68537E-5
6568.359375; 1.02530E-4
6574.218750; 1.15795E-4
6580.078125; 1.13743E-4
6585.937500; 1.02778E-4
6591.796875; 9.33268E-5
6597.656250; 9.77700E-5
6603.515625; 1.07151E-4
6609.375000; 1.06021E-4
6615.234375; 1.09123E-4
6621.093750; 9.92459E-5
6626.953125; 1.03924E-4
6632.812500; 1.12727E-4
6638.671875; 1.04872E-4
6644.531250; 9.47264E-5
6650.390625; 9.87152E-5
6656.250000; 1.09808E-4
6662.109375; 1.04611E-4
6667.968750; 9.40887E-5
6673.828125; 9.64272E-5
6679.687500; 1.16665E-4
6685.546875; 1.05252E-4
6691.406250; 8.96687E-5
6697.265625; 1.06419E-4
6703.125000; 1.08652E-4
6708.984375; 1.05710E-4
6714.843750; 1.03902E-4
6720.703125; 1.08198E-4
6726.562500; 1.06915E-4
6732.421875; 1.07754E-4
6738.281250; 1.09704E-4
6744.140625; 1.07324E-4
6750.000000; 1.05390E-4
6755.859375; 1.06574E-4
6761.718750; 1.01077E-4
6767.578125; 9.95873E-5
6773.437500; 1.10267E-4
6779.296875; 1.03468E-4
6785.156250; 9.75535E-5
6791.015625; 9.66096E-5
6796.875000; 1.00818E-4
6802.734375; 9.75779E-5
6808.593750; 9.29737E-5
6814.453125; 8.54653E-5
6820.312500; 9.41573E-5
6826.171875; 1.02767E-4
6832.031250; 1.06811E-4
6837.890625; 9.96175E-5
6843.750000; 1.01635E-4
6849.609375; 9.47800E-5
6855.468750; 1.04337E-4
6861.328125; 1.04593E-4
6867.187500; 1.01862E-4
6873.046875; 1.10574E-4
6878.906250; 9.88624E-5
6884.765625; 1.06688E-4
6890.625000; 9.91174E-5
6896.484375; 9.58289E-5
6902.343750; 1.03566E-4
6908.203125; 1.07060E-4
6914.062500; 1.01775E-4
6919.921875; 1.07771E-4
6925.781250; 1.08426E-4
6931.640625; 1.07900E-4
6937.500000; 1.09430E-4
6943.359375; 9.91438E-5
6949.218750; 9.40082E-5
6955.078125; 1.03646E-4
6960.937500; 1.06515E-4
6966.796875; 9.17417E-5
6972.656250; 9.57958E-5
6978.515625; 9.96853E-5
6984.375000; 9.34200E-5
6990.234375; 9.75779E-5
6996.093750; 1.99007E-4
7001.953125; 2.33096E-4
7007.812500; 1.24179E-4
7013.671875; 1.06612E-4
7019.531250; 1.02169E-4
7025.390625; 1.10244E-4
7031.250000; 1.00687E-4
7037.109375; 1.08377E-4
7042.968750; 9.79127E-5
7048.828125; 1.11071E-4
7054.687500; 1.11297E-4
7060.546875; 1.02301E-4
7066.406250; 1.02118E-4
7072.265625; 9.86930E-5
7078.125000; 9.54599E-5
7083.984375; 9.43658E-5
7089.843750; 1.03077E-4
7095.703125; 1.17945E-4
7101.562500; 1.15275E-4
7107.421875; 1.04369E-4
7113.281250; 1.01136E-4
7119.140625; 1.08386E-4
7125.000000; 1.10009E-4
7130.859375; 9.72308E-5
7136.718750; 9.95362E-5
7142.578125; 1.03905E-4
7148.437500; 1.05420E-4
7154.296875; 1.13759E-4
7160.156250; 1.15750E-4
7166.015625; 1.07726E-4
7171.875000; 1.09187E-4
7177.734375; 1.02377E-4
7183.593750; 9.42445E-5
7189.453125; 9.80357E-5
7195.312500; 1.09871E-4
7201.171875; 1.13514E-4
7207.031250; 1.09956E-4
7212.890625; 1.12025E-4
7218.750000; 1.15985E-4
7224.609375; 1.13261E-4
7230.468750; 1.08416E-4
7236.328125; 1.04758E-4
7242.187500; 1.04926E-4
7248.046875; 1.03179E-4
7253.906250; 9.62563E-5
7259.765625; 9.67568E-5
7265.625000; 9.47215E-5
7271.484375; 9.55515E-5
7277.343750; 9.83030E-5
7283.203125; 1.04531E-4
7289.062500; 1.04041E-4
7294.921875; 1.02606E-4
7300.781250; 1.04317E-4
7306.640625; 9.09789E-5
7312.500000; 1.00206E-4
7318.359375; 1.09976E-4
7324.218750; 1.07412E-4
7330.078125; 1.03194E-4
7335.937500; 1.02004E-4
7341.796875; 1.07000E-4
7347.656250; 1.07007E-4
7353.515625; 9.26620E-5
7359.375000; 1.00595E-4
7365.234375; 1.02843E-4
7371.093750; 1.04106E-4
7376.953125; 1.03904E-4
7382.812500; 1.09002E-4
7388.671875; 1.05397E-4
7394.531250; 9.78903E-5
7400.390625; 9.20789E-5
7406.250000; 9.20427E-5
7412.109375; 9.70485E-5
7417.968750; 1.01229E-4
7423.828125; 9.85271E-5
7429.687500; 1.06486E-4
7435.546875; 1.05630E-4
7441.406250; 1.00831E-4
7447.265625; 1.10801E-4
7453.125000; 1.07465E-4
7458.984375; 9.62630E-5
7464.843750; 1.03735E-4
7470.703125; 9.46076E-5
7476.562500; 1.03973E-4
7482.421875; 1.02694E-4
7488.281250; 1.00504E-4
7494.140625; 1.08004E-4
7500.000000; 1.04951E-4
7505.859375; 1.11415E-4
7511.718750; 1.16041E-4
7517.578125; 9.89934E-5
7523.437500; 9.55810E-5
7529.296875; 9.73481E-5
7535.156250; 1.12639E-4
7541.015625; 1.08729E-4
7546.875000; 1.14226E-4
7552.734375; 1.08432E-4
7558.593750; 1.04321E-4
7564.453125; 1.00417E-4
7570.312500; 1.03907E-4
7576.171875; 1.16204E-4
7582.031250; 1.22224E-4
7587.890625; 1.21376E-4
7593.750000; 1.16944E-4
7599.609375; 1.08592E-4
7605.468750; 1.12678E-4
7611.328125; 1.16993E-4
7617.187500; 1.00896E-4
7623.046875; 9.55105E-5
7628.906250; 1.02710E-4
7634.765625; 1.02050E-4
7640.625000; 1.11122E-4
7646.484375; 1.17226E-4
7652.343750; 1.09247E-4
7658.203125; 1.06281E-4
7664.062500; 1.00779E-4
7669.921875; 9.80437E-5
7675.781250; 1.00725E-4
7681.640625; 9.37165E-5
7687.500000; 9.73196E-5
7693.359375; 9.87158E-5
7699.218750; 1.07723E-4
7705.078125; 1.15247E-4
7710.937500; 9.46302E-5
7716.796875; 8.60244E-5
7722.656250; 1.00375E-4
7728.515625; 1.00856E-4
7734.375000; 1.02507E-4
7740.234375; 1.09411E-4
7746.093750; 1.12576E-4
7751.953125; 1.03562E-4
7757.812500; 1.10633E-4
7763.671875; 1.02829E-4
7769.531250; 1.01909E-4
7775.390625; 1.06609E-4
7781.250000; 1.01492E-4
7787.109375; 8.84834E-5
7792.968750; 9.85193E-5
7798.828125; 1.04866E-4
7804.687500; 1.04589E-4
7810.546875; 9.50115E-5
7816.406250; 1.01497E-4
7822.265625; 1.01119E-4
7828.125000; 1.05407E-4
7833.984375; 1.02357E-4
7839.843750; 1.05606E-4
7845.703125; 1.08928E-4
7851.562500; 9.89225E-5
7857.421875; 9.18185E-5
7863.281250; 9.75252E-5
7869.140625; 1.03577E-4
7875.000000; 1.01454E-4
7880.859375; 1.09393E-4
7886.718750; 1.10524E-4
7892.578125; 1.04371E-4
7898.437500; 1.07106E-4
7904.296875; 1.05504E-4
7910.156250; 1.04236E-4
7916.015625; 1.00943E-4
7921.875000; 9.72145E-5
7927.734375; 1.03947E-4
7933.593750; 1.01623E-4
7939.453125; 1.14095E-4
7945.312500; 1.14259E-4
7951.171875; 1.11381E-4
7957.031250; 9.83084E-5
7962.890625; 8.79445E-5
7968.750000; 1.07371E-4
7974.609375; 1.17101E-4
7980.468750; 1.14595E-4
7986.328125; 1.01179E-4
7992.187500; 1.16638E-4
7998.046875; 1.61382E-4
8003.906250; 1.34585E-4
8009.765625; 9.23694E-5
8015.625000; 1.08033E-4
8021.484375; 1.05178E-4
8027.343750; 1.01081E-4
8033.203125; 1.08663E-4
8039.062500; 1.02699E-4
8044.921875; 9.97278E-5
8050.781250; 1.02791E-4
8056.640625; 9.23136E-5
8062.500000; 1.01191E-4
8068.359375; 1.03448E-4
8074.218750; 1.03720E-4
8080.078125; 1.04774E-4
8085.937500; 1.09232E-4
8091.796875; 9.70788E-5
8097.656250; 1.15730E-4
8103.515625; 1.13289E-4
8109.375000; 9.48068E-5
8115.234375; 9.51124E-5
8121.093750; 9.61788E-5
8126.953125; 1.00378E-4
8132.812500; 1.03246E-4
8138.671875; 1.07179E-4
8144.531250; 1.09113E-4
8150.390625; 1.09103E-4
8156.250000; 1.10513E-4
8162.109375; 1.04828E-4
8167.968750; 9.77284E-5
8173.828125; 1.00889E-4
8179.687500; 1.05814E-4
8185.546875; 1.05202E-4
8191.406250; 1.02207E-4
8197.265625; 1.08527E-4
8203.125000; 1.13974E-4
8208.984375; 1.12758E-4
8214.843750; 1.03625E-4
8220.703125; 1.06316E-4
8226.562500; 1.02137E-4
8232.421875; 9.86171E-5
8238.281250; 9.70854E-5
8244.140625; 9.33509E-5
8250.000000; 1.03848E-4
8255.859375; 1.00334E-4
8261.718750; 9.29686E-5
8267.578125; 9.30161E-5
8273.437500; 9.46030E-5
8279.296875; 9.45786E-5
8285.156250; 1.08421E-4
8291.015625; 1.16513E-4
8296.875000; 1.05660E-4
8302.734375; 9.78815E-5
8308.593750; 8.92123E-5
8314.453125; 9.80181E-5
8320.312500; 1.06210E-4
8326.171875; 1.03514E-4
8332.031250; 1.02144E-4
8337.890625; 1.07236E-4
8343.750000; 1.06702E-4
8349.609375; 1.09345E-4
8355.468750; 9.51473E-5
8361.328125; 9.26069E-5
8367.187500; 1.03906E-4
8373.046875; 9.68342E-5
8378.906250; 1.05080E-4
8384.765625; 1.14065E-4
8390.625000; 1.09296E-4
8396.484375; 1.08580E-4
8402.343750; 9.47232E-5
8408.203125; 9.70998E-5
8414.062500; 1.02590E-4
8419.921875; 9.43486E-5
8425.781250; 1.07357E-4
8431.640625; 9.49748E-5
8437.500000; 9.25145E-5
8443.359375; 1.01516E-4
8449.218750; 1.02430E-4
8455.078125; 1.07946E-4
8460.937500; 1.02590E-4
8466.796875; 9.57487E-5
8472.656250; 1.04310E-4
8478.515625; 1.17473E-4
8484.375000; 1.12955E-4
8490.234375; 1.01100E-4
8496.093750; 9.60893E-5
8501.953125; 9.38845E-5
8507.812500; 1.00631E-4
8513.671875; 1.03312E-4
8519.531250; 1.03187E-4
8525.390625; 1.10840E-4
8531.250000; 9.90353E-5
8537.109375; 1.02196E-4
8542.968750; 1.02300E-4
8548.828125; 1.06291E-4
8554.687500; 1.00997E-4
8560.546875; 9.92066E-5
8566.406250; 9.01404E-5
8572.265625; 9.72425E-5
8578.125000; 9.72988E-5
8583.984375; 9.73719E-5
8589.843750; 9.75196E-5
8595.703125; 1.00006E-4
8601.562500; 1.05047E-4
8607.421875; 9.88127E-5
8613.281250; 9.80655E-5
8619.140625; 9.27765E-5
8625.000000; 9.58735E-5
8630.859375; 9.88940E-5
8636.718750; 9.78561E-5
8642.578125; 9.36170E-5
8648.437500; 9.25324E-5
8654.296875; 1.01134E-4
8660.156250; 9.74830E-5
8666.015625; 1.04786E-4
8671.875000; 1.07371E-4
8677.734375; 1.06340E-4
8683.593750; 9.84072E-5
8689.453125; 1.00469E-4
8695.312500; 1.00709E-4
8701.171875; 9.26178E-5
8707.031250; 1.00344E-4
8712.890625; 1.12970E-4
8718.750000; 1.12000E-4
8724.609375; 1.13889E-4
8730.468750; 1.02904E-4
8736.328125; 1.08164E-4
8742.187500; 1.09616E-4
8748.046875; 1.06002E-4
8753.906250; 1.05360E-4
8759.765625; 1.18080E-4
8765.625000; 1.18401E-4
8771.484375; 9.86674E-5
8777.343750; 1.00437E-4
8783.203125; 1.06101E-4
8789.062500; 1.07805E-4
8794.921875; 1.07738E-4
8800.781250; 9.66809E-5
8806.640625; 1.03207E-4
8812.500000; 9.68064E-5
8818.359375; 1.02076E-4
8824.218750; 9.98697E-5
8830.078125; 9.88296E-5
8835.937500; 9.84184E-5
8841.796875; 1.03065E-4
8847.656250; 1.01294E-4
8853.515625; 1.09861E-4
8859.375000; 1.05583E-4
8865.234375; 8.59463E-5
8871.093750; 8.64579E-5
8876.953125; 1.03753E-4
8882.812500; 9.85012E-5
8888.671875; 1.00062E-4
8894.531250; 1.14351E-4
8900.390625; 1.04281E-4
8906.250000; 9.87566E-5
8912.109375; 9.36995E-5
8917.968750; 1.01459E-4
8923.828125; 9.32547E-5
8929.687500; 1.02396E-4
8935.546875; 1.00251E-4
8941.406250; 1.02131E-4
8947.265625; 9.79179E-5
8953.125000; 1.13124E-4
8958.984375; 1.23315E-4
8964.843750; 1.08940E-4
8970.703125; 1.09105E-4
8976.562500; 1.13267E-4
8982.421875; 9.48834E-5
8988.281250; 9.89246E-5
8994.140625; 1.22262E-4
9000.000000; 1.58627E-4
9005.859375; 1.21913E-4
9011.718750; 1.03253E-4
9017.578125; 1.11847E-4
9023.437500; 1.05922E-4
9029.296875; 1.08617E-4
9035.156250; 1.02650E-4
9041.015625; 1.04964E-4
9046.875000; 9.76752E-5
9052.734375; 1.05418E-4
9058.593750; 1.13772E-4
9064.453125; 1.18853E-4
9070.312500; 1.05430E-4
9076.171875; 1.00939E-4
9082.031250; 9.24330E-5
9087.890625; 9.81915E-5
9093.750000; 1.02980E-4
9099.609375; 1.06608E-4
9105.468750; 1.00356E-4
9111.328125; 1.02398E-4
9117.187500; 1.06611E-4
9123.046875; 1.02369E-4
9128.906250; 1.00204E-4
9134.765625; 1.01129E-4
9140.625000; 9.93274E-5
9146.484375; 8.77735E-5
9152.343750; 9.60759E-5
9158.203125; 1.04456E-4
9164.062500; 9.40718E-5
9169.921875; 9.97291E-5
9175.781250; 8.98100E-5
9181.640625; 9.67951E-5
9187.500000; 9.85440E-5
9193.359375; 1.00723E-4
9199.218750; 1.00646E-4
9205.078125; 1.04839E-4
9210.937500; 1.09854E-4
9216.796875; 1.13668E-4
9222.656250; 9.71300E-5
9228.515625; 9.79614E-5
9234.375000; 9.17331E-5
9240.234375; 9.90637E-5
9246.093750; 9.60181E-5
9251.953125; 9.76713E-5
9257.812500; 9.86325E-5
9263.671875; 1.02708E-4
9269.531250; 1.13457E-4
9275.390625; 1.06268E-4
9281.250000; 1.03355E-4
9287.109375; 1.07090E-4
9292.968750; 1.08493E-4
9298.828125; 1.10050E-4
9304.687500; 1.05615E-4
9310.546875; 9.75521E-5
9316.406250; 1.06522E-4
9322.265625; 1.11088E-4
9328.125000; 9.80248E-5
9333.984375; 1.00275E-4
9339.843750; 1.07176E-4
9345.703125; 1.14911E-4
9351.562500; 1.11927E-4
9357.421875; 1.02787E-4
9363.281250; 9.68064E-5
9369.140625; 1.06297E-4
9375.000000; 9.66000E-5
9380.859375; 1.11983E-4
9386.718750; 1.16726E-4
9392.578125; 1.05886E-4
9398.437500; 9.27584E-5
9404.296875; 9.50740E-5
9410.156250; 1.02664E-4
9416.015625; 9.80952E-5
9421.875000; 1.11032E-4
9427.734375; 1.18268E-4
9433.593750; 1.24082E-4
9439.453125; 1.20477E-4
9445.312500; 1.04276E-4
9451.171875; 1.04444E-4
9457.031250; 9.88738E-5
9462.890625; 1.00034E-4
9468.750000; 9.64437E-5
9474.609375; 1.06054E-4
9480.468750; 1.10607E-4
9486.328125; 1.10863E-4
9492.187500; 1.01669E-4
9498.046875; 9.59611E-5
9503.906250; 1.03576E-4
9509.765625; 1.04211E-4
9515.625000; 9.26980E-5
9521.484375; 8.91924E-5
9527.343750; 9.98425E-5
9533.203125; 9.82578E-5
9539.062500; 1.01810E-4
9544.921875; 1.01656E-4
9550.781250; 1.03974E-4
9556.640625; 9.40610E-5
9562.500000; 1.00330E-4
9568.359375; 1.11440E-4
9574.218750; 1.12195E-4
9580.078125; 1.02077E-4
9585.937500; 9.49592E-5
9591.796875; 9.06599E-5
9597.656250; 9.27305E-5
9603.515625; 9.68880E-5
9609.375000; 1.08038E-4
9615.234375; 1.18907E-4
9621.093750; 1.10185E-4
9626.953125; 1.02233E-4
9632.812500; 1.01570E-4
9638.671875; 1.05588E-4
9644.531250; 9.25027E-5
9650.390625; 8.82113E-5
9656.250000; 1.04686E-4
9662.109375; 1.04296E-4
9667.968750; 1.02989E-4
9673.828125; 1.01145E-4
9679.687500; 1.01749E-4
9685.546875; 9.72549E-5
9691.406250; 1.02253E-4
9697.265625; 1.12938E-4
9703.125000; 1.04776E-4
9708.984375; 1.07905E-4
9714.843750; 1.09063E-4
9720.703125; 1.05897E-4
9726.562500; 1.02622E-4
9732.421875; 1.06595E-4
9738.281250; 1.10802E-4
9744.140625; 9.07168E-5
9750.000000; 1.05059E-4
9755.859375; 9.83511E-5
9761.718750; 1.01721E-4
9767.578125; 1.04733E-4
9773.437500; 9.77624E-5
9779.296875; 1.10849E-4
9785.156250; 1.19299E-4
9791.015625; 1.14529E-4
9796.875000; 1.02690E-4
9802.734375; 1.01199E-4
9808.593750; 1.05055E-4
9814.453125; 1.11467E-4
9820.312500; 1.13335E-4
9826.171875; 1.09958E-4
9832.031250; 1.12197E-4
9837.890625; 1.11801E-4
9843.750000; 1.03284E-4
9849.609375; 1.07019E-4
9855.468750; 9.73330E-5
9861.328125; 9.24216E-5
9867.187500; 1.00484E-4
9873.046875; 1.02715E-4
9878.906250; 9.73761E-5
9884.765625; 1.01584E-4
9890.625000; 1.01873E-4
9896.484375; 1.00031E-4
9902.343750; 9.66292E-5
9908.203125; 9.37053E-5
9914.062500; 1.08374E-4
9919.921875; 1.09902E-4
9925.781250; 9.63598E-5
9931.640625; 9.68535E-5
9937.500000; 9.96226E-5
9943.359375; 1.02925E-4
9949.218750; 9.64611E-5
9955.078125; 1.01014E-4
9960.937500; 1.02245E-4
9966.796875; 1.01586E-4
9972.656250; 9.78593E-5
9978.515625; 1.08770E-4
9984.375000; 1.19679E-4
9990.234375; 1.21983E-4
9996.093750; 1.23186E-4
10001.953125; 1.12138E-4
10007.812500; 9.74307E-5
10013.671875; 9.17062E-5
10019.531250; 9.41571E-5
10025.390625; 1.07832E-4
10031.250000; 1.10518E-4
10037.109375; 9.93565E-5
10042.968750; 1.05366E-4
10048.828125; 1.00106E-4
10054.687500; 1.05965E-4
10060.546875; 1.05329E-4
10066.406250; 1.05255E-4
10072.265625; 1.03688E-4
10078.125000; 1.03540E-4
10083.984375; 1.04463E-4
10089.843750; 9.57257E-5
10095.703125; 1.03600E-4
10101.562500; 9.83606E-5
10107.421875; 9.96138E-5
10113.281250; 1.08508E-4
10119.140625; 1.12653E-4
10125.000000; 1.04095E-4
10130.859375; 9.69377E-5
10136.718750; 9.80810E-5
10142.578125; 1.04447E-4
10148.437500; 1.21604E-4
10154.296875; 1.09841E-4
10160.156250; 1.10905E-4
10166.015625; 1.10377E-4
10171.875000; 9.66866E-5
10177.734375; 9.83831E-5
10183.593750; 1.00671E-4
10189.453125; 9.35102E-5
10195.312500; 1.00418E-4
10201.171875; 1.10853E-4
10207.031250; 1.12870E-4
10212.890625; 1.13271E-4
10218.750000; 1.04018E-4
10224.609375; 9.59202E-5
10230.468750; 9.04150E-5
10236.328125; 9.26202E-5
10242.187500; 1.01371E-4
10248.046875; 1.03500E-4
10253.906250; 9.57475E-5
10259.765625; 9.41615E-5
10265.625000; 1.08716E-4
10271.484375; 9.82719E-5
10277.343750; 9.76977E-5
10283.203125; 9.64967E-5
10289.062500; 1.01691E-4
10294.921875; 1.02818E-4
10300.781250; 1.02037E-4
10306.640625; 9.30676E-5
10312.500000; 9.38490E-5
10318.359375; 9.76220E-5
10324.218750; 9.93505E-5
10330.078125; 1.00315E-4
10335.937500; 9.34020E-5
10341.796875; 1.04148E-4
10347.656250; 1.08877E-4
10353.515625; 1.06459E-4
10359.375000; 1.00357E-4
10365.234375; 9.40366E-5
10371.093750; 9.49888E-5
10376.953125; 9.59283E-5
10382.812500; 1.09280E-4
10388.671875; 1.03533E-4
10394.531250; 9.17721E-5
10400.390625; 1.02096E-4
10406.250000; 1.01762E-4
10412.109375; 1.04571E-4
10417.968750; 1.09146E-4
10423.828125; 1.08365E-4
10429.687500; 9.73272E-5
10435.546875; 9.51671E-5
10441.406250; 9.30860E-5
10447.265625; 1.15304E-4
10453.125000; 1.12848E-4
10458.984375; 9.68196E-5
10464.843750; 9.32769E-5
10470.703125; 1.07808E-4
10476.562500; 1.09630E-4
10482.421875; 9.83729E-5
10488.281250; 9.37197E-5
10494.140625; 1.02444E-4
10500.000000; 1.00267E-4
10505.859375; 1.02070E-4
10511.718750; 9.58595E-5
10517.578125; 9.18901E-5
10523.437500; 1.12837E-4
10529.296875; 1.08806E-4
10535.156250; 1.05983E-4
10541.015625; 1.07686E-4
10546.875000; 1.14391E-4
10552.734375; 1.10351E-4
10558.593750; 1.09932E-4
10564.453125; 1.14823E-4
10570.312500; 1.14281E-4
10576.171875; 1.04746E-4
10582.031250; 1.11759E-4
10587.890625; 1.16644E-4
10593.750000; 1.10708E-4
10599.609375; 1.11674E-4
10605.468750; 1.02812E-4
10611.328125; 9.96730E-5
10617.187500; 9.28676E-5
10623.046875; 9.26085E-5
10628.906250; 9.92409E-5
10634.765625; 1.05295E-4
10640.625000; 9.06830E-5
10646.484375; 9.71400E-5
10652.343750; 9.70996E-5
10658.203125; 1.06172E-4
10664.062500; 1.01719E-4
10669.921875; 1.12281E-4
10675.781250; 1.12437E-4
10681.640625; 1.03812E-4
10687.500000; 1.01693E-4
10693.359375; 1.08995E-4
10699.218750; 9.68184E-5
10705.078125; 1.00272E-4
10710.937500; 1.03790E-4
10716.796875; 9.71323E-5
10722.656250; 1.02351E-4
10728.515625; 1.08916E-4
10734.375000; 1.04702E-4
10740.234375; 9.77090E-5
10746.093750; 9.81585E-5
10751.953125; 1.02729E-4
10757.812500; 9.74191E-5
10763.671875; 1.02266E-4
10769.531250; 1.03141E-4
10775.390625; 1.02228E-4
10781.250000; 1.00349E-4
10787.109375; 9.50546E-5
10792.968750; 9.47377E-5
10798.828125; 1.03752E-4
10804.687500; 1.05655E-4
10810.546875; 1.13557E-4
10816.406250; 1.06451E-4
10822.265625; 1.02106E-4
10828.125000; 1.04995E-4
10833.984375; 1.09331E-4
10839.843750; 1.09273E-4
10845.703125; 1.11433E-4
10851.562500; 1.09309E-4
10857.421875; 1.04561E-4
10863.281250; 1.01714E-4
10869.140625; 1.03778E-4
10875.000000; 1.06202E-4
10880.859375; 1.01877E-4
10886.718750; 1.08339E-4
10892.578125; 1.11131E-4
10898.437500; 1.12664E-4
10904.296875; 1.14701E-4
10910.156250; 1.07073E-4
10916.015625; 1.03384E-4
10921.875000; 1.03143E-4
10927.734375; 1.03367E-4
10933.593750; 9.93895E-5
10939.453125; 1.00964E-4
10945.312500; 1.00302E-4
10951.171875; 9.90615E-5
10957.031250; 9.37810E-5
10962.890625; 1.05532E-4
10968.750000; 1.03598E-4
10974.609375; 9.92213E-5
10980.468750; 1.14110E-4
10986.328125; 1.07671E-4
10992.187500; 1.02280E-4
10998.046875; 1.41328E-4
11003.906250; 1.26081E-4
11009.765625; 9.65013E-5
11015.625000; 9.44783E-5
11021.484375; 9.89797E-5
11027.343750; 1.03573E-4
11033.203125; 1.01580E-4
11039.062500; 1.05327E-4
11044.921875; 9.65295E-5
11050.781250; 9.13852E-5
11056.640625; 1.02559E-4
11062.500000; 1.09689E-4
11068.359375; 1.06183E-4
11074.218750; 1.00305E-4
11080.078125; 1.06532E-4
11085.937500; 1.05386E-4
11091.796875; 1.02463E-4
11097.656250; 1.14303E-4
11103.515625; 1.12053E-4
11109.375000; 1.02606E-4
11115.234375; 8.99544E-5
11121.093750; 1.07847E-4
11126.953125; 1.16441E-4
11132.812500; 1.16671E-4
11138.671875; 1.15082E-4
11144.531250; 1.19629E-4
11150.390625; 1.08169E-4
11156.250000; 1.01427E-4
11162.109375; 1.00726E-4
11167.968750; 1.06907E-4
11173.828125; 1.08332E-4
11179.687500; 1.02061E-4
11185.546875; 1.07459E-4
11191.406250; 1.13684E-4
11197.265625; 1.06428E-4
11203.125000; 1.02742E-4
11208.984375; 1.05908E-4
11214.843750; 9.78120E-5
11220.703125; 1.00675E-4
11226.562500; 9.40979E-5
11232.421875; 9.65089E-5
11238.281250; 9.89824E-5
11244.140625; 1.04165E-4
11250.000000; 1.02868E-4
11255.859375; 1.03288E-4
11261.718750; 1.06146E-4
11267.578125; 1.03501E-4
11273.437500; 9.81169E-5
11279.296875; 1.02236E-4
11285.156250; 1.10690E-4
11291.015625; 1.07681E-4
11296.875000; 1.08647E-4
11302.734375; 1.03071E-4
11308.593750; 1.02906E-4
11314.453125; 1.12141E-4
11320.312500; 1.08025E-4
11326.171875; 1.01167E-4
11332.031250; 1.05369E-4
11337.890625; 9.87856E-5
11343.750000; 9.97077E-5
11349.609375; 1.02855E-4
11355.468750; 9.68819E-5
11361.328125; 9.15196E-5
11367.187500; 9.84600E-5
11373.046875; 1.02113E-4
11378.906250; 9.76466E-5
11384.765625; 9.60011E-5
11390.625000; 9.39143E-5
11396.484375; 9.46713E-5
11402.343750; 1.01145E-4
11408.203125; 9.68503E-5
11414.062500; 9.77456E-5
11419.921875; 9.82615E-5
11425.781250; 9.57299E-5
11431.640625; 1.04080E-4
11437.500000; 1.04778E-4
11443.359375; 1.00030E-4
11449.218750; 1.02094E-4
11455.078125; 1.11874E-4
11460.937500; 1.10390E-4
11466.796875; 1.10924E-4
11472.656250; 1.09839E-4
11478.515625; 1.06577E-4
11484.375000; 1.13307E-4
11490.234375; 1.03544E-4
11496.093750; 9.98759E-5
11501.953125; 1.05644E-4
11507.812500; 9.70228E-5
11513.671875; 9.88262E-5
11519.531250; 9.68586E-5
11525.390625; 1.08061E-4
11531.250000; 1.04668E-4
11537.109375; 1.03559E-4
11542.968750; 1.12478E-4
11548.828125; 1.01462E-4
11554.687500; 1.04510E-4
11560.546875; 1.10092E-4
11566.406250; 1.04089E-4
11572.265625; 1.04916E-4
11578.125000; 1.07941E-4
11583.984375; 9.60228E-5
11589.843750; 1.02107E-4
11595.703125; 1.05444E-4
11601.562500; 9.93825E-5
11607.421875; 9.67521E-5
11613.281250; 9.09086E-5
11619.140625; 9.77104E-5
11625.000000; 9.86845E-5
11630.859375; 1.08791E-4
11636.718750; 1.00318E-4
11642.578125; 1.06538E-4
11648.437500; 1.06965E-4
11654.296875; 1.12190E-4
11660.156250; 1.08812E-4
11666.015625; 1.02654E-4
11671.875000; 9.87927E-5
11677.734375; 1.04812E-4
11683.593750; 1.10031E-4
11689.453125; 9.51910E-5
11695.312500; 9.12554E-5
11701.171875; 1.08435E-4
11707.031250; 1.00872E-4
11712.890625; 9.01389E-5
11718.750000; 1.03689E-4
11724.609375; 9.75796E-5
11730.468750; 9.96464E-5
11736.328125; 1.08862E-4
11742.187500; 9.85018E-5
11748.046875; 9.99889E-5
11753.906250; 1.02525E-4
11759.765625; 9.61773E-5
11765.625000; 9.55722E-5
11771.484375; 9.58921E-5
11777.343750; 9.51667E-5
11783.203125; 9.75797E-5
11789.062500; 9.11948E-5
11794.921875; 9.88986E-5
11800.781250; 1.00161E-4
11806.640625; 1.05322E-4
11812.500000; 9.31445E-5
11818.359375; 8.94016E-5
11824.218750; 9.37510E-5
11830.078125; 9.80937E-5
11835.937500; 9.54369E-5
11841.796875; 1.01373E-4
11847.656250; 9.15204E-5
11853.515625; 1.00582E-4
11859.375000; 1.04959E-4
11865.234375; 1.05484E-4
11871.093750; 8.92543E-5
11876.953125; 1.00620E-4
11882.812500; 9.73775E-5
11888.671875; 9.56315E-5
11894.531250; 9.07803E-5
11900.390625; 9.37741E-5
11906.250000; 9.99535E-5
11912.109375; 1.04360E-4
11917.968750; 9.97528E-5
11923.828125; 1.02444E-4
11929.687500; 1.14902E-4
11935.546875; 1.19915E-4
11941.406250; 1.10980E-4
11947.265625; 1.14331E-4
11953.125000; 1.08676E-4
11958.984375; 1.08594E-4
11964.843750; 1.10026E-4
11970.703125; 1.03306E-4
11976.562500; 1.14811E-4
11982.421875; 1.06853E-4
11988.281250; 9.45623E-5
11994.140625; 1.14751E-4
12000.000000; 1.29329E-4
12005.859375; 1.08611E-4
12011.718750; 9.84376E-5
12017.578125; 9.70475E-5
12023.437500; 9.90312E-5
12029.296875; 1.03338E-4
12035.156250; 9.64223E-5
12041.015625; 8.95569E-5
12046.875000; 1.07058E-4
12052.734375; 1.00244E-4
12058.593750; 1.11785E-4
12064.453125; 1.03348E-4
12070.312500; 1.11442E-4
12076.171875; 1.11437E-4
12082.031250; 1.14334E-4
12087.890625; 1.01959E-4
12093.750000; 9.97422E-5
12099.609375; 9.88078E-5
12105.468750; 1.00627E-4
12111.328125; 1.07730E-4
12117.187500; 1.18866E-4
12123.046875; 1.17378E-4
12128.906250; 1.14988E-4
12134.765625; 1.09869E-4
12140.625000; 1.07623E-4
12146.484375; 1.01445E-4
12152.343750; 9.74674E-5
12158.203125; 9.96211E-5
12164.062500; 1.05362E-4
12169.921875; 1.00363E-4
12175.781250; 9.55508E-5
12181.640625; 9.94127E-5
12187.500000; 1.08193E-4
12193.359375; 1.02541E-4
12199.218750; 1.03612E-4
12205.078125; 1.02831E-4
12210.937500; 9.80648E-5
12216.796875; 1.04645E-4
12222.656250; 1.04399E-4
12228.515625; 9.59337E-5
12234.375000; 1.07386E-4
12240.234375; 1.10875E-4
12246.093750; 1.00802E-4
12251.953125; 9.33835E-5
12257.812500; 9.37736E-5
12263.671875; 1.07249E-4
12269.531250; 1.02838E-4
12275.390625; 1.08795E-4
12281.250000; 1.02944E-4
12287.109375; 1.09551E-4
12292.968750; 1.00894E-4
12298.828125; 1.02226E-4
12304.687500; 9.66825E-5
12310.546875; 1.01854E-4
12316.406250; 1.07227E-4
12322.265625; 1.06004E-4
12328.125000; 1.07632E-4
12333.984375; 9.77877E-5
12339.843750; 9.55051E-5
12345.703125; 1.08408E-4
12351.562500; 1.08791E-4
12357.421875; 9.75458E-5
12363.281250; 9.87322E-5
12369.140625; 9.62028E-5
12375.000000; 9.23278E-5
12380.859375; 8.80207E-5
12386.718750; 9.67882E-5
12392.578125; 1.05470E-4
12398.437500; 1.11728E-4
12404.296875; 9.52820E-5
12410.156250; 9.90703E-5
12416.015625; 9.37384E-5
12421.875000; 9.67921E-5
12427.734375; 9.44330E-5
12433.593750; 1.08818E-4
12439.453125; 1.12032E-4
12445.312500; 1.06993E-4
12451.171875; 9.73661E-5
12457.031250; 1.00130E-4
12462.890625; 1.05166E-4
12468.750000; 1.06685E-4
12474.609375; 1.00086E-4
12480.468750; 1.04918E-4
12486.328125; 1.10015E-4
12492.187500; 1.07416E-4
12498.046875; 9.80086E-5
12503.906250; 1.01060E-4
12509.765625; 1.06478E-4
12515.625000; 1.00903E-4
12521.484375; 1.03235E-4
12527.343750; 9.60654E-5
12533.203125; 9.08397E-5
12539.062500; 9.77697E-5
12544.921875; 1.03366E-4
12550.781250; 1.00566E-4
12556.640625; 1.05077E-4
12562.500000; 1.15971E-4
12568.359375; 1.11025E-4
12574.218750; 1.02002E-4
12580.078125; 1.01590E-4
12585.937500; 1.09330E-4
12591.796875; 1.04167E-4
12597.656250; 9.69899E-5
12603.515625; 8.71714E-5
12609.375000; 1.10869E-4
12615.234375; 1.11888E-4
12621.093750; 1.02685E-4
12626.953125; 9.01565E-5
12632.812500; 9.37114E-5
12638.671875; 9.45306E-5
12644.531250; 9.98021E-5
12650.390625; 1.06829E-4
12656.250000; 1.12126E-4
12662.109375; 1.04168E-4
12667.968750; 9.22173E-5
12673.828125; 1.05453E-4
12679.687500; 1.13391E-4
12685.546875; 1.12592E-4
12691.406250; 9.63226E-5
12697.265625; 9.88770E-5
12703.125000; 9.99357E-5
12708.984375; 1.05866E-4
12714.843750; 1.00736E-4
12720.703125; 9.54159E-5
12726.562500; 1.02012E-4
12732.421875; 1.02113E-4
12738.281250; 9.84626E-5
12744.140625; 1.04791E-4
12750.000000; 1.14775E-4
12755.859375; 1.06058E-4
12761.718750; 1.01643E-4
12767.578125; 1.03428E-4
12773.437500; 9.37353E-5
12779.296875; 9.14871E-5
12785.156250; 1.08444E-4
12791.015625; 1.00666E-4
12796.875000; 9.11602E-5
12802.734375; 9.76136E-5
12808.593750; 9.71075E-5
12814.453125; 9.23408E-5
12820.312500; 8.81823E-5
12826.171875; 1.00379E-4
12832.031250; 9.07064E-5
12837.890625; 9.53895E-5
12843.750000; 1.01289E-4
12849.609375; 1.10356E-4
12855.468750; 1.01590E-4
12861.328125; 9.66587E-5
12867.187500; 1.02907E-4
12873.046875; 1.01449E-4
12878.906250; 1.00268E-4
12884.765625; 1.03232E-4
12890.625000; 9.77771E-5
12896.484375; 9.65762E-5
12902.343750; 9.37377E-5
12908.203125; 9.76140E-5
12914.062500; 9.61963E-5
12919.921875; 9.85191E-5
12925.781250; 9.80557E-5
12931.640625; 1.05643E-4
12937.500000; 1.04805E-4
12943.359375; 1.00624E-4
12949.218750; 9.97838E-5
12955.078125; 9.30601E-5
12960.937500; 9.51137E-5
12966.796875; 1.04029E-4
12972.656250; 1.04975E-4
12978.515625; 1.01368E-4
12984.375000; 9.44243E-5
12990.234375; 9.66565E-5
12996.093750; 1.01091E-4
13001.953125; 1.04228E-4
13007.812500; 1.02042E-4
13013.671875; 1.11591E-4
13019.531250; 1.02976E-4
13025.390625; 9.74157E-5
13031.250000; 1.12990E-4
13037.109375; 1.09300E-4
13042.968750; 9.95776E-5
13048.828125; 1.04249E-4
13054.687500; 1.04514E-4
13060.546875; 1.01961E-4
13066.406250; 1.02178E-4
13072.265625; 1.06862E-4
13078.125000; 9.35904E-5
13083.984375; 9.35813E-5
13089.843750; 1.00530E-4
13095.703125; 9.58117E-5
13101.562500; 9.46712E-5
13107.421875; 8.95495E-5
13113.281250; 9.05818E-5
13119.140625; 9.71713E-5
13125.000000; 9.31476E-5
13130.859375; 9.59985E-5
13136.718750; 1.01313E-4
13142.578125; 9.83577E-5
13148.437500; 9.50891E-5
13154.296875; 9.48364E-5
13160.156250; 1.00766E-4
13166.015625; 9.45875E-5
13171.875000; 1.01814E-4
13177.734375; 1.08883E-4
13183.593750; 9.82526E-5
13189.453125; 1.01818E-4
13195.312500; 1.05984E-4
13201.171875; 1.06647E-4
13207.031250; 9.55408E-5
13212.890625; 9.41730E-5
13218.750000; 9.78792E-5
13224.609375; 1.00933E-4
13230.468750; 1.02103E-4
13236.328125; 1.06749E-4
13242.187500; 1.03361E-4
13248.046875; 1.06817E-4
13253.906250; 1.02969E-4
13259.765625; 1.04115E-4
13265.625000; 1.07207E-4
13271.484375; 1.17320E-4
13277.343750; 1.05732E-4
13283.203125; 9.01069E-5
13289.062500; 1.00940E-4
13294.921875; 9.74991E-5
13300.781250; 9.47900E-5
13306.640625; 9.42782E-5
13312.500000; 1.03083E-4
13318.359375; 1.00585E-4
13324.218750; 1.01147E-4
13330.078125; 1.02483E-4
13335.937500; 1.03598E-4
13341.796875; 1.04837E-4
13347.656250; 9.85180E-5
13353.515625; 9.19410E-5
13359.375000; 1.00813E-4
13365.234375; 1.12660E-4
13371.093750; 1.02224E-4
13376.953125; 9.86462E-5
13382.812500; 1.06888E-4
13388.671875; 9.96712E-5
13394.531250; 1.00133E-4
13400.390625; 1.00476E-4
13406.250000; 1.00538E-4
13412.109375; 1.03593E-4
13417.968750; 1.08005E-4
13423.828125; 1.11062E-4
13429.687500; 1.02434E-4
13435.546875; 1.02570E-4
13441.406250; 1.06656E-4
13447.265625; 1.07201E-4
13453.125000; 1.04666E-4
13458.984375; 9.62793E-5
13464.843750; 9.99392E-5
13470.703125; 1.07651E-4
13476.562500; 9.91549E-5
13482.421875; 8.72247E-5
13488.281250; 9.82678E-5
13494.140625; 9.55004E-5
13500.000000; 9.56150E-5
13505.859375; 9.81143E-5
13511.718750; 1.06958E-4
13517.578125; 1.07166E-4
13523.437500; 9.76743E-5
13529.296875; 7.99240E-5
13535.156250; 9.16078E-5
13541.015625; 1.01759E-4
13546.875000; 1.03584E-4
13552.734375; 1.03495E-4
13558.593750; 9.14786E-5
13564.453125; 9.53696E-5
13570.312500; 9.99834E-5
13576.171875; 1.05266E-4
13582.031250; 1.00387E-4
13587.890625; 1.00549E-4
13593.750000; 1.14351E-4
13599.609375; 1.06805E-4
13605.468750; 1.01299E-4
13611.328125; 9.66349E-5
13617.187500; 9.45323E-5
13623.046875; 1.07498E-4
13628.906250; 1.06343E-4
13634.765625; 9.75136E-5
13640.625000; 9.76285E-5
13646.484375; 9.70040E-5
13652.343750; 1.00054E-4
13658.203125; 1.06464E-4
13664.062500; 1.11554E-4
13669.921875; 1.03371E-4
13675.781250; 1.12844E-4
13681.640625; 1.15635E-4
13687.500000; 1.02758E-4
13693.359375; 1.02286E-4
13699.218750; 9.92890E-5
13705.078125; 9.80845E-5
13710.937500; 1.00182E-4
13716.796875; 9.61652E-5
13722.656250; 9.08623E-5
13728.515625; 9.26745E-5
13734.375000; 9.36938E-5
13740.234375; 1.00398E-4
13746.093750; 1.08938E-4
13751.953125; 1.10661E-4
13757.812500; 1.03124E-4
13763.671875; 1.08405E-4
13769.531250; 1.09643E-4
13775.390625; 9.92516E-5
13781.250000; 9.12220E-5
13787.109375; 9.85806E-5
13792.968750; 1.02308E-4
13798.828125; 9.13771E-5
13804.687500; 9.51066E-5
13810.546875; 9.98223E-5
13816.406250; 1.12364E-4
13822.265625; 1.07451E-4
13828.125000; 9.92020E-5
13833.984375; 1.07307E-4
13839.843750; 1.08217E-4
13845.703125; 9.78402E-5
13851.562500; 9.64409E-5
13857.421875; 9.87848E-5
13863.281250; 1.06787E-4
13869.140625; 9.42520E-5
13875.000000; 9.50892E-5
13880.859375; 1.01855E-4
13886.718750; 1.09583E-4
13892.578125; 1.01951E-4
13898.437500; 9.47229E-5
13904.296875; 9.20504E-5
13910.156250; 9.46919E-5
13916.015625; 9.15228E-5
13921.875000; 9.61907E-5
13927.734375; 9.66366E-5
13933.593750; 1.01935E-4
13939.453125; 1.14400E-4
13945.312500; 1.06459E-4
13951.171875; 1.02414E-4
13957.031250; 1.01218E-4
13962.890625; 9.82659E-5
13968.750000; 1.09207E-4
13974.609375; 1.12805E-4
13980.468750; 1.10337E-4
13986.328125; 1.03183E-4
13992.187500; 9.38000E-5
13998.046875; 1.05539E-4
14003.906250; 1.03484E-4
14009.765625; 9.53861E-5
14015.625000; 9.85679E-5
14021.484375; 1.07532E-4
14027.343750; 1.05407E-4
14033.203125; 9.83920E-5
14039.062500; 9.97939E-5
14044.921875; 9.57215E-5
14050.781250; 9.57248E-5
14056.640625; 1.03970E-4
14062.500000; 9.04034E-5
14068.359375; 9.39968E-5
14074.218750; 1.03939E-4
14080.078125; 1.02321E-4
14085.937500; 1.07167E-4
14091.796875; 1.06604E-4
14097.656250; 1.11375E-4
14103.515625; 1.04284E-4
14109.375000; 9.99435E-5
14115.234375; 9.10826E-5
14121.093750; 9.04898E-5
14126.953125; 1.10885E-4
14132.812500; 1.14964E-4
14138.671875; 1.05727E-4
14144.531250; 9.52702E-5
14150.390625; 9.90572E-5
14156.250000; 1.07554E-4
14162.109375; 1.05595E-4
14167.968750; 1.00877E-4
14173.828125; 9.53723E-5
14179.687500; 1.01086E-4
14185.546875; 9.99305E-5
14191.406250; 1.09264E-4
14197.265625; 1.06123E-4
14203.125000; 9.28229E-5
14208.984375; 9.62892E-5
14214.843750; 1.00555E-4
14220.703125; 1.04088E-4
14226.562500; 9.87064E-5
14232.421875; 9.71295E-5
14238.281250; 9.33226E-5
14244.140625; 1.04500E-4
14250.000000; 1.00081E-4
14255.859375; 9.54936E-5
14261.718750; 9.69626E-5
14267.578125; 1.01075E-4
14273.437500; 1.00940E-4
14279.296875; 1.08021E-4
14285.156250; 1.04899E-4
14291.015625; 1.01628E-4
14296.875000; 1.00445E-4
14302.734375; 9.59648E-5
14308.593750; 9.67939E-5
14314.453125; 1.09392E-4
14320.312500; 1.00819E-4
14326.171875; 1.01612E-4
14332.031250; 1.04778E-4
14337.890625; 1.01981E-4
14343.750000; 1.03968E-4
14349.609375; 9.58040E-5
14355.468750; 9.74889E-5
14361.328125; 1.00651E-4
14367.187500; 1.05498E-4
14373.046875; 1.01716E-4
14378.906250; 1.01722E-4
14384.765625; 1.03038E-4
14390.625000; 1.08545E-4
14396.484375; 9.70526E-5
14402.343750; 9.83957E-5
14408.203125; 1.02275E-4
14414.062500; 1.02383E-4
14419.921875; 1.14004E-4
14425.781250; 1.06068E-4
14431.640625; 1.04648E-4
14437.500000; 9.21126E-5
14443.359375; 8.47707E-5
14449.218750; 9.78437E-5
14455.078125; 1.01044E-4
14460.937500; 1.08045E-4
14466.796875; 9.49750E-5
14472.656250; 1.00996E-4
14478.515625; 9.47540E-5
14484.375000; 8.92910E-5
14490.234375; 9.06919E-5
14496.093750; 9.09932E-5
14501.953125; 9.86031E-5
14507.812500; 9.18788E-5
14513.671875; 1.00176E-4
14519.531250; 1.04280E-4
14525.390625; 9.97312E-5
14531.250000; 9.29094E-5
14537.109375; 9.03002E-5
14542.968750; 9.38236E-5
14548.828125; 1.00852E-4
14554.687500; 9.85967E-5
14560.546875; 9.73378E-5
14566.406250; 1.02377E-4
14572.265625; 1.03784E-4
14578.125000; 9.87168E-5
14583.984375; 9.02892E-5
14589.843750; 9.23424E-5
14595.703125; 9.84777E-5
14601.562500; 1.04210E-4
14607.421875; 1.07836E-4
14613.281250; 9.97659E-5
14619.140625; 1.04920E-4
14625.000000; 1.04557E-4
14630.859375; 9.59036E-5
14636.718750; 9.60717E-5
14642.578125; 1.07014E-4
14648.437500; 1.14043E-4
14654.296875; 1.03820E-4
14660.156250; 9.78239E-5
14666.015625; 1.06102E-4
14671.875000; 1.03512E-4
14677.734375; 9.59592E-5
14683.593750; 9.73584E-5
14689.453125; 9.70345E-5
14695.312500; 1.01665E-4
14701.171875; 9.76814E-5
14707.031250; 1.04057E-4
14712.890625; 1.03263E-4
14718.750000; 9.41661E-5
14724.609375; 9.91935E-5
14730.468750; 9.96922E-5
14736.328125; 1.00441E-4
14742.187500; 1.01935E-4
14748.046875; 9.96220E-5
14753.906250; 9.05277E-5
14759.765625; 1.02246E-4
14765.625000; 1.03331E-4
14771.484375; 1.05285E-4
14777.343750; 1.04475E-4
14783.203125; 1.05908E-4
14789.062500; 1.02859E-4
14794.921875; 1.07967E-4
14800.781250; 1.14293E-4
14806.640625; 1.09019E-4
14812.500000; 1.04663E-4
14818.359375; 9.60956E-5
14824.218750; 9.72518E-5
14830.078125; 1.03038E-4
14835.937500; 1.04355E-4
14841.796875; 9.91973E-5
14847.656250; 9.81451E-5
14853.515625; 1.00223E-4
14859.375000; 1.02270E-4
14865.234375; 1.00951E-4
14871.093750; 1.03485E-4
14876.953125; 1.04420E-4
14882.812500; 9.75001E-5
14888.671875; 1.06199E-4
14894.531250; 1.17861E-4
14900.390625; 1.19109E-4
14906.250000; 1.02677E-4
14912.109375; 9.45273E-5
14917.968750; 9.40265E-5
14923.828125; 9.80651E-5
14929.687500; 9.79382E-5
14935.546875; 9.90713E-5
14941.406250; 9.64234E-5
14947.265625; 1.01254E-4
14953.125000; 1.10557E-4
14958.984375; 1.12345E-4
14964.843750; 1.03316E-4
14970.703125; 1.02813E-4
14976.562500; 8.67004E-5
14982.421875; 9.05154E-5
14988.281250; 1.07024E-4
14994.140625; 1.00102E-4
15000.000000; 1.02418E-4
15005.859375; 1.06991E-4
15011.718750; 1.07240E-4
15017.578125; 1.03554E-4
15023.437500; 9.02562E-5
15029.296875; 9.02026E-5
15035.156250; 9.43457E-5
15041.015625; 9.85534E-5
15046.875000; 1.05534E-4
15052.734375; 1.04139E-4
15058.593750; 1.00516E-4
15064.453125; 1.06929E-4
15070.312500; 1.08900E-4
15076.171875; 1.04496E-4
15082.031250; 9.58617E-5
15087.890625; 9.50504E-5
15093.750000; 9.80011E-5
15099.609375; 9.41571E-5
15105.468750; 9.43017E-5
15111.328125; 9.28474E-5
15117.187500; 9.14922E-5
15123.046875; 1.01414E-4
15128.906250; 1.11061E-4
15134.765625; 1.10025E-4
15140.625000; 1.01359E-4
15146.484375; 1.01464E-4
15152.343750; 1.13048E-4
15158.203125; 1.11848E-4
15164.062500; 1.07361E-4
15169.921875; 9.93797E-5
15175.781250; 9.32200E-5
15181.640625; 9.68435E-5
15187.500000; 1.04834E-4
15193.359375; 1.09421E-4
15199.218750; 1.01831E-4
15205.078125; 1.06189E-4
15210.937500; 9.80300E-5
15216.796875; 9.97640E-5
15222.656250; 9.77419E-5
15228.515625; 1.04161E-4
15234.375000; 1.01980E-4
15240.234375; 1.10059E-4
15246.093750; 1.06704E-4
15251.953125; 9.91283E-5
15257.812500; 9.17977E-5
15263.671875; 8.55956E-5
15269.531250; 9.76635E-5
15275.390625; 1.01892E-4
15281.250000; 1.04381E-4
15287.109375; 1.01668E-4
15292.968750; 1.03067E-4
15298.828125; 9.67697E-5
15304.687500; 9.49465E-5
15310.546875; 1.03092E-4
15316.406250; 1.01082E-4
15322.265625; 1.02714E-4
15328.125000; 1.04389E-4
15333.984375; 9.55364E-5
15339.843750; 9.54490E-5
15345.703125; 8.00152E-5
15351.562500; 9.35627E-5
15357.421875; 9.56362E-5
15363.281250; 9.84016E-5
15369.140625; 1.07869E-4
15375.000000; 1.03595E-4
15380.859375; 9.55524E-5
15386.718750; 8.82129E-5
15392.578125; 1.00026E-4
15398.437500; 1.00546E-4
15404.296875; 1.02814E-4
15410.156250; 1.01786E-4
15416.015625; 1.08592E-4
15421.875000; 1.16379E-4
15427.734375; 1.06986E-4
15433.593750; 9.64768E-5
15439.453125; 1.03625E-4
15445.312500; 1.04416E-4
15451.171875; 1.04205E-4
15457.031250; 9.59099E-5
15462.890625; 9.42655E-5
15468.750000; 9.15143E-5
15474.609375; 9.14390E-5
15480.468750; 1.05742E-4
15486.328125; 9.93293E-5
15492.187500; 1.11587E-4
15498.046875; 1.01851E-4
15503.906250; 1.01567E-4
15509.765625; 9.68011E-5
15515.625000; 9.54165E-5
15521.484375; 1.05783E-4
15527.343750; 1.07071E-4
15533.203125; 1.01939E-4
15539.062500; 9.00824E-5
15544.921875; 8.77745E-5
15550.781250; 9.52624E-5
15556.640625; 8.61096E-5
15562.500000; 8.35449E-5
15568.359375; 8.86473E-5
15574.218750; 9.73469E-5
15580.078125; 1.07577E-4
15585.937500; 1.07706E-4
15591.796875; 1.06628E-4
15597.656250; 1.03420E-4
15603.515625; 9.36101E-5
15609.375000; 1.01912E-4
15615.234375; 1.04033E-4
15621.093750; 1.00028E-4
15626.953125; 1.08853E-4
15632.812500; 9.84474E-5
15638.671875; 1.02121E-4
15644.531250; 1.07757E-4
15650.390625; 1.01036E-4
15656.250000; 1.06898E-4
15662.109375; 1.07108E-4
15667.968750; 1.02100E-4
15673.828125; 1.00910E-4
15679.687500; 1.05993E-4
15685.546875; 9.37119E-5
15691.406250; 9.03747E-5
15697.265625; 1.06374E-4
15703.125000; 9.72157E-5
15708.984375; 9.55910E-5
15714.843750; 9.63474E-5
15720.703125; 9.85566E-5
15726.562500; 1.01246E-4
15732.421875; 1.06414E-4
15738.281250; 1.00643E-4
15744.140625; 9.59143E-5
15750.000000; 9.78467E-5
15755.859375; 9.86712E-5
15761.718750; 9.79889E-5
15767.578125; 1.05913E-4
15773.437500; 9.64596E-5
15779.296875; 1.00234E-4
15785.156250; 1.06359E-4
15791.015625; 9.46264E-5
15796.875000; 9.78669E-5
15802.734375; 1.00254E-4
15808.593750; 1.01227E-4
15814.453125; 1.03900E-4
15820.312500; 1.07028E-4
15826.171875; 9.53791E-5
15832.031250; 9.16250E-5
15837.890625; 9.36710E-5
15843.750000; 1.06124E-4
15849.609375; 1.06134E-4
15855.468750; 9.45482E-5
15861.328125; 1.02848E-4
15867.187500; 1.06668E-4
15873.046875; 9.25064E-5
15878.906250; 9.93846E-5
15884.765625; 9.79662E-5
15890.625000; 1.02753E-4
15896.484375; 1.04517E-4
15902.343750; 1.06724E-4
15908.203125; 9.65185E-5
15914.062500; 8.98001E-5
15919.921875; 9.91361E-5
15925.781250; 9.51734E-5
15931.640625; 9.70098E-5
15937.500000; 9.85349E-5
15943.359375; 9.22760E-5
15949.218750; 9.19091E-5
15955.078125; 1.03404E-4
15960.937500; 1.02546E-4
15966.796875; 8.93978E-5
15972.656250; 9.08975E-5
15978.515625; 9.28328E-5
15984.375000; 9.24775E-5
15990.234375; 9.45317E-5
15996.093750; 9.48659E-5
16001.953125; 1.01146E-4
16007.812500; 1.05145E-4
16013.671875; 9.87879E-5
16019.531250; 1.03441E-4
16025.390625; 1.06967E-4
16031.250000; 1.00150E-4
16037.109375; 9.60449E-5
16042.968750; 1.01066E-4
16048.828125; 1.03044E-4
16054.687500; 9.62766E-5
16060.546875; 1.00611E-4
16066.406250; 1.04309E-4
16072.265625; 9.64219E-5
16078.125000; 9.44294E-5
16083.984375; 9.97387E-5
16089.843750; 1.06132E-4
16095.703125; 1.02455E-4
16101.562500; 1.03307E-4
16107.421875; 1.14554E-4
16113.281250; 1.03365E-4
16119.140625; 8.88373E-5
16125.000000; 9.86734E-5
16130.859375; 1.00014E-4
16136.718750; 9.40973E-5
16142.578125; 9.44058E-5
16148.437500; 9.66528E-5
16154.296875; 9.87710E-5
16160.156250; 8.85588E-5
16166.015625; 1.09104E-4
16171.875000; 1.10879E-4
16177.734375; 9.85716E-5
16183.593750; 9.03447E-5
16189.453125; 9.90125E-5
16195.312500; 1.07278E-4
16201.171875; 1.00094E-4
16207.031250; 9.57949E-5
16212.890625; 1.02687E-4
16218.750000; 8.76290E-5
16224.609375; 9.01885E-5
16230.468750; 1.07460E-4
16236.328125; 1.07039E-4
16242.187500; 1.00141E-4
16248.046875; 1.00918E-4
16253.906250; 1.05020E-4
16259.765625; 9.30494E-5
16265.625000; 8.96785E-5
16271.484375; 9.49787E-5
16277.343750; 1.06736E-4
16283.203125; 1.01215E-4
16289.062500; 9.47602E-5
16294.921875; 9.85153E-5
16300.781250; 9.67230E-5
16306.640625; 9.98904E-5
16312.500000; 1.01810E-4
16318.359375; 1.07141E-4
16324.218750; 1.03481E-4
16330.078125; 1.00194E-4
16335.937500; 1.08238E-4
16341.796875; 1.04349E-4
16347.656250; 9.45372E-5
16353.515625; 1.02589E-4
16359.375000; 1.05548E-4
16365.234375; 9.33036E-5
16371.093750; 9.79981E-5
16376.953125; 9.68433E-5
16382.812500; 1.02358E-4
16388.671875; 1.04234E-4
16394.531250; 1.01548E-4
16400.390625; 1.01721E-4
16406.250000; 9.42029E-5
16412.109375; 9.32443E-5
16417.968750; 9.44881E-5
16423.828125; 1.11390E-4
16429.687500; 1.04259E-4
16435.546875; 1.05492E-4
16441.406250; 9.17988E-5
16447.265625; 8.44739E-5
16453.125000; 9.56434E-5
16458.984375; 1.02093E-4
16464.843750; 9.92842E-5
16470.703125; 9.69323E-5
16476.562500; 9.42824E-5
16482.421875; 1.06436E-4
16488.281250; 1.03426E-4
16494.140625; 9.92537E-5
16500.000000; 1.02035E-4
16505.859375; 9.11887E-5
16511.718750; 8.75290E-5
16517.578125; 9.02629E-5
16523.437500; 1.07869E-4
16529.296875; 1.10533E-4
16535.156250; 1.05833E-4
16541.015625; 8.73778E-5
16546.875000; 8.57657E-5
16552.734375; 9.72577E-5
16558.593750; 9.64543E-5
16564.453125; 9.27253E-5
16570.312500; 9.21946E-5
16576.171875; 9.97778E-5
16582.031250; 9.99428E-5
16587.890625; 1.01763E-4
16593.750000; 1.01951E-4
16599.609375; 9.98380E-5
16605.468750; 1.06779E-4
16611.328125; 1.04253E-4
16617.187500; 1.03086E-4
16623.046875; 1.03777E-4
16628.906250; 9.78736E-5
16634.765625; 1.02688E-4
16640.625000; 8.90425E-5
16646.484375; 9.20918E-5
16652.343750; 1.03444E-4
16658.203125; 1.01640E-4
16664.062500; 9.98468E-5
16669.921875; 9.36612E-5
16675.781250; 1.03985E-4
16681.640625; 9.29876E-5
16687.500000; 9.71090E-5
16693.359375; 1.01653E-4
16699.218750; 9.26419E-5
16705.078125; 1.06585E-4
16710.937500; 1.02905E-4
16716.796875; 9.76392E-5
16722.656250; 9.73683E-5
16728.515625; 9.37753E-5
16734.375000; 8.85358E-5
16740.234375; 9.36594E-5
16746.093750; 1.04395E-4
16751.953125; 1.02193E-4
16757.812500; 9.74376E-5
16763.671875; 9.28777E-5
16769.531250; 8.32053E-5
16775.390625; 8.72725E-5
16781.250000; 9.21224E-5
16787.109375; 8.81479E-5
16792.968750; 9.12162E-5
16798.828125; 9.69204E-5
16804.687500; 9.64896E-5
16810.546875; 9.26535E-5
16816.406250; 1.02438E-4
16822.265625; 1.07807E-4
16828.125000; 9.00004E-5
16833.984375; 9.22179E-5
16839.843750; 9.37016E-5
16845.703125; 8.77361E-5
16851.562500; 8.87423E-5
16857.421875; 9.78909E-5
16863.281250; 9.94226E-5
16869.140625; 9.83074E-5
16875.000000; 9.77476E-5
16880.859375; 1.00532E-4
16886.718750; 9.85565E-5
16892.578125; 9.70914E-5
16898.437500; 8.74949E-5
16904.296875; 1.00424E-4
16910.156250; 9.81676E-5
16916.015625; 9.95106E-5
16921.875000; 9.95613E-5
16927.734375; 9.48864E-5
16933.593750; 9.81546E-5
16939.453125; 1.01923E-4
16945.312500; 1.04228E-4
16951.171875; 1.00963E-4
16957.031250; 1.08169E-4
16962.890625; 1.05987E-4
16968.750000; 1.00764E-4
16974.609375; 9.62914E-5
16980.468750; 8.94261E-5
16986.328125; 9.46253E-5
16992.187500; 9.42529E-5
16998.046875; 9.63114E-5
17003.906250; 1.01766E-4
17009.765625; 9.53624E-5
17015.625000; 9.49566E-5
17021.484375; 1.00670E-4
17027.343750; 1.01128E-4
17033.203125; 1.04225E-4
17039.062500; 1.04188E-4
17044.921875; 9.86700E-5
17050.781250; 8.89693E-5
17056.640625; 9.41724E-5
17062.500000; 9.05546E-5
17068.359375; 9.60642E-5
17074.218750; 9.68572E-5
17080.078125; 9.72801E-5
17085.937500; 9.71573E-5
17091.796875; 1.03315E-4
17097.656250; 1.02042E-4
17103.515625; 9.85615E-5
17109.375000; 9.26125E-5
17115.234375; 9.80893E-5
17121.093750; 1.01478E-4
17126.953125; 9.61218E-5
17132.812500; 1.01909E-4
17138.671875; 1.05240E-4
17144.531250; 1.05869E-4
17150.390625; 9.66256E-5
17156.250000; 9.84254E-5
17162.109375; 1.01440E-4
17167.968750; 1.08579E-4
17173.828125; 1.10882E-4
17179.687500; 1.01207E-4
17185.546875; 1.07872E-4
17191.406250; 1.00793E-4
17197.265625; 9.37703E-5
17203.125000; 9.94496E-5
17208.984375; 9.19498E-5
17214.843750; 1.04851E-4
17220.703125; 1.08834E-4
17226.562500; 8.84294E-5
17232.421875; 9.36145E-5
17238.281250; 1.05201E-4
17244.140625; 9.98864E-5
17250.000000; 9.35725E-5
17255.859375; 9.57041E-5
17261.718750; 9.63661E-5
17267.578125; 9.51270E-5
17273.437500; 9.58422E-5
17279.296875; 1.09591E-4
17285.156250; 1.01055E-4
17291.015625; 1.01887E-4
17296.875000; 9.69513E-5
17302.734375; 9.24016E-5
17308.593750; 9.93993E-5
17314.453125; 9.52392E-5
17320.312500; 1.00581E-4
17326.171875; 1.01704E-4
17332.031250; 9.48883E-5
17337.890625; 1.00054E-4
17343.750000; 9.50711E-5
17349.609375; 8.51673E-5
17355.468750; 9.11823E-5
17361.328125; 9.53470E-5
17367.187500; 9.20031E-5
17373.046875; 8.84671E-5
17378.906250; 1.01932E-4
17384.765625; 1.11127E-4
17390.625000; 1.01151E-4
17396.484375; 9.01988E-5
17402.343750; 9.75366E-5
17408.203125; 9.98334E-5
17414.062500; 9.91695E-5
17419.921875; 9.68539E-5
17425.781250; 9.10010E-5
17431.640625; 9.06040E-5
17437.500000; 1.01705E-4
17443.359375; 9.84046E-5
17449.218750; 9.08457E-5
17455.078125; 9.91965E-5
17460.937500; 1.05184E-4
17466.796875; 1.07173E-4
17472.656250; 1.00391E-4
17478.515625; 1.06025E-4
17484.375000; 1.00547E-4
17490.234375; 9.79098E-5
17496.093750; 1.05121E-4
17501.953125; 9.88313E-5
17507.812500; 9.87050E-5
17513.671875; 9.69056E-5
17519.531250; 1.02350E-4
17525.390625; 9.31036E-5
17531.250000; 9.41580E-5
17537.109375; 1.01876E-4
17542.968750; 1.04803E-4
17548.828125; 8.90020E-5
17554.687500; 9.25213E-5
17560.546875; 9.92588E-5
17566.406250; 9.58354E-5
17572.265625; 9.52374E-5
17578.125000; 8.95558E-5
17583.984375; 9.25274E-5
17589.843750; 8.62104E-5
17595.703125; 9.02626E-5
17601.562500; 9.43759E-5
17607.421875; 9.86481E-5
17613.281250; 9.76584E-5
17619.140625; 9.27412E-5
17625.000000; 8.96954E-5
17630.859375; 1.03459E-4
17636.718750; 1.02955E-4
17642.578125; 1.02411E-4
17648.437500; 1.09777E-4
17654.296875; 1.04068E-4
17660.156250; 1.03791E-4
17666.015625; 9.66728E-5
17671.875000; 9.36842E-5
17677.734375; 1.06748E-4
17683.593750; 9.91247E-5
17689.453125; 1.03816E-4
17695.312500; 1.10116E-4
17701.171875; 9.89261E-5
17707.031250; 1.00244E-4
17712.890625; 8.90115E-5
17718.750000; 9.32917E-5
17724.609375; 1.00850E-4
17730.468750; 1.06911E-4
17736.328125; 1.03103E-4
17742.187500; 1.03513E-4
17748.046875; 1.04975E-4
17753.906250; 9.73615E-5
17759.765625; 9.88803E-5
17765.625000; 9.96637E-5
17771.484375; 1.00218E-4
17777.343750; 8.98938E-5
17783.203125; 1.01284E-4
17789.062500; 9.40257E-5
17794.921875; 9.57098E-5
17800.781250; 9.62678E-5
17806.640625; 9.57987E-5
17812.500000; 9.96806E-5
17818.359375; 8.74276E-5
17824.218750; 9.36501E-5
17830.078125; 1.03200E-4
17835.937500; 1.04597E-4
17841.796875; 9.44454E-5
17847.656250; 9.67316E-5
17853.515625; 1.04149E-4
17859.375000; 1.11093E-4
17865.234375; 1.05518E-4
17871.093750; 9.31380E-5
17876.953125; 1.02144E-4
17882.812500; 1.08251E-4
17888.671875; 9.08734E-5
17894.531250; 8.94561E-5
17900.390625; 9.43862E-5
17906.250000; 1.02194E-4
17912.109375; 1.07402E-4
17917.968750; 1.07262E-4
17923.828125; 1.02121E-4
17929.687500; 1.02713E-4
17935.546875; 1.01609E-4
17941.406250; 8.79544E-5
17947.265625; 9.52413E-5
17953.125000; 9.84928E-5
17958.984375; 1.00099E-4
17964.843750; 9.88224E-5
17970.703125; 1.01626E-4
17976.562500; 1.04573E-4
17982.421875; 1.08469E-4
17988.281250; 1.03452E-4
17994.140625; 1.03101E-4
18000.000000; 1.05174E-4
18005.859375; 1.00360E-4
18011.718750; 1.03407E-4
18017.578125; 1.00820E-4
18023.437500; 1.02357E-4
18029.296875; 1.01085E-4
18035.156250; 9.50156E-5
18041.015625; 9.61304E-5
18046.875000; 1.03872E-4
18052.734375; 1.01542E-4
18058.593750; 1.06406E-4
18064.453125; 1.14270E-4
18070.312500; 1.11417E-4
18076.171875; 9.33127E-5
18082.031250; 9.86848E-5
18087.890625; 9.97644E-5
18093.750000; 1.04816E-4
18099.609375; 1.03843E-4
18105.468750; 9.73966E-5
18111.328125; 9.85180E-5
18117.187500; 1.08711E-4
18123.046875; 1.07032E-4
18128.906250; 9.51801E-5
18134.765625; 8.79793E-5
18140.625000; 9.81922E-5
18146.484375; 1.06607E-4
18152.343750; 1.08420E-4
18158.203125; 1.01736E-4
18164.062500; 1.00076E-4
18169.921875; 1.00775E-4
18175.781250; 9.56044E-5
18181.640625; 1.00527E-4
18187.500000; 9.78839E-5
18193.359375; 1.00853E-4
18199.218750; 9.77639E-5
18205.078125; 9.35498E-5
18210.937500; 9.36816E-5
18216.796875; 1.02660E-4
18222.656250; 1.02434E-4
18228.515625; 1.00101E-4
18234.375000; 1.00889E-4
18240.234375; 9.65045E-5
18246.093750; 8.86922E-5
18251.953125; 9.49760E-5
18257.812500; 9.75693E-5
18263.671875; 9.15976E-5
18269.531250; 9.41573E-5
18275.390625; 8.60979E-5
18281.250000; 9.80203E-5
18287.109375; 9.97251E-5
18292.968750; 1.03836E-4
18298.828125; 1.01598E-4
18304.687500; 1.05574E-4
18310.546875; 1.02729E-4
18316.406250; 9.68245E-5
18322.265625; 9.48829E-5
18328.125000; 1.00508E-4
18333.984375; 1.01631E-4
18339.843750; 8.82292E-5
18345.703125; 9.55453E-5
18351.562500; 1.01930E-4
18357.421875; 9.72952E-5
18363.281250; 9.19321E-5
18369.140625; 8.84880E-5
18375.000000; 1.04536E-4
18380.859375; 1.03701E-4
18386.718750; 9.83137E-5
18392.578125; 9.97478E-5
18398.437500; 1.04028E-4
18404.296875; 1.05138E-4
18410.156250; 9.72008E-5
18416.015625; 9.48855E-5
18421.875000; 9.97533E-5
18427.734375; 9.55874E-5
18433.593750; 9.57967E-5
18439.453125; 1.00372E-4
18445.312500; 8.97100E-5
18451.171875; 9.78703E-5
18457.031250; 9.13978E-5
18462.890625; 8.84704E-5
18468.750000; 8.94811E-5
18474.609375; 1.00783E-4
18480.468750; 9.81822E-5
18486.328125; 9.25864E-5
18492.187500; 9.93682E-5
18498.046875; 1.04023E-4
18503.906250; 8.56319E-5
18509.765625; 8.77489E-5
18515.625000; 8.99232E-5
18521.484375; 9.58207E-5
18527.343750; 9.88555E-5
18533.203125; 9.19049E-5
18539.062500; 9.75346E-5
18544.921875; 8.84881E-5
18550.781250; 9.75301E-5
18556.640625; 9.67837E-5
18562.500000; 8.57311E-5
18568.359375; 8.67674E-5
18574.218750; 9.10618E-5
18580.078125; 1.02194E-4
18585.937500; 1.02472E-4
18591.796875; 9.73690E-5
18597.656250; 1.02236E-4
18603.515625; 1.00303E-4
18609.375000; 8.85989E-5
18615.234375; 8.42486E-5
18621.093750; 9.93289E-5
18626.953125; 9.69406E-5
18632.812500; 8.99996E-5
18638.671875; 1.04234E-4
18644.531250; 1.13160E-4
18650.390625; 9.58620E-5
18656.250000; 9.22928E-5
18662.109375; 8.96660E-5
18667.968750; 9.08070E-5
18673.828125; 8.84659E-5
18679.687500; 1.03399E-4
18685.546875; 9.89694E-5
18691.406250; 1.03164E-4
18697.265625; 1.00522E-4
18703.125000; 9.58443E-5
18708.984375; 1.06049E-4
18714.843750; 1.06989E-4
18720.703125; 9.47923E-5
18726.562500; 9.03938E-5
18732.421875; 9.08487E-5
18738.281250; 1.02559E-4
18744.140625; 1.03032E-4
18750.000000; 1.05300E-4
18755.859375; 1.00192E-4
18761.718750; 9.60500E-5
18767.578125; 9.43905E-5
18773.437500; 9.71533E-5
18779.296875; 9.40087E-5
18785.156250; 9.58000E-5
18791.015625; 9.77886E-5
18796.875000; 1.03759E-4
18802.734375; 1.08422E-4
18808.593750; 9.64826E-5
18814.453125; 9.33889E-5
18820.312500; 9.01378E-5
18826.171875; 9.23048E-5
18832.031250; 1.03517E-4
18837.890625; 1.04144E-4
18843.750000; 1.01544E-4
18849.609375; 9.59947E-5
18855.468750; 9.96607E-5
18861.328125; 1.01295E-4
18867.187500; 1.10677E-4
18873.046875; 1.05147E-4
18878.906250; 1.02582E-4
18884.765625; 1.01735E-4
18890.625000; 1.11385E-4
18896.484375; 1.07460E-4
18902.343750; 9.72230E-5
18908.203125; 1.01994E-4
18914.062500; 1.00174E-4
18919.921875; 9.81310E-5
18925.781250; 9.72865E-5
18931.640625; 1.07052E-4
18937.500000; 1.01551E-4
18943.359375; 9.08185E-5
18949.218750; 1.02440E-4
18955.078125; 1.05725E-4
18960.937500; 1.02326E-4
18966.796875; 1.06808E-4
18972.656250; 9.87325E-5
18978.515625; 9.13693E-5
18984.375000; 1.04973E-4
18990.234375; 1.05686E-4
18996.093750; 9.47759E-5
19001.953125; 9.57468E-5
19007.812500; 1.06636E-4
19013.671875; 1.10249E-4
19019.531250; 9.75039E-5
19025.390625; 8.49559E-5
19031.250000; 8.74792E-5
19037.109375; 9.48050E-5
19042.968750; 9.44545E-5
19048.828125; 9.69935E-5
19054.687500; 8.65637E-5
19060.546875; 8.48490E-5
19066.406250; 9.18969E-5
19072.265625; 9.51363E-5
19078.125000; 9.66073E-5
19083.984375; 9.18453E-5
19089.843750; 1.08808E-4
19095.703125; 1.05153E-4
19101.562500; 9.71127E-5
19107.421875; 9.37860E-5
19113.281250; 9.02003E-5
19119.140625; 8.88565E-5
19125.000000; 9.20010E-5
19130.859375; 8.93181E-5
19136.718750; 9.91055E-5
19142.578125; 9.25434E-5
19148.437500; 9.54241E-5
19154.296875; 1.05160E-4
19160.156250; 1.10902E-4
19166.015625; 1.01738E-4
19171.875000; 9.45054E-5
19177.734375; 1.01809E-4
19183.593750; 9.92602E-5
19189.453125; 1.02125E-4
19195.312500; 1.01557E-4
19201.171875; 9.89811E-5
19207.031250; 9.99097E-5
19212.890625; 1.00194E-4
19218.750000; 1.04334E-4
19224.609375; 9.45096E-5
19230.468750; 1.03063E-4
19236.328125; 1.03661E-4
19242.187500; 9.73453E-5
19248.046875; 9.02971E-5
19253.906250; 9.46112E-5
19259.765625; 8.76397E-5
19265.625000; 9.60309E-5
19271.484375; 9.99350E-5
19277.343750; 9.69704E-5
19283.203125; 9.86627E-5
19289.062500; 9.62089E-5
19294.921875; 9.40240E-5
19300.781250; 8.84306E-5
19306.640625; 9.24918E-5
19312.500000; 9.48629E-5
19318.359375; 1.01807E-4
19324.218750; 9.45726E-5
19330.078125; 9.42332E-5
19335.937500; 9.05048E-5
19341.796875; 1.03364E-4
19347.656250; 1.09920E-4
19353.515625; 9.56168E-5
19359.375000; 8.99288E-5
19365.234375; 9.61291E-5
19371.093750; 1.01817E-4
19376.953125; 9.81622E-5
19382.812500; 9.50688E-5
19388.671875; 9.88589E-5
19394.531250; 1.03490E-4
19400.390625; 1.01328E-4
19406.250000; 1.04491E-4
19412.109375; 1.05708E-4
19417.968750; 9.93113E-5
19423.828125; 1.00006E-4
19429.687500; 9.68663E-5
19435.546875; 9.12277E-5
19441.406250; 9.15634E-5
19447.265625; 1.01643E-4
19453.125000; 1.06838E-4
19458.984375; 1.06422E-4
19464.843750; 9.45702E-5
19470.703125; 8.55187E-5
19476.562500; 9.03133E-5
19482.421875; 9.15622E-5
19488.281250; 9.66125E-5
19494.140625; 9.85371E-5
19500.000000; 9.30450E-5
19505.859375; 1.03059E-4
19511.718750; 9.89902E-5
19517.578125; 9.87346E-5
19523.437500; 1.03466E-4
19529.296875; 1.05588E-4
19535.156250; 9.58502E-5
19541.015625; 9.38321E-5
19546.875000; 1.05968E-4
19552.734375; 1.07009E-4
19558.593750; 1.01111E-4
19564.453125; 1.00761E-4
19570.312500; 9.18162E-5
19576.171875; 8.95530E-5
19582.031250; 8.89073E-5
19587.890625; 9.04251E-5
19593.750000; 8.77398E-5
19599.609375; 9.00700E-5
19605.468750; 1.02502E-4
19611.328125; 9.85411E-5
19617.187500; 9.67737E-5
19623.046875; 9.23052E-5
19628.906250; 1.03103E-4
19634.765625; 1.01929E-4
19640.625000; 9.78639E-5
19646.484375; 9.27758E-5
19652.343750; 9.45649E-5
19658.203125; 9.75214E-5
19664.062500; 1.01700E-4
19669.921875; 9.96987E-5
19675.781250; 1.03809E-4
19681.640625; 9.96235E-5
19687.500000; 9.54837E-5
19693.359375; 9.30827E-5
19699.218750; 9.75805E-5
19705.078125; 9.37910E-5
19710.937500; 9.84759E-5
19716.796875; 1.05585E-4
19722.656250; 1.04458E-4
19728.515625; 9.96602E-5
19734.375000; 9.92807E-5
19740.234375; 9.95380E-5
19746.093750; 1.03410E-4
19751.953125; 1.09409E-4
19757.812500; 1.06909E-4
19763.671875; 1.05394E-4
19769.531250; 1.07804E-4
19775.390625; 9.86369E-5
19781.250000; 8.82556E-5
19787.109375; 8.53378E-5
19792.968750; 9.68353E-5
19798.828125; 1.00683E-4
19804.687500; 9.73134E-5
19810.546875; 8.43514E-5
19816.406250; 8.34529E-5
19822.265625; 9.03897E-5
19828.125000; 9.65611E-5
19833.984375; 9.82065E-5
19839.843750; 1.02299E-4
19845.703125; 1.01172E-4
19851.562500; 1.05409E-4
19857.421875; 1.09735E-4
19863.281250; 1.08081E-4
19869.140625; 1.04669E-4
19875.000000; 1.01557E-4
19880.859375; 8.97016E-5
19886.718750; 9.23330E-5
19892.578125; 9.05127E-5
19898.437500; 9.91259E-5
19904.296875; 9.54791E-5
19910.156250; 9.31378E-5
19916.015625; 1.00583E-4
19921.875000; 1.07993E-4
19927.734375; 9.27651E-5
19933.593750; 9.17605E-5
19939.453125; 9.26047E-5
19945.312500; 9.22504E-5
19951.171875; 8.98863E-5
19957.031250; 9.55185E-5
19962.890625; 8.83836E-5
19968.750000; 1.01906E-4
19974.609375; 1.03691E-4
19980.468750; 9.13927E-5
19986.328125; 9.61886E-5
19992.187500; 9.46697E-5
19998.046875; 9.95142E-5
20003.906250; 9.00297E-5
20009.765625; 9.95452E-5
20015.625000; 1.09202E-4
20021.484375; 1.02797E-4
20027.343750; 9.67381E-5
20033.203125; 9.42339E-5
20039.062500; 1.02694E-4
20044.921875; 1.13254E-4
20050.781250; 1.06867E-4
20056.640625; 1.02714E-4
20062.500000; 9.99317E-5
20068.359375; 1.05328E-4
20074.218750; 1.09036E-4
20080.078125; 1.00755E-4
20085.937500; 1.00310E-4
20091.796875; 1.02320E-4
20097.656250; 1.09026E-4
20103.515625; 1.01869E-4
20109.375000; 9.69056E-5
20115.234375; 9.52830E-5
20121.093750; 8.71859E-5
20126.953125; 9.25404E-5
20132.812500; 9.49959E-5
20138.671875; 9.84891E-5
20144.531250; 1.04220E-4
20150.390625; 9.71997E-5
20156.250000; 1.00908E-4
20162.109375; 1.02383E-4
20167.968750; 1.04079E-4
20173.828125; 9.26113E-5
20179.687500; 9.60697E-5
20185.546875; 9.67454E-5
20191.406250; 9.43821E-5
20197.265625; 9.46558E-5
20203.125000; 1.05976E-4
20208.984375; 1.04922E-4
20214.843750; 1.01784E-4
20220.703125; 8.63827E-5
20226.562500; 8.73973E-5
20232.421875; 9.54045E-5
20238.281250; 1.02357E-4
20244.140625; 9.75610E-5
20250.000000; 8.75980E-5
20255.859375; 9.59684E-5
20261.718750; 9.55814E-5
20267.578125; 8.88975E-5
20273.437500; 8.60866E-5
20279.296875; 9.47318E-5
20285.156250; 9.45598E-5
20291.015625; 9.74835E-5
20296.875000; 9.58467E-5
20302.734375; 9.25429E-5
20308.593750; 1.01642E-4
20314.453125; 9.70507E-5
20320.312500; 9.72067E-5
20326.171875; 1.01052E-4
20332.031250; 9.14182E-5
20337.890625; 9.41098E-5
20343.750000; 9.18215E-5
20349.609375; 9.73742E-5
20355.468750; 1.01019E-4
20361.328125; 1.04278E-4
20367.187500; 1.07113E-4
20373.046875; 9.60364E-5
20378.906250; 8.88551E-5
20384.765625; 8.70472E-5
20390.625000; 9.69742E-5
20396.484375; 1.02022E-4
20402.343750; 1.06044E-4
20408.203125; 1.01745E-4
20414.062500; 9.76119E-5
20419.921875; 9.95231E-5
20425.781250; 9.95517E-5
20431.640625; 9.60038E-5
20437.500000; 8.94976E-5
20443.359375; 8.56346E-5
20449.218750; 8.74265E-5
20455.078125; 9.53361E-5
20460.937500; 9.92478E-5
20466.796875; 9.47968E-5
20472.656250; 1.00061E-4
20478.515625; 1.00620E-4
20484.375000; 9.19931E-5
20490.234375; 9.62848E-5
20496.093750; 9.83909E-5
20501.953125; 9.70754E-5
20507.812500; 9.42058E-5
20513.671875; 9.82724E-5
20519.531250; 9.69215E-5
20525.390625; 8.66403E-5
20531.250000; 8.99337E-5
20537.109375; 9.53036E-5
20542.968750; 1.01127E-4
20548.828125; 8.83439E-5
20554.687500; 8.70705E-5
20560.546875; 9.49156E-5
20566.406250; 9.93985E-5
20572.265625; 9.81041E-5
20578.125000; 9.66203E-5
20583.984375; 1.02151E-4
20589.843750; 9.94249E-5
20595.703125; 9.59803E-5
20601.562500; 9.49415E-5
20607.421875; 9.27956E-5
20613.281250; 9.78121E-5
20619.140625; 9.80887E-5
20625.000000; 9.42517E-5
20630.859375; 9.95907E-5
20636.718750; 9.34056E-5
20642.578125; 1.01833E-4
20648.437500; 1.08109E-4
20654.296875; 1.02480E-4
20660.156250; 9.47819E-5
20666.015625; 1.08278E-4
20671.875000; 1.02295E-4
20677.734375; 8.56990E-5
20683.593750; 9.93731E-5
20689.453125; 9.96012E-5
20695.312500; 1.01150E-4
20701.171875; 1.04079E-4
20707.031250; 9.40953E-5
20712.890625; 8.96414E-5
20718.750000; 9.02963E-5
20724.609375; 8.81381E-5
20730.468750; 9.69958E-5
20736.328125; 9.98071E-5
20742.187500; 9.86571E-5
20748.046875; 1.04512E-4
20753.906250; 9.18678E-5
20759.765625; 8.52556E-5
20765.625000; 8.96604E-5
20771.484375; 9.97760E-5
20777.343750; 9.23500E-5
20783.203125; 8.89893E-5
20789.062500; 8.95305E-5
20794.921875; 9.63014E-5
20800.781250; 9.39440E-5
20806.640625; 8.80318E-5
20812.500000; 9.79345E-5
20818.359375; 1.01838E-4
20824.218750; 9.20362E-5
20830.078125; 9.21807E-5
20835.937500; 9.52550E-5
20841.796875; 9.73660E-5
20847.656250; 9.39361E-5
20853.515625; 9.49636E-5
20859.375000; 1.01498E-4
20865.234375; 9.54311E-5
20871.093750; 9.95448E-5
20876.953125; 9.85054E-5
20882.812500; 9.61459E-5
20888.671875; 1.06786E-4
20894.531250; 1.02842E-4
20900.390625; 1.00771E-4
20906.250000; 1.08060E-4
20912.109375; 1.10119E-4
20917.968750; 1.04383E-4
20923.828125; 9.84437E-5
20929.687500; 8.17509E-5
20935.546875; 9.08135E-5
20941.406250; 9.99809E-5
20947.265625; 9.27144E-5
20953.125000; 8.99409E-5
20958.984375; 9.18018E-5
20964.843750; 8.68660E-5
20970.703125; 9.53048E-5
20976.562500; 9.37529E-5
20982.421875; 1.02261E-4
20988.281250; 1.05980E-4
20994.140625; 1.14213E-4
21000.000000; 1.03468E-4
21005.859375; 9.49085E-5
21011.718750; 9.83851E-5
21017.578125; 1.05984E-4
21023.437500; 9.79290E-5
21029.296875; 9.54671E-5
21035.156250; 9.62630E-5
21041.015625; 1.01970E-4
21046.875000; 8.62353E-5
21052.734375; 9.36417E-5
21058.593750; 1.01593E-4
21064.453125; 9.43293E-5
21070.312500; 8.98748E-5
21076.171875; 9.22583E-5
21082.031250; 9.38038E-5
21087.890625; 9.05602E-5
21093.750000; 8.96703E-5
21099.609375; 9.70436E-5
21105.468750; 8.74869E-5
21111.328125; 8.62766E-5
21117.187500; 9.87368E-5
21123.046875; 1.13996E-4
21128.906250; 9.75689E-5
21134.765625; 8.66003E-5
21140.625000; 9.44164E-5
21146.484375; 1.01859E-4
21152.343750; 1.02781E-4
21158.203125; 9.93024E-5
21164.062500; 1.00577E-4
21169.921875; 9.90134E-5
21175.781250; 9.37332E-5
21181.640625; 9.72823E-5
21187.500000; 8.57044E-5
21193.359375; 8.77358E-5
21199.218750; 9.63570E-5
21205.078125; 1.02836E-4
21210.937500; 1.03619E-4
21216.796875; 1.02811E-4
21222.656250; 1.01102E-4
21228.515625; 9.95929E-5
21234.375000; 9.96692E-5
21240.234375; 9.29336E-5
21246.093750; 9.00708E-5
21251.953125; 9.21485E-5
21257.812500; 9.46120E-5
21263.671875; 1.06714E-4
21269.531250; 9.70918E-5
21275.390625; 8.99369E-5
21281.250000; 9.64074E-5
21287.109375; 9.06484E-5
21292.968750; 8.49333E-5
21298.828125; 8.74816E-5
21304.687500; 9.40695E-5
21310.546875; 1.00519E-4
21316.406250; 9.03486E-5
21322.265625; 1.03413E-4
21328.125000; 9.86824E-5
21333.984375; 9.64223E-5
21339.843750; 9.75983E-5
21345.703125; 9.77016E-5
21351.562500; 9.23099E-5
21357.421875; 9.23632E-5
21363.281250; 8.75863E-5
21369.140625; 8.28473E-5
21375.000000; 9.26344E-5
21380.859375; 8.76826E-5
21386.718750; 9.07659E-5
21392.578125; 9.35705E-5
21398.437500; 9.87073E-5
21404.296875; 9.87939E-5
21410.156250; 9.57628E-5
21416.015625; 8.67503E-5
21421.875000; 9.50127E-5
21427.734375; 9.26313E-5
21433.593750; 9.77238E-5
21439.453125; 9.68288E-5
21445.312500; 9.26881E-5
21451.171875; 1.06737E-4
21457.031250; 1.03197E-4
21462.890625; 1.00965E-4
21468.750000; 9.47936E-5
21474.609375; 9.97382E-5
21480.468750; 1.09059E-4
21486.328125; 1.03030E-4
21492.187500; 9.76495E-5
21498.046875; 9.43123E-5
21503.906250; 8.70832E-5
21509.765625; 9.12157E-5
21515.625000; 9.18571E-5
21521.484375; 1.07592E-4
21527.343750; 9.99838E-5
21533.203125; 9.01485E-5
21539.062500; 9.39891E-5
21544.921875; 8.80464E-5
21550.781250; 8.76246E-5
21556.640625; 9.64818E-5
21562.500000; 8.93403E-5
21568.359375; 8.61338E-5
21574.218750; 9.29032E-5
21580.078125; 9.25705E-5
21585.937500; 9.22803E-5
21591.796875; 1.03074E-4
21597.656250; 1.00094E-4
21603.515625; 8.64569E-5
21609.375000; 8.35476E-5
21615.234375; 8.73244E-5
21621.093750; 9.08292E-5
21626.953125; 9.73313E-5
21632.812500; 9.15011E-5
21638.671875; 9.47118E-5
21644.531250; 9.11973E-5
21650.390625; 9.58589E-5
21656.250000; 9.65256E-5
21662.109375; 9.43743E-5
21667.968750; 9.63056E-5
21673.828125; 8.68800E-5
21679.687500; 9.54193E-5
21685.546875; 1.02289E-4
21691.406250; 9.54177E-5
21697.265625; 8.64533E-5
21703.125000; 9.30740E-5
21708.984375; 9.88895E-5
21714.843750; 9.89143E-5
21720.703125; 9.44954E-5
21726.562500; 9.79474E-5
21732.421875; 9.56646E-5
21738.281250; 9.41922E-5
21744.140625; 9.71776E-5
21750.000000; 9.84215E-5
21755.859375; 9.48468E-5
21761.718750; 8.77355E-5
21767.578125; 9.83743E-5
21773.437500; 9.77199E-5
21779.296875; 8.67370E-5
21785.156250; 9.29914E-5
21791.015625; 8.93408E-5
21796.875000; 9.27756E-5
21802.734375; 8.75126E-5
21808.593750; 9.02461E-5
21814.453125; 9.25793E-5
21820.312500; 9.42249E-5
21826.171875; 9.63954E-5
21832.031250; 9.54276E-5
21837.890625; 8.31776E-5
21843.750000; 9.08377E-5
21849.609375; 9.30580E-5
21855.468750; 8.92580E-5
21861.328125; 9.04225E-5
21867.187500; 9.42115E-5
21873.046875; 9.50366E-5
21878.906250; 9.44296E-5
21884.765625; 8.84036E-5
21890.625000; 8.88319E-5
21896.484375; 9.02381E-5
21902.343750; 9.11836E-5
21908.203125; 9.29992E-5
21914.062500; 9.49959E-5
21919.921875; 9.30525E-5
21925.781250; 9.74366E-5
21931.640625; 1.00893E-4
21937.500000; 9.41921E-5
21943.359375; 9.19938E-5
21949.218750; 9.40236E-5
21955.078125; 1.00719E-4
21960.937500; 9.83978E-5
21966.796875; 9.62884E-5
21972.656250; 9.78486E-5
21978.515625; 9.68341E-5
21984.375000; 9.92729E-5
21990.234375; 9.69263E-5
21996.093750; 9.43454E-5
22001.953125; 9.27114E-5
22007.812500; 9.17151E-5
22013.671875; 1.05408E-4
22019.531250; 1.02470E-4
22025.390625; 9.06718E-5
22031.250000; 9.64299E-5
22037.109375; 9.77176E-5
22042.968750; 9.64752E-5
22048.828125; 9.69572E-5
22054.687500; 9.86649E-5
22060.546875; 9.28861E-5
22066.406250; 9.18541E-5
22072.265625; 9.10824E-5
22078.125000; 9.95845E-5
22083.984375; 9.73944E-5
22089.843750; 9.22383E-5
22095.703125; 9.89755E-5
22101.562500; 9.74199E-5
22107.421875; 1.03846E-4
22113.281250; 1.07365E-4
22119.140625; 9.58338E-5
22125.000000; 1.02959E-4
22130.859375; 1.01913E-4
22136.718750; 9.41993E-5
22142.578125; 9.85197E-5
22148.437500; 1.03222E-4
22154.296875; 9.58883E-5
22160.156250; 8.66005E-5
22166.015625; 8.37455E-5
22171.875000; 8.60159E-5
22177.734375; 8.43086E-5
22183.593750; 9.47004E-5
22189.453125; 1.07547E-4
22195.312500; 9.54448E-5
22201.171875; 9.75649E-5
22207.031250; 1.02144E-4
22212.890625; 9.43777E-5
22218.750000; 8.99898E-5
22224.609375; 1.03241E-4
22230.468750; 1.10368E-4
22236.328125; 1.06397E-4
22242.187500; 9.50135E-5
22248.046875; 9.29478E-5
22253.906250; 9.51097E-5
22259.765625; 8.44225E-5
22265.625000; 8.82704E-5
22271.484375; 8.61115E-5
22277.343750; 8.91155E-5
22283.203125; 9.12198E-5
22289.062500; 9.33819E-5
22294.921875; 8.78336E-5
22300.781250; 9.02499E-5
22306.640625; 8.98871E-5
22312.500000; 9.05192E-5
22318.359375; 8.46338E-5
22324.218750; 9.29094E-5
22330.078125; 9.13498E-5
22335.937500; 9.00673E-5
22341.796875; 8.99307E-5
22347.656250; 8.62585E-5
22353.515625; 8.51843E-5
22359.375000; 8.95974E-5
22365.234375; 1.00391E-4
22371.093750; 8.93539E-5
22376.953125; 8.30673E-5
22382.812500; 8.96778E-5
22388.671875; 9.60559E-5
22394.531250; 9.59583E-5
22400.390625; 8.57748E-5
22406.250000; 7.89081E-5
22412.109375; 8.97846E-5
22417.968750; 1.05624E-4
22423.828125; 9.48786E-5
22429.687500; 8.88536E-5
22435.546875; 9.00451E-5
22441.406250; 8.39693E-5
22447.265625; 8.37918E-5
22453.125000; 8.71618E-5
22458.984375; 9.17286E-5
22464.843750; 9.15824E-5
22470.703125; 9.05515E-5
22476.562500; 8.77304E-5
22482.421875; 8.28189E-5
22488.281250; 8.51457E-5
22494.140625; 8.58903E-5
22500.000000; 9.50196E-5
22505.859375; 9.87737E-5
22511.718750; 9.07450E-5
22517.578125; 8.77162E-5
22523.437500; 9.76839E-5
22529.296875; 9.02204E-5
22535.156250; 9.22105E-5
22541.015625; 8.40779E-5
22546.875000; 8.52954E-5
22552.734375; 8.09587E-5
22558.593750; 9.62211E-5
22564.453125; 9.74674E-5
22570.312500; 9.43967E-5
22576.171875; 9.48218E-5
22582.031250; 8.72331E-5
22587.890625; 9.48453E-5
22593.750000; 8.46982E-5
22599.609375; 7.58350E-5
22605.468750; 7.51012E-5
22611.328125; 7.56781E-5
22617.187500; 8.34395E-5
22623.046875; 9.36570E-5
22628.906250; 9.66486E-5
22634.765625; 9.19112E-5
22640.625000; 9.14197E-5
22646.484375; 8.27299E-5
22652.343750; 9.02006E-5
22658.203125; 8.24055E-5
22664.062500; 8.93218E-5
22669.921875; 8.12941E-5
22675.781250; 8.05812E-5
22681.640625; 8.70042E-5
22687.500000; 8.17540E-5
22693.359375; 8.43483E-5
22699.218750; 7.94309E-5
22705.078125; 7.77746E-5
22710.937500; 8.38004E-5
22716.796875; 8.43693E-5
22722.656250; 8.60543E-5
22728.515625; 8.66477E-5
22734.375000; 8.10174E-5
22740.234375; 7.68137E-5
22746.093750; 7.84879E-5
22751.953125; 7.35199E-5
22757.812500; 8.04659E-5
22763.671875; 7.88987E-5
22769.531250; 8.12351E-5
22775.390625; 9.27863E-5
22781.250000; 9.32980E-5
22787.109375; 8.36445E-5
22792.968750; 8.27647E-5
22798.828125; 8.39022E-5
22804.687500; 7.91978E-5
22810.546875; 7.81058E-5
22816.406250; 8.81237E-5
22822.265625; 8.49415E-5
22828.125000; 8.20735E-5
22833.984375; 8.68982E-5
22839.843750; 8.63434E-5
22845.703125; 8.56928E-5
22851.562500; 8.24657E-5
22857.421875; 8.59627E-5
22863.281250; 7.41863E-5
22869.140625; 7.71516E-5
22875.000000; 7.64240E-5
22880.859375; 7.76631E-5
22886.718750; 7.67190E-5
22892.578125; 7.95693E-5
22898.437500; 8.07574E-5
22904.296875; 7.85401E-5
22910.156250; 7.91785E-5
22916.015625; 7.91660E-5
22921.875000; 7.39221E-5
22927.734375; 7.93770E-5
22933.593750; 8.09193E-5
22939.453125; 7.57923E-5
22945.312500; 7.57267E-5
22951.171875; 8.35539E-5
22957.031250; 7.96390E-5
22962.890625; 7.69567E-5
22968.750000; 7.41419E-5
22974.609375; 7.44543E-5
22980.468750; 7.78989E-5
22986.328125; 7.50602E-5
22992.187500; 6.92929E-5
22998.046875; 7.27138E-5
23003.906250; 6.73813E-5
23009.765625; 7.21903E-5
23015.625000; 7.11719E-5
23021.484375; 6.88299E-5
23027.343750; 6.92553E-5
23033.203125; 7.09169E-5
23039.062500; 7.58243E-5
23044.921875; 7.09180E-5
23050.781250; 7.16349E-5
23056.640625; 6.92451E-5
23062.500000; 6.33128E-5
23068.359375; 6.41823E-5
23074.218750; 7.06538E-5
23080.078125; 7.91597E-5
23085.937500; 6.22848E-5
23091.796875; 5.78036E-5
23097.656250; 6.44365E-5
23103.515625; 6.24583E-5
23109.375000; 6.54701E-5
23115.234375; 6.28642E-5
23121.093750; 6.55293E-5
23126.953125; 7.18275E-5
23132.812500; 6.68536E-5
23138.671875; 6.81791E-5
23144.531250; 6.60841E-5
23150.390625; 6.39539E-5
23156.250000; 6.74995E-5
23162.109375; 6.31453E-5
23167.968750; 5.60570E-5
23173.828125; 6.34271E-5
23179.687500; 6.61375E-5
23185.546875; 6.14509E-5
23191.406250; 6.32588E-5
23197.265625; 6.67610E-5
23203.125000; 6.70486E-5
23208.984375; 6.45217E-5
23214.843750; 6.02246E-5
23220.703125; 6.30632E-5
23226.562500; 6.37561E-5
23232.421875; 5.98095E-5
23238.281250; 6.21099E-5
23244.140625; 6.53302E-5
23250.000000; 6.79269E-5
23255.859375; 6.69794E-5
23261.718750; 6.65844E-5
23267.578125; 6.77850E-5
23273.437500; 5.58509E-5
23279.296875; 5.92048E-5
23285.156250; 6.12224E-5
23291.015625; 6.17491E-5
23296.875000; 5.69513E-5
23302.734375; 5.20930E-5
23308.593750; 5.18451E-5
23314.453125; 5.54010E-5
23320.312500; 5.33208E-5
23326.171875; 5.73095E-5
23332.031250; 5.39080E-5
23337.890625; 5.31162E-5
23343.750000; 5.28599E-5
23349.609375; 4.92985E-5
23355.468750; 5.57000E-5
23361.328125; 5.41616E-5
23367.187500; 5.20082E-5
23373.046875; 5.61275E-5
23378.906250; 5.47224E-5
23384.765625; 4.95871E-5
23390.625000; 4.97700E-5
23396.484375; 5.37064E-5
23402.343750; 5.27762E-5
23408.203125; 5.21227E-5
23414.062500; 4.81629E-5
23419.921875; 5.00588E-5
23425.781250; 4.91665E-5
23431.640625; 4.71110E-5
23437.500000; 4.48617E-5
23443.359375; 5.25111E-5
23449.218750; 5.46602E-5
23455.078125; 5.22677E-5
23460.937500; 4.60421E-5
23466.796875; 4.60819E-5
23472.656250; 5.42605E-5
23478.515625; 5.62475E-5
23484.375000; 4.83109E-5
23490.234375; 4.55382E-5
23496.093750; 4.52859E-5
23501.953125; 4.59616E-5
23507.812500; 4.32920E-5
23513.671875; 4.74924E-5
23519.531250; 5.02727E-5
23525.390625; 5.02821E-5
23531.250000; 4.38920E-5
23537.109375; 4.37517E-5
23542.968750; 4.98209E-5
23548.828125; 4.89641E-5
23554.687500; 4.94055E-5
23560.546875; 4.72301E-5
23566.406250; 4.34881E-5
23572.265625; 4.27501E-5
23578.125000; 4.43052E-5
23583.984375; 4.51846E-5
23589.843750; 4.00640E-5
23595.703125; 4.04092E-5
23601.562500; 4.48743E-5
23607.421875; 4.35696E-5
23613.281250; 4.58336E-5
23619.140625; 4.52390E-5
23625.000000; 4.00346E-5
23630.859375; 4.03875E-5
23636.718750; 4.10958E-5
23642.578125; 4.04672E-5
23648.437500; 4.05145E-5
23654.296875; 4.39237E-5
23660.156250; 4.01866E-5
23666.015625; 4.20339E-5
23671.875000; 4.42633E-5
23677.734375; 4.26214E-5
23683.593750; 4.10850E-5
23689.453125; 3.85209E-5
23695.312500; 3.71385E-5
23701.171875; 3.40786E-5
23707.031250; 3.66980E-5
23712.890625; 3.99565E-5
23718.750000; 4.01684E-5
23724.609375; 4.15090E-5
23730.468750; 4.07853E-5
23736.328125; 3.58692E-5
23742.187500; 3.54597E-5
23748.046875; 3.59800E-5
23753.906250; 3.81937E-5
23759.765625; 3.42061E-5
23765.625000; 3.74159E-5
23771.484375; 3.98933E-5
23777.343750; 3.65421E-5
23783.203125; 2.97593E-5
23789.062500; 3.21664E-5
23794.921875; 3.63133E-5
23800.781250; 3.85675E-5
23806.640625; 3.86113E-5
23812.500000; 3.79127E-5
23818.359375; 3.66214E-5
23824.218750; 3.49080E-5
23830.078125; 3.49153E-5
23835.937500; 3.69434E-5
23841.796875; 3.72138E-5
23847.656250; 3.60195E-5
23853.515625; 3.31240E-5
23859.375000; 3.40310E-5
23865.234375; 3.66673E-5
23871.093750; 3.52955E-5
23876.953125; 3.84359E-5
23882.812500; 3.45310E-5
23888.671875; 3.45209E-5
23894.531250; 3.44888E-5
23900.390625; 3.40771E-5
23906.250000; 3.52752E-5
23912.109375; 3.52042E-5
23917.968750; 3.54901E-5
23923.828125; 3.50129E-5
23929.687500; 3.42543E-5
23935.546875; 3.48837E-5
23941.406250; 3.37298E-5
23947.265625; 3.01625E-5
23953.125000; 2.93131E-5
23958.984375; 3.61880E-5
23964.843750; 3.37011E-5
23970.703125; 3.05845E-5
23976.562500; 2.96123E-5
23982.421875; 2.97443E-5
23988.281250; 3.26423E-5
23994.140625; 3.55171E-5
