* Measurement data measured by REW V5.31.3
* Source: PCM: default, no input selected, 2, volume: no control
* Format: 8192-point spectrum using Hann window and exponential averaging 0.97 
* Dated: Mar 9, 2025 1:13:36 PM
* REW Settings:
*  C-weighting compensation: Off
*  Target level: 75.0 dB
* Note: OSDEHA MU-OUTPUT; 8192-point spectrum using Hann window and exponential averaging 0.97  Input RMS 4.218 V 4.218 VC, 4.218 VA 4.218 V 22 - 22k UNW 957.9 uV >22k Distortion at 1,000.0 Hz, -27.50 dBFS: Gain: 29.68 dB THD: 0.012 % based on 21 harmonics  [0..22800 Hz] HHD: 0.0091 %  [10 .. 22] N: 0.33 %  [0..22800 Hz] N+D: 4.363 mV A THD+N: 0.33 %  [0..22800 Hz] SNR: 49.6 dB ENOB: 13.0 bits 2nd harmonic 0.0038 % 141 deg 3rd harmonic 0.0027 % 70 deg 4th harmonic 0.0025 % 174 deg 5th harmonic 0.0028 % -66 deg 6th harmonic 0.0025 % 80 deg 7th harmonic 0.0028 % -128 deg 8th harmonic 0.0025 % -27 deg 9th harmonic 0.0026 % -91 deg 
* Measurement: OSDEHA MU-OUT 4.21V
* Smoothing: None
* Frequency Step: 5.859375 Hz
* Start Frequency: 5.859375 Hz
*
* Freq(Hz); V(V)
5.859375; 2.75059E-4
11.718750; 2.55887E-4
17.578125; 2.20988E-4
23.437500; 2.06665E-4
29.296875; 2.09296E-4
35.156250; 2.13273E-4
41.015625; 1.94762E-4
46.875000; 3.17066E-4
52.734375; 3.24227E-4
58.593750; 1.61154E-4
64.453125; 1.54739E-4
70.312500; 1.49044E-4
76.171875; 1.41707E-4
82.031250; 1.54122E-4
87.890625; 2.02944E-4
93.750000; 5.77266E-3
99.609375; 1.27211E-2
105.468750; 6.97388E-3
111.328125; 2.07998E-4
117.187500; 1.66827E-4
123.046875; 1.63928E-4
128.906250; 1.59399E-4
134.765625; 1.57224E-4
140.625000; 1.40408E-4
146.484375; 1.46793E-4
152.343750; 1.59901E-4
158.203125; 1.72873E-4
164.062500; 1.33889E-4
169.921875; 1.36842E-4
175.781250; 1.37075E-4
181.640625; 1.39522E-4
187.500000; 1.46142E-4
193.359375; 5.68932E-4
199.218750; 1.33324E-3
205.078125; 8.09258E-4
210.937500; 1.35949E-4
216.796875; 1.44746E-4
222.656250; 1.34166E-4
228.515625; 1.25757E-4
234.375000; 1.43928E-4
240.234375; 1.46118E-4
246.093750; 1.44813E-4
251.953125; 1.40620E-4
257.812500; 1.19584E-4
263.671875; 1.23094E-4
269.531250; 1.33572E-4
275.390625; 1.27922E-4
281.250000; 1.27332E-4
287.109375; 1.11648E-4
292.968750; 1.77386E-4
298.828125; 3.24164E-4
304.687500; 2.12469E-4
310.546875; 1.13510E-4
316.406250; 1.10364E-4
322.265625; 1.19472E-4
328.125000; 1.24119E-4
333.984375; 1.32299E-4
339.843750; 1.20735E-4
345.703125; 1.26171E-4
351.562500; 1.22849E-4
357.421875; 1.20208E-4
363.281250; 1.26144E-4
369.140625; 1.30457E-4
375.000000; 1.17938E-4
380.859375; 1.36757E-4
386.718750; 1.35872E-4
392.578125; 1.51167E-4
398.437500; 2.78690E-4
404.296875; 2.20686E-4
410.156250; 1.38439E-4
416.015625; 1.28170E-4
421.875000; 1.12087E-4
427.734375; 1.23939E-4
433.593750; 1.19706E-4
439.453125; 1.25709E-4
445.312500; 1.27212E-4
451.171875; 1.10604E-4
457.031250; 1.13652E-4
462.890625; 1.14086E-4
468.750000; 1.05344E-4
474.609375; 1.11918E-4
480.468750; 1.12172E-4
486.328125; 1.23664E-4
492.187500; 1.32009E-4
498.046875; 1.43354E-4
503.906250; 1.26992E-4
509.765625; 1.35180E-4
515.625000; 1.19239E-4
521.484375; 1.13690E-4
527.343750; 1.21363E-4
533.203125; 1.23581E-4
539.062500; 1.16022E-4
544.921875; 1.07492E-4
550.781250; 1.00330E-4
556.640625; 1.05285E-4
562.500000; 1.09181E-4
568.359375; 1.10523E-4
574.218750; 1.05224E-4
580.078125; 1.15547E-4
585.937500; 1.22249E-4
591.796875; 1.17524E-4
597.656250; 1.12673E-4
603.515625; 1.27382E-4
609.375000; 1.18413E-4
615.234375; 1.08710E-4
621.093750; 1.11620E-4
626.953125; 1.13412E-4
632.812500; 1.19339E-4
638.671875; 1.03802E-4
644.531250; 1.12887E-4
650.390625; 1.18353E-4
656.250000; 1.07747E-4
662.109375; 1.17524E-4
667.968750; 1.18670E-4
673.828125; 1.17448E-4
679.687500; 1.09980E-4
685.546875; 1.16035E-4
691.406250; 1.14030E-4
697.265625; 1.31014E-4
703.125000; 1.27091E-4
708.984375; 1.23412E-4
714.843750; 1.12161E-4
720.703125; 1.07798E-4
726.562500; 1.05627E-4
732.421875; 1.20616E-4
738.281250; 1.10027E-4
744.140625; 1.13461E-4
750.000000; 1.17165E-4
755.859375; 1.22457E-4
761.718750; 1.04526E-4
767.578125; 1.03429E-4
773.437500; 1.21011E-4
779.296875; 1.37923E-4
785.156250; 1.20398E-4
791.015625; 1.25261E-4
796.875000; 1.32397E-4
802.734375; 1.35891E-4
808.593750; 1.20328E-4
814.453125; 1.09385E-4
820.312500; 1.22304E-4
826.171875; 1.25327E-4
832.031250; 1.29210E-4
837.890625; 1.24637E-4
843.750000; 1.28764E-4
849.609375; 1.14942E-4
855.468750; 1.24758E-4
861.328125; 1.49737E-4
867.187500; 1.59767E-4
873.046875; 1.51767E-4
878.906250; 1.88684E-4
884.765625; 1.90556E-4
890.625000; 2.10158E-4
896.484375; 2.32144E-4
902.343750; 2.82472E-4
908.203125; 3.18428E-4
914.062500; 3.80750E-4
919.921875; 4.81502E-4
925.781250; 5.95475E-4
931.640625; 7.22099E-4
937.500000; 9.96032E-4
943.359375; 1.29283E-3
949.218750; 1.82608E-3
955.078125; 2.62393E-3
960.937500; 4.00827E-3
966.796875; 6.59721E-3
972.656250; 1.20001E-2
978.515625; 2.54714E-2
984.375000; 7.13455E-2
990.234375; 3.92402E-1
996.093750; 3.13920E0
1001.953125; 3.92400E0
1007.812500; 1.12114E0
1013.671875; 1.12122E-1
1019.531250; 3.45069E-2
1025.390625; 1.50764E-2
1031.250000; 7.95170E-3
1037.109375; 4.70238E-3
1042.968750; 2.99611E-3
1048.828125; 2.04102E-3
1054.687500; 1.45121E-3
1060.546875; 1.06794E-3
1066.406250; 8.21203E-4
1072.265625; 6.24105E-4
1078.125000; 5.15732E-4
1083.984375; 4.13767E-4
1089.843750; 3.33781E-4
1095.703125; 2.92660E-4
1101.562500; 2.55898E-4
1107.421875; 2.12842E-4
1113.281250; 2.11784E-4
1119.140625; 1.63760E-4
1125.000000; 1.65483E-4
1130.859375; 1.51105E-4
1136.718750; 1.46259E-4
1142.578125; 1.39776E-4
1148.437500; 1.33708E-4
1154.296875; 1.30624E-4
1160.156250; 1.26640E-4
1166.015625; 1.14835E-4
1171.875000; 1.21732E-4
1177.734375; 1.24612E-4
1183.593750; 1.26424E-4
1189.453125; 1.17148E-4
1195.312500; 1.09578E-4
1201.171875; 1.02586E-4
1207.031250; 1.09271E-4
1212.890625; 1.14636E-4
1218.750000; 1.13723E-4
1224.609375; 1.12428E-4
1230.468750; 1.11165E-4
1236.328125; 1.12216E-4
1242.187500; 1.16787E-4
1248.046875; 1.18791E-4
1253.906250; 1.13212E-4
1259.765625; 1.09061E-4
1265.625000; 1.03287E-4
1271.484375; 1.10061E-4
1277.343750; 1.08639E-4
1283.203125; 1.21074E-4
1289.062500; 1.17732E-4
1294.921875; 1.16527E-4
1300.781250; 1.15280E-4
1306.640625; 1.10795E-4
1312.500000; 1.14875E-4
1318.359375; 1.34964E-4
1324.218750; 1.33430E-4
1330.078125; 1.17173E-4
1335.937500; 1.01919E-4
1341.796875; 1.07065E-4
1347.656250; 1.12019E-4
1353.515625; 1.17941E-4
1359.375000; 1.11830E-4
1365.234375; 1.15419E-4
1371.093750; 1.20747E-4
1376.953125; 1.10079E-4
1382.812500; 1.10424E-4
1388.671875; 1.06960E-4
1394.531250; 1.13753E-4
1400.390625; 1.04489E-4
1406.250000; 1.13175E-4
1412.109375; 1.19363E-4
1417.968750; 1.25319E-4
1423.828125; 1.14997E-4
1429.687500; 1.15092E-4
1435.546875; 1.22690E-4
1441.406250; 1.20463E-4
1447.265625; 1.17133E-4
1453.125000; 1.22340E-4
1458.984375; 1.21761E-4
1464.843750; 1.14755E-4
1470.703125; 1.08013E-4
1476.562500; 1.02669E-4
1482.421875; 1.12929E-4
1488.281250; 1.21544E-4
1494.140625; 1.19765E-4
1500.000000; 1.10943E-4
1505.859375; 1.00747E-4
1511.718750; 1.12759E-4
1517.578125; 1.12075E-4
1523.437500; 1.08106E-4
1529.296875; 9.40904E-5
1535.156250; 1.12085E-4
1541.015625; 1.13046E-4
1546.875000; 1.05374E-4
1552.734375; 1.21170E-4
1558.593750; 1.27340E-4
1564.453125; 1.15672E-4
1570.312500; 1.16009E-4
1576.171875; 1.17772E-4
1582.031250; 1.22054E-4
1587.890625; 1.17168E-4
1593.750000; 1.25355E-4
1599.609375; 1.25901E-4
1605.468750; 1.17792E-4
1611.328125; 1.19523E-4
1617.187500; 1.19597E-4
1623.046875; 1.18932E-4
1628.906250; 1.16902E-4
1634.765625; 1.05988E-4
1640.625000; 9.28597E-5
1646.484375; 9.77291E-5
1652.343750; 1.11045E-4
1658.203125; 1.12431E-4
1664.062500; 1.05407E-4
1669.921875; 1.00549E-4
1675.781250; 1.12230E-4
1681.640625; 1.03253E-4
1687.500000; 1.03662E-4
1693.359375; 1.08143E-4
1699.218750; 1.10677E-4
1705.078125; 1.08537E-4
1710.937500; 1.03023E-4
1716.796875; 9.14634E-5
1722.656250; 1.03459E-4
1728.515625; 1.12018E-4
1734.375000; 1.16919E-4
1740.234375; 1.15369E-4
1746.093750; 1.05584E-4
1751.953125; 1.14583E-4
1757.812500; 1.17361E-4
1763.671875; 1.13735E-4
1769.531250; 1.11012E-4
1775.390625; 1.12677E-4
1781.250000; 1.02416E-4
1787.109375; 1.12914E-4
1792.968750; 1.12537E-4
1798.828125; 1.08554E-4
1804.687500; 1.06283E-4
1810.546875; 1.11676E-4
1816.406250; 1.14728E-4
1822.265625; 1.25535E-4
1828.125000; 1.23580E-4
1833.984375; 1.17180E-4
1839.843750; 1.08126E-4
1845.703125; 1.09368E-4
1851.562500; 1.22603E-4
1857.421875; 1.22698E-4
1863.281250; 1.12424E-4
1869.140625; 1.10523E-4
1875.000000; 1.16363E-4
1880.859375; 1.20350E-4
1886.718750; 1.11641E-4
1892.578125; 1.18455E-4
1898.437500; 1.07703E-4
1904.296875; 9.59173E-5
1910.156250; 1.17123E-4
1916.015625; 1.23801E-4
1921.875000; 1.08583E-4
1927.734375; 1.07935E-4
1933.593750; 1.10370E-4
1939.453125; 1.19014E-4
1945.312500; 1.19888E-4
1951.171875; 1.13075E-4
1957.031250; 1.07871E-4
1962.890625; 1.09694E-4
1968.750000; 1.12313E-4
1974.609375; 1.07406E-4
1980.468750; 9.63985E-5
1986.328125; 1.04975E-4
1992.187500; 1.27986E-4
1998.046875; 2.08792E-4
2003.906250; 1.73204E-4
2009.765625; 1.16713E-4
2015.625000; 1.20903E-4
2021.484375; 1.19888E-4
2027.343750; 1.15134E-4
2033.203125; 1.00395E-4
2039.062500; 1.00426E-4
2044.921875; 1.14610E-4
2050.781250; 1.12335E-4
2056.640625; 1.20251E-4
2062.500000; 1.20129E-4
2068.359375; 1.10309E-4
2074.218750; 1.10142E-4
2080.078125; 1.12466E-4
2085.937500; 1.07445E-4
2091.796875; 1.19238E-4
2097.656250; 1.19789E-4
2103.515625; 1.23603E-4
2109.375000; 1.10886E-4
2115.234375; 1.12821E-4
2121.093750; 1.15333E-4
2126.953125; 1.13793E-4
2132.812500; 1.15653E-4
2138.671875; 1.09412E-4
2144.531250; 1.04261E-4
2150.390625; 1.14842E-4
2156.250000; 1.15117E-4
2162.109375; 1.17181E-4
2167.968750; 1.11317E-4
2173.828125; 1.05253E-4
2179.687500; 1.11842E-4
2185.546875; 1.12791E-4
2191.406250; 1.11410E-4
2197.265625; 1.13717E-4
2203.125000; 1.15470E-4
2208.984375; 1.25466E-4
2214.843750; 1.13521E-4
2220.703125; 9.37761E-5
2226.562500; 9.31399E-5
2232.421875; 1.07225E-4
2238.281250; 1.11497E-4
2244.140625; 1.07847E-4
2250.000000; 1.08488E-4
2255.859375; 1.02031E-4
2261.718750; 1.22800E-4
2267.578125; 1.25812E-4
2273.437500; 1.09560E-4
2279.296875; 1.17822E-4
2285.156250; 1.16375E-4
2291.015625; 1.08466E-4
2296.875000; 1.10907E-4
2302.734375; 1.15415E-4
2308.593750; 1.09053E-4
2314.453125; 1.09837E-4
2320.312500; 1.21901E-4
2326.171875; 1.17133E-4
2332.031250; 1.12966E-4
2337.890625; 1.07544E-4
2343.750000; 1.03588E-4
2349.609375; 9.67283E-5
2355.468750; 1.04716E-4
2361.328125; 1.21106E-4
2367.187500; 1.20532E-4
2373.046875; 9.41026E-5
2378.906250; 9.48926E-5
2384.765625; 1.06987E-4
2390.625000; 1.02478E-4
2396.484375; 1.03113E-4
2402.343750; 1.15516E-4
2408.203125; 1.11176E-4
2414.062500; 9.83754E-5
2419.921875; 1.03422E-4
2425.781250; 1.17944E-4
2431.640625; 1.14568E-4
2437.500000; 1.04075E-4
2443.359375; 1.09071E-4
2449.218750; 1.02943E-4
2455.078125; 1.01350E-4
2460.937500; 1.10086E-4
2466.796875; 1.17525E-4
2472.656250; 1.16161E-4
2478.515625; 1.19969E-4
2484.375000; 1.18115E-4
2490.234375; 1.07189E-4
2496.093750; 1.20834E-4
2501.953125; 1.12178E-4
2507.812500; 1.18219E-4
2513.671875; 1.29592E-4
2519.531250; 1.23857E-4
2525.390625; 1.21073E-4
2531.250000; 1.16642E-4
2537.109375; 1.07134E-4
2542.968750; 1.07716E-4
2548.828125; 1.01378E-4
2554.687500; 1.02485E-4
2560.546875; 1.06704E-4
2566.406250; 1.09378E-4
2572.265625; 1.07702E-4
2578.125000; 1.19051E-4
2583.984375; 1.19453E-4
2589.843750; 1.12181E-4
2595.703125; 1.09769E-4
2601.562500; 1.08311E-4
2607.421875; 1.15811E-4
2613.281250; 1.17226E-4
2619.140625; 1.17622E-4
2625.000000; 9.85719E-5
2630.859375; 9.40825E-5
2636.718750; 1.05620E-4
2642.578125; 1.26237E-4
2648.437500; 1.40517E-4
2654.296875; 1.20526E-4
2660.156250; 1.13114E-4
2666.015625; 1.15280E-4
2671.875000; 1.17373E-4
2677.734375; 1.21864E-4
2683.593750; 1.10217E-4
2689.453125; 1.07808E-4
2695.312500; 1.07690E-4
2701.171875; 1.09077E-4
2707.031250; 1.05534E-4
2712.890625; 1.02881E-4
2718.750000; 1.12912E-4
2724.609375; 1.05032E-4
2730.468750; 1.11827E-4
2736.328125; 1.15818E-4
2742.187500; 1.09543E-4
2748.046875; 1.03796E-4
2753.906250; 1.16981E-4
2759.765625; 1.20164E-4
2765.625000; 1.06944E-4
2771.484375; 1.05745E-4
2777.343750; 1.06902E-4
2783.203125; 1.03293E-4
2789.062500; 1.08465E-4
2794.921875; 1.07728E-4
2800.781250; 9.69296E-5
2806.640625; 1.13214E-4
2812.500000; 1.14152E-4
2818.359375; 9.76083E-5
2824.218750; 1.16746E-4
2830.078125; 1.13894E-4
2835.937500; 1.00390E-4
2841.796875; 1.14446E-4
2847.656250; 1.25416E-4
2853.515625; 1.09222E-4
2859.375000; 1.05277E-4
2865.234375; 1.15507E-4
2871.093750; 1.21302E-4
2876.953125; 1.09303E-4
2882.812500; 1.08413E-4
2888.671875; 1.11214E-4
2894.531250; 1.10525E-4
2900.390625; 1.13494E-4
2906.250000; 1.19892E-4
2912.109375; 1.23501E-4
2917.968750; 1.13336E-4
2923.828125; 1.15551E-4
2929.687500; 1.11564E-4
2935.546875; 1.17687E-4
2941.406250; 1.18390E-4
2947.265625; 1.19904E-4
2953.125000; 1.21650E-4
2958.984375; 1.23695E-4
2964.843750; 1.15914E-4
2970.703125; 1.23492E-4
2976.562500; 1.18781E-4
2982.421875; 1.20282E-4
2988.281250; 1.16067E-4
2994.140625; 1.18463E-4
3000.000000; 1.10337E-4
3005.859375; 1.10274E-4
3011.718750; 1.07999E-4
3017.578125; 9.43995E-5
3023.437500; 9.88442E-5
3029.296875; 9.99075E-5
3035.156250; 1.10138E-4
3041.015625; 1.15770E-4
3046.875000; 1.11327E-4
3052.734375; 1.01141E-4
3058.593750; 1.03771E-4
3064.453125; 1.15226E-4
3070.312500; 1.05660E-4
3076.171875; 9.49138E-5
3082.031250; 9.80327E-5
3087.890625; 1.03036E-4
3093.750000; 9.85803E-5
3099.609375; 1.21618E-4
3105.468750; 1.24313E-4
3111.328125; 1.15990E-4
3117.187500; 1.08021E-4
3123.046875; 1.22046E-4
3128.906250; 1.22579E-4
3134.765625; 9.43012E-5
3140.625000; 9.56814E-5
3146.484375; 1.22738E-4
3152.343750; 1.21186E-4
3158.203125; 1.04369E-4
3164.062500; 1.01495E-4
3169.921875; 1.15797E-4
3175.781250; 1.01513E-4
3181.640625; 9.87612E-5
3187.500000; 1.18553E-4
3193.359375; 1.21316E-4
3199.218750; 1.04504E-4
3205.078125; 1.13299E-4
3210.937500; 1.14146E-4
3216.796875; 1.04962E-4
3222.656250; 1.34065E-4
3228.515625; 1.17632E-4
3234.375000; 1.01012E-4
3240.234375; 1.05341E-4
3246.093750; 9.33441E-5
3251.953125; 9.43416E-5
3257.812500; 1.01247E-4
3263.671875; 1.08109E-4
3269.531250; 1.11879E-4
3275.390625; 1.04225E-4
3281.250000; 1.15792E-4
3287.109375; 1.12568E-4
3292.968750; 1.20844E-4
3298.828125; 1.17873E-4
3304.687500; 1.13954E-4
3310.546875; 1.15330E-4
3316.406250; 1.08789E-4
3322.265625; 1.00123E-4
3328.125000; 1.15307E-4
3333.984375; 1.10702E-4
3339.843750; 1.14701E-4
3345.703125; 1.07779E-4
3351.562500; 1.14262E-4
3357.421875; 1.02759E-4
3363.281250; 9.64583E-5
3369.140625; 1.08825E-4
3375.000000; 1.23505E-4
3380.859375; 1.14660E-4
3386.718750; 1.10149E-4
3392.578125; 1.05129E-4
3398.437500; 9.53404E-5
3404.296875; 1.02573E-4
3410.156250; 1.13175E-4
3416.015625; 1.00667E-4
3421.875000; 9.90853E-5
3427.734375; 1.15936E-4
3433.593750; 1.12666E-4
3439.453125; 1.08730E-4
3445.312500; 1.08565E-4
3451.171875; 1.20765E-4
3457.031250; 1.08272E-4
3462.890625; 1.08468E-4
3468.750000; 9.48994E-5
3474.609375; 9.92844E-5
3480.468750; 9.60784E-5
3486.328125; 9.52014E-5
3492.187500; 1.22425E-4
3498.046875; 1.15498E-4
3503.906250; 9.56867E-5
3509.765625; 1.10594E-4
3515.625000; 1.06118E-4
3521.484375; 1.08351E-4
3527.343750; 1.14666E-4
3533.203125; 1.08997E-4
3539.062500; 1.13219E-4
3544.921875; 1.20666E-4
3550.781250; 1.12917E-4
3556.640625; 1.03221E-4
3562.500000; 1.00375E-4
3568.359375; 9.82489E-5
3574.218750; 1.06048E-4
3580.078125; 1.11618E-4
3585.937500; 1.12340E-4
3591.796875; 1.10228E-4
3597.656250; 1.09094E-4
3603.515625; 1.06272E-4
3609.375000; 1.07933E-4
3615.234375; 1.07580E-4
3621.093750; 1.00356E-4
3626.953125; 9.26189E-5
3632.812500; 9.09895E-5
3638.671875; 1.05901E-4
3644.531250; 1.17258E-4
3650.390625; 1.18533E-4
3656.250000; 1.07484E-4
3662.109375; 1.16455E-4
3667.968750; 1.12504E-4
3673.828125; 1.06089E-4
3679.687500; 9.68516E-5
3685.546875; 1.11502E-4
3691.406250; 1.00627E-4
3697.265625; 1.03469E-4
3703.125000; 1.12130E-4
3708.984375; 1.17311E-4
3714.843750; 1.05745E-4
3720.703125; 1.07654E-4
3726.562500; 1.14712E-4
3732.421875; 1.04221E-4
3738.281250; 9.69612E-5
3744.140625; 1.11184E-4
3750.000000; 1.11925E-4
3755.859375; 1.05684E-4
3761.718750; 1.06726E-4
3767.578125; 1.05576E-4
3773.437500; 1.08410E-4
3779.296875; 9.94838E-5
3785.156250; 1.10927E-4
3791.015625; 1.26854E-4
3796.875000; 1.17844E-4
3802.734375; 9.95397E-5
3808.593750; 1.07661E-4
3814.453125; 1.24580E-4
3820.312500; 1.23404E-4
3826.171875; 1.16439E-4
3832.031250; 1.10250E-4
3837.890625; 1.08239E-4
3843.750000; 1.08882E-4
3849.609375; 1.05336E-4
3855.468750; 1.11972E-4
3861.328125; 9.93754E-5
3867.187500; 1.08004E-4
3873.046875; 1.21810E-4
3878.906250; 1.12548E-4
3884.765625; 1.09345E-4
3890.625000; 1.11315E-4
3896.484375; 1.11613E-4
3902.343750; 1.00089E-4
3908.203125; 9.91226E-5
3914.062500; 1.09494E-4
3919.921875; 1.15730E-4
3925.781250; 1.12723E-4
3931.640625; 1.03714E-4
3937.500000; 1.01353E-4
3943.359375; 1.02751E-4
3949.218750; 1.07625E-4
3955.078125; 1.05239E-4
3960.937500; 1.12136E-4
3966.796875; 1.16737E-4
3972.656250; 1.08470E-4
3978.515625; 1.00358E-4
3984.375000; 1.11142E-4
3990.234375; 1.15965E-4
3996.093750; 1.07132E-4
4001.953125; 1.02885E-4
4007.812500; 1.04363E-4
4013.671875; 1.02409E-4
4019.531250; 1.11066E-4
4025.390625; 1.10515E-4
4031.250000; 1.09757E-4
4037.109375; 1.10115E-4
4042.968750; 1.08627E-4
4048.828125; 1.14265E-4
4054.687500; 1.07418E-4
4060.546875; 1.07021E-4
4066.406250; 1.23494E-4
4072.265625; 1.22896E-4
4078.125000; 1.12248E-4
4083.984375; 1.05920E-4
4089.843750; 1.11887E-4
4095.703125; 1.06375E-4
4101.562500; 1.16107E-4
4107.421875; 1.18068E-4
4113.281250; 1.12100E-4
4119.140625; 1.03826E-4
4125.000000; 1.13012E-4
4130.859375; 1.07290E-4
4136.718750; 1.01851E-4
4142.578125; 1.07363E-4
4148.437500; 1.20309E-4
4154.296875; 1.06766E-4
4160.156250; 1.13497E-4
4166.015625; 1.12359E-4
4171.875000; 1.09816E-4
4177.734375; 1.05295E-4
4183.593750; 1.21701E-4
4189.453125; 1.18600E-4
4195.312500; 1.07697E-4
4201.171875; 1.06971E-4
4207.031250; 1.01757E-4
4212.890625; 9.84799E-5
4218.750000; 1.00123E-4
4224.609375; 1.14199E-4
4230.468750; 1.01455E-4
4236.328125; 1.13835E-4
4242.187500; 1.22742E-4
4248.046875; 1.09944E-4
4253.906250; 9.65967E-5
4259.765625; 1.00035E-4
4265.625000; 1.00473E-4
4271.484375; 1.11427E-4
4277.343750; 1.19015E-4
4283.203125; 1.14484E-4
4289.062500; 1.11375E-4
4294.921875; 1.08318E-4
4300.781250; 9.12620E-5
4306.640625; 1.00679E-4
4312.500000; 1.17625E-4
4318.359375; 1.15103E-4
4324.218750; 1.08694E-4
4330.078125; 1.04400E-4
4335.937500; 1.07761E-4
4341.796875; 1.13351E-4
4347.656250; 1.08212E-4
4353.515625; 1.07872E-4
4359.375000; 1.14335E-4
4365.234375; 1.09325E-4
4371.093750; 1.08778E-4
4376.953125; 1.15013E-4
4382.812500; 1.07019E-4
4388.671875; 1.10498E-4
4394.531250; 1.12417E-4
4400.390625; 9.50087E-5
4406.250000; 8.94239E-5
4412.109375; 1.10683E-4
4417.968750; 1.05642E-4
4423.828125; 9.05728E-5
4429.687500; 9.49962E-5
4435.546875; 1.06003E-4
4441.406250; 1.11874E-4
4447.265625; 1.17768E-4
4453.125000; 1.18778E-4
4458.984375; 1.00239E-4
4464.843750; 9.79959E-5
4470.703125; 1.03438E-4
4476.562500; 1.13274E-4
4482.421875; 1.11525E-4
4488.281250; 1.18494E-4
4494.140625; 1.12491E-4
4500.000000; 1.07878E-4
4505.859375; 9.50536E-5
4511.718750; 1.02068E-4
4517.578125; 1.07453E-4
4523.437500; 1.04712E-4
4529.296875; 1.11687E-4
4535.156250; 1.08027E-4
4541.015625; 9.92743E-5
4546.875000; 1.04511E-4
4552.734375; 1.09312E-4
4558.593750; 1.23370E-4
4564.453125; 1.19720E-4
4570.312500; 1.04826E-4
4576.171875; 9.86196E-5
4582.031250; 9.76164E-5
4587.890625; 1.04693E-4
4593.750000; 1.09034E-4
4599.609375; 1.19110E-4
4605.468750; 1.11421E-4
4611.328125; 1.06770E-4
4617.187500; 1.11013E-4
4623.046875; 1.07976E-4
4628.906250; 9.87029E-5
4634.765625; 1.12100E-4
4640.625000; 1.15396E-4
4646.484375; 1.10631E-4
4652.343750; 1.00013E-4
4658.203125; 9.95826E-5
4664.062500; 1.00652E-4
4669.921875; 9.60618E-5
4675.781250; 9.75283E-5
4681.640625; 9.19660E-5
4687.500000; 1.06405E-4
4693.359375; 1.07985E-4
4699.218750; 1.02129E-4
4705.078125; 1.19048E-4
4710.937500; 1.28497E-4
4716.796875; 1.07656E-4
4722.656250; 1.07026E-4
4728.515625; 1.18131E-4
4734.375000; 1.12742E-4
4740.234375; 1.24293E-4
4746.093750; 1.16497E-4
4751.953125; 1.03466E-4
4757.812500; 1.11762E-4
4763.671875; 1.09013E-4
4769.531250; 9.86374E-5
4775.390625; 9.51950E-5
4781.250000; 1.01504E-4
4787.109375; 1.09430E-4
4792.968750; 1.20724E-4
4798.828125; 1.09030E-4
4804.687500; 9.83036E-5
4810.546875; 1.04848E-4
4816.406250; 1.14585E-4
4822.265625; 1.15958E-4
4828.125000; 1.20456E-4
4833.984375; 1.09994E-4
4839.843750; 1.07457E-4
4845.703125; 1.14516E-4
4851.562500; 1.16389E-4
4857.421875; 1.13881E-4
4863.281250; 1.23866E-4
4869.140625; 1.20784E-4
4875.000000; 1.17435E-4
4880.859375; 1.15678E-4
4886.718750; 1.07827E-4
4892.578125; 1.12700E-4
4898.437500; 1.11859E-4
4904.296875; 1.19092E-4
4910.156250; 1.18661E-4
4916.015625; 1.15319E-4
4921.875000; 1.11256E-4
4927.734375; 1.05366E-4
4933.593750; 1.01948E-4
4939.453125; 1.18049E-4
4945.312500; 1.09713E-4
4951.171875; 1.07737E-4
4957.031250; 1.09006E-4
4962.890625; 9.70948E-5
4968.750000; 1.00557E-4
4974.609375; 9.78467E-5
4980.468750; 1.18175E-4
4986.328125; 1.18151E-4
4992.187500; 1.22191E-4
4998.046875; 1.20217E-4
5003.906250; 1.14309E-4
5009.765625; 1.11411E-4
5015.625000; 1.08557E-4
5021.484375; 1.08316E-4
5027.343750; 1.09919E-4
5033.203125; 1.08997E-4
5039.062500; 1.12262E-4
5044.921875; 1.03370E-4
5050.781250; 1.04550E-4
5056.640625; 1.12240E-4
5062.500000; 1.15259E-4
5068.359375; 1.20417E-4
5074.218750; 1.07272E-4
5080.078125; 1.01921E-4
5085.937500; 9.26028E-5
5091.796875; 1.03530E-4
5097.656250; 1.08572E-4
5103.515625; 1.20032E-4
5109.375000; 1.16200E-4
5115.234375; 1.12515E-4
5121.093750; 1.01410E-4
5126.953125; 1.03782E-4
5132.812500; 1.09329E-4
5138.671875; 1.06680E-4
5144.531250; 9.93432E-5
5150.390625; 1.06305E-4
5156.250000; 1.07888E-4
5162.109375; 1.13795E-4
5167.968750; 1.05855E-4
5173.828125; 1.07292E-4
5179.687500; 1.10168E-4
5185.546875; 1.04032E-4
5191.406250; 1.04911E-4
5197.265625; 1.02653E-4
5203.125000; 1.02415E-4
5208.984375; 9.75560E-5
5214.843750; 1.04462E-4
5220.703125; 9.91117E-5
5226.562500; 8.16470E-5
5232.421875; 1.05757E-4
5238.281250; 1.17061E-4
5244.140625; 1.09291E-4
5250.000000; 1.16390E-4
5255.859375; 1.19956E-4
5261.718750; 1.24721E-4
5267.578125; 1.09606E-4
5273.437500; 1.01663E-4
5279.296875; 1.00487E-4
5285.156250; 1.04193E-4
5291.015625; 1.09530E-4
5296.875000; 9.85935E-5
5302.734375; 1.11627E-4
5308.593750; 1.17268E-4
5314.453125; 1.13598E-4
5320.312500; 1.04710E-4
5326.171875; 1.04175E-4
5332.031250; 1.10651E-4
5337.890625; 1.07245E-4
5343.750000; 1.01249E-4
5349.609375; 8.89392E-5
5355.468750; 1.08195E-4
5361.328125; 1.02166E-4
5367.187500; 9.57509E-5
5373.046875; 9.34184E-5
5378.906250; 1.04015E-4
5384.765625; 1.00439E-4
5390.625000; 1.15053E-4
5396.484375; 1.16864E-4
5402.343750; 1.11468E-4
5408.203125; 1.15249E-4
5414.062500; 1.07003E-4
5419.921875; 9.45532E-5
5425.781250; 9.06037E-5
5431.640625; 1.10346E-4
5437.500000; 1.11769E-4
5443.359375; 1.12872E-4
5449.218750; 1.06672E-4
5455.078125; 1.08245E-4
5460.937500; 1.02695E-4
5466.796875; 9.18652E-5
5472.656250; 1.08943E-4
5478.515625; 1.09692E-4
5484.375000; 1.12953E-4
5490.234375; 1.18209E-4
5496.093750; 1.25230E-4
5501.953125; 1.19159E-4
5507.812500; 1.10993E-4
5513.671875; 1.08689E-4
5519.531250; 1.04967E-4
5525.390625; 9.67069E-5
5531.250000; 1.04500E-4
5537.109375; 1.03367E-4
5542.968750; 1.05446E-4
5548.828125; 1.13606E-4
5554.687500; 1.09822E-4
5560.546875; 1.12802E-4
5566.406250; 1.10441E-4
5572.265625; 1.11277E-4
5578.125000; 1.19446E-4
5583.984375; 1.22218E-4
5589.843750; 1.10907E-4
5595.703125; 1.02084E-4
5601.562500; 9.66052E-5
5607.421875; 1.06267E-4
5613.281250; 1.16837E-4
5619.140625; 1.15297E-4
5625.000000; 1.17406E-4
5630.859375; 1.15794E-4
5636.718750; 1.22118E-4
5642.578125; 1.07827E-4
5648.437500; 1.07488E-4
5654.296875; 1.12244E-4
5660.156250; 1.07113E-4
5666.015625; 1.10103E-4
5671.875000; 9.96106E-5
5677.734375; 1.06917E-4
5683.593750; 1.11171E-4
5689.453125; 1.15317E-4
5695.312500; 1.13364E-4
5701.171875; 1.13645E-4
5707.031250; 1.10194E-4
5712.890625; 1.27001E-4
5718.750000; 1.18123E-4
5724.609375; 1.06618E-4
5730.468750; 1.14220E-4
5736.328125; 1.10036E-4
5742.187500; 1.11081E-4
5748.046875; 1.09496E-4
5753.906250; 1.01868E-4
5759.765625; 1.00076E-4
5765.625000; 9.24602E-5
5771.484375; 9.42531E-5
5777.343750; 9.56879E-5
5783.203125; 9.49626E-5
5789.062500; 1.06613E-4
5794.921875; 1.11101E-4
5800.781250; 1.08837E-4
5806.640625; 1.26966E-4
5812.500000; 1.33729E-4
5818.359375; 1.13782E-4
5824.218750; 1.04956E-4
5830.078125; 1.01064E-4
5835.937500; 1.05202E-4
5841.796875; 9.87771E-5
5847.656250; 9.94500E-5
5853.515625; 1.17437E-4
5859.375000; 1.04054E-4
5865.234375; 9.89588E-5
5871.093750; 1.10372E-4
5876.953125; 1.05563E-4
5882.812500; 1.00375E-4
5888.671875; 9.39772E-5
5894.531250; 1.16582E-4
5900.390625; 1.19556E-4
5906.250000; 1.11351E-4
5912.109375; 1.00298E-4
5917.968750; 1.00825E-4
5923.828125; 1.00529E-4
5929.687500; 1.14297E-4
5935.546875; 1.12290E-4
5941.406250; 1.03553E-4
5947.265625; 1.08006E-4
5953.125000; 1.08652E-4
5958.984375; 1.16385E-4
5964.843750; 1.15929E-4
5970.703125; 1.18683E-4
5976.562500; 1.16621E-4
5982.421875; 1.01589E-4
5988.281250; 9.58727E-5
5994.140625; 1.08998E-4
6000.000000; 1.09423E-4
6005.859375; 1.05576E-4
6011.718750; 1.06551E-4
6017.578125; 1.00973E-4
6023.437500; 1.15868E-4
6029.296875; 1.22639E-4
6035.156250; 1.07209E-4
6041.015625; 1.02152E-4
6046.875000; 1.03734E-4
6052.734375; 1.22489E-4
6058.593750; 1.09771E-4
6064.453125; 1.07984E-4
6070.312500; 9.97204E-5
6076.171875; 9.50499E-5
6082.031250; 1.02419E-4
6087.890625; 9.81868E-5
6093.750000; 1.00522E-4
6099.609375; 1.01088E-4
6105.468750; 1.02886E-4
6111.328125; 1.14699E-4
6117.187500; 1.08102E-4
6123.046875; 1.00598E-4
6128.906250; 1.17907E-4
6134.765625; 1.01435E-4
6140.625000; 1.00124E-4
6146.484375; 1.03194E-4
6152.343750; 9.94662E-5
6158.203125; 1.12292E-4
6164.062500; 1.09515E-4
6169.921875; 1.18541E-4
6175.781250; 1.06825E-4
6181.640625; 1.05210E-4
6187.500000; 1.09261E-4
6193.359375; 9.78384E-5
6199.218750; 1.01062E-4
6205.078125; 1.04312E-4
6210.937500; 1.03931E-4
6216.796875; 1.06841E-4
6222.656250; 1.21058E-4
6228.515625; 1.15303E-4
6234.375000; 1.14348E-4
6240.234375; 1.18932E-4
6246.093750; 1.08301E-4
6251.953125; 1.02813E-4
6257.812500; 9.88606E-5
6263.671875; 1.06057E-4
6269.531250; 1.16534E-4
6275.390625; 1.23592E-4
6281.250000; 1.26507E-4
6287.109375; 1.17719E-4
6292.968750; 1.10252E-4
6298.828125; 1.03604E-4
6304.687500; 1.02020E-4
6310.546875; 1.09459E-4
6316.406250; 1.04514E-4
6322.265625; 1.13246E-4
6328.125000; 1.16256E-4
6333.984375; 1.10621E-4
6339.843750; 1.10001E-4
6345.703125; 1.16011E-4
6351.562500; 1.17711E-4
6357.421875; 1.19188E-4
6363.281250; 1.06328E-4
6369.140625; 8.72751E-5
6375.000000; 9.56828E-5
6380.859375; 1.15274E-4
6386.718750; 1.09397E-4
6392.578125; 9.54851E-5
6398.437500; 9.40519E-5
6404.296875; 1.02068E-4
6410.156250; 1.05009E-4
6416.015625; 1.03789E-4
6421.875000; 1.00321E-4
6427.734375; 1.06548E-4
6433.593750; 1.12950E-4
6439.453125; 1.00777E-4
6445.312500; 1.09996E-4
6451.171875; 1.01258E-4
6457.031250; 1.14189E-4
6462.890625; 1.07027E-4
6468.750000; 1.05103E-4
6474.609375; 1.09622E-4
6480.468750; 1.12031E-4
6486.328125; 1.04189E-4
6492.187500; 9.68665E-5
6498.046875; 9.59176E-5
6503.906250; 1.06768E-4
6509.765625; 1.18241E-4
6515.625000; 1.06519E-4
6521.484375; 1.14984E-4
6527.343750; 1.13845E-4
6533.203125; 1.11308E-4
6539.062500; 1.11161E-4
6544.921875; 1.05717E-4
6550.781250; 9.64861E-5
6556.640625; 1.08633E-4
6562.500000; 1.19326E-4
6568.359375; 1.02904E-4
6574.218750; 1.14921E-4
6580.078125; 1.14994E-4
6585.937500; 1.20473E-4
6591.796875; 1.15362E-4
6597.656250; 1.05364E-4
6603.515625; 1.09985E-4
6609.375000; 1.14153E-4
6615.234375; 1.05393E-4
6621.093750; 1.11900E-4
6626.953125; 1.24632E-4
6632.812500; 1.02183E-4
6638.671875; 1.09158E-4
6644.531250; 1.09839E-4
6650.390625; 1.05773E-4
6656.250000; 1.09076E-4
6662.109375; 1.14959E-4
6667.968750; 1.10482E-4
6673.828125; 1.12837E-4
6679.687500; 1.15532E-4
6685.546875; 1.11832E-4
6691.406250; 1.24284E-4
6697.265625; 1.15506E-4
6703.125000; 1.06998E-4
6708.984375; 9.96601E-5
6714.843750; 1.16083E-4
6720.703125; 1.14668E-4
6726.562500; 1.13694E-4
6732.421875; 1.16059E-4
6738.281250; 1.09631E-4
6744.140625; 1.05444E-4
6750.000000; 1.03087E-4
6755.859375; 1.09133E-4
6761.718750; 1.01399E-4
6767.578125; 1.18861E-4
6773.437500; 1.21515E-4
6779.296875; 1.06695E-4
6785.156250; 1.07006E-4
6791.015625; 1.09554E-4
6796.875000; 9.09519E-5
6802.734375; 9.72742E-5
6808.593750; 1.09048E-4
6814.453125; 1.16984E-4
6820.312500; 1.21344E-4
6826.171875; 1.24623E-4
6832.031250; 1.08550E-4
6837.890625; 1.00293E-4
6843.750000; 1.08926E-4
6849.609375; 1.17508E-4
6855.468750; 1.12285E-4
6861.328125; 1.11632E-4
6867.187500; 1.06371E-4
6873.046875; 1.08557E-4
6878.906250; 1.02095E-4
6884.765625; 1.06416E-4
6890.625000; 1.09796E-4
6896.484375; 1.05068E-4
6902.343750; 1.09743E-4
6908.203125; 1.11724E-4
6914.062500; 1.13254E-4
6919.921875; 1.08780E-4
6925.781250; 1.00745E-4
6931.640625; 9.94316E-5
6937.500000; 9.28251E-5
6943.359375; 9.04515E-5
6949.218750; 9.84673E-5
6955.078125; 9.98890E-5
6960.937500; 1.04238E-4
6966.796875; 1.16476E-4
6972.656250; 1.19312E-4
6978.515625; 1.12399E-4
6984.375000; 1.05477E-4
6990.234375; 1.11180E-4
6996.093750; 1.21261E-4
7001.953125; 1.28580E-4
7007.812500; 1.27164E-4
7013.671875; 1.19555E-4
7019.531250; 1.07528E-4
7025.390625; 9.52842E-5
7031.250000; 8.80105E-5
7037.109375; 9.93990E-5
7042.968750; 1.10724E-4
7048.828125; 1.05571E-4
7054.687500; 9.67993E-5
7060.546875; 1.11514E-4
7066.406250; 1.14136E-4
7072.265625; 1.02719E-4
7078.125000; 9.40628E-5
7083.984375; 9.97659E-5
7089.843750; 9.98000E-5
7095.703125; 9.53282E-5
7101.562500; 1.01322E-4
7107.421875; 1.15976E-4
7113.281250; 1.13854E-4
7119.140625; 9.98906E-5
7125.000000; 1.07202E-4
7130.859375; 1.01431E-4
7136.718750; 1.12295E-4
7142.578125; 1.13910E-4
7148.437500; 1.06705E-4
7154.296875; 1.08499E-4
7160.156250; 1.14793E-4
7166.015625; 1.15618E-4
7171.875000; 1.11498E-4
7177.734375; 1.13444E-4
7183.593750; 1.03271E-4
7189.453125; 1.02527E-4
7195.312500; 1.07624E-4
7201.171875; 1.10908E-4
7207.031250; 1.13883E-4
7212.890625; 9.93403E-5
7218.750000; 1.03962E-4
7224.609375; 1.00020E-4
7230.468750; 1.09417E-4
7236.328125; 1.08038E-4
7242.187500; 1.05184E-4
7248.046875; 1.06058E-4
7253.906250; 1.09084E-4
7259.765625; 1.11120E-4
7265.625000; 1.04883E-4
7271.484375; 1.01304E-4
7277.343750; 9.74315E-5
7283.203125; 1.06069E-4
7289.062500; 1.08848E-4
7294.921875; 1.03572E-4
7300.781250; 9.99807E-5
7306.640625; 1.02140E-4
7312.500000; 9.55798E-5
7318.359375; 9.94335E-5
7324.218750; 1.11172E-4
7330.078125; 1.05149E-4
7335.937500; 9.90948E-5
7341.796875; 1.09688E-4
7347.656250; 1.20599E-4
7353.515625; 1.08750E-4
7359.375000; 1.13209E-4
7365.234375; 1.10662E-4
7371.093750; 1.10781E-4
7376.953125; 1.22321E-4
7382.812500; 1.06429E-4
7388.671875; 1.01466E-4
7394.531250; 9.98653E-5
7400.390625; 1.09019E-4
7406.250000; 1.00188E-4
7412.109375; 1.03612E-4
7417.968750; 1.04084E-4
7423.828125; 1.06789E-4
7429.687500; 1.02038E-4
7435.546875; 1.01525E-4
7441.406250; 1.12840E-4
7447.265625; 1.09120E-4
7453.125000; 1.08156E-4
7458.984375; 1.21096E-4
7464.843750; 1.11941E-4
7470.703125; 1.06302E-4
7476.562500; 1.09735E-4
7482.421875; 1.09550E-4
7488.281250; 1.10673E-4
7494.140625; 1.06376E-4
7500.000000; 1.03165E-4
7505.859375; 9.86508E-5
7511.718750; 9.24101E-5
7517.578125; 1.09053E-4
7523.437500; 1.05508E-4
7529.296875; 1.13710E-4
7535.156250; 1.06735E-4
7541.015625; 1.04563E-4
7546.875000; 1.12441E-4
7552.734375; 1.04687E-4
7558.593750; 1.00934E-4
7564.453125; 1.10853E-4
7570.312500; 1.17345E-4
7576.171875; 9.50051E-5
7582.031250; 9.95860E-5
7587.890625; 1.02125E-4
7593.750000; 1.09132E-4
7599.609375; 9.85090E-5
7605.468750; 1.06941E-4
7611.328125; 1.07832E-4
7617.187500; 1.04302E-4
7623.046875; 1.01821E-4
7628.906250; 1.07151E-4
7634.765625; 1.10745E-4
7640.625000; 1.00025E-4
7646.484375; 1.06792E-4
7652.343750; 1.05279E-4
7658.203125; 1.00940E-4
7664.062500; 1.04885E-4
7669.921875; 1.03784E-4
7675.781250; 1.01429E-4
7681.640625; 9.91981E-5
7687.500000; 1.01159E-4
7693.359375; 1.03191E-4
7699.218750; 1.09041E-4
7705.078125; 1.21245E-4
7710.937500; 1.08980E-4
7716.796875; 1.02636E-4
7722.656250; 9.95635E-5
7728.515625; 1.13736E-4
7734.375000; 1.13658E-4
7740.234375; 1.05388E-4
7746.093750; 1.10792E-4
7751.953125; 1.04157E-4
7757.812500; 9.99453E-5
7763.671875; 1.04870E-4
7769.531250; 1.07903E-4
7775.390625; 1.07032E-4
7781.250000; 1.16936E-4
7787.109375; 1.14191E-4
7792.968750; 1.17199E-4
7798.828125; 1.00205E-4
7804.687500; 1.11818E-4
7810.546875; 1.13796E-4
7816.406250; 1.11323E-4
7822.265625; 1.08134E-4
7828.125000; 1.11347E-4
7833.984375; 1.19029E-4
7839.843750; 1.04975E-4
7845.703125; 1.04723E-4
7851.562500; 9.65073E-5
7857.421875; 1.06994E-4
7863.281250; 1.12402E-4
7869.140625; 1.00303E-4
7875.000000; 9.85859E-5
7880.859375; 1.07336E-4
7886.718750; 1.09135E-4
7892.578125; 1.10466E-4
7898.437500; 1.08560E-4
7904.296875; 9.92772E-5
7910.156250; 9.95746E-5
7916.015625; 1.06648E-4
7921.875000; 9.78749E-5
7927.734375; 1.02500E-4
7933.593750; 1.15797E-4
7939.453125; 1.06080E-4
7945.312500; 1.00382E-4
7951.171875; 1.12340E-4
7957.031250; 1.04836E-4
7962.890625; 9.76395E-5
7968.750000; 9.45373E-5
7974.609375; 9.56576E-5
7980.468750; 9.25881E-5
7986.328125; 1.04613E-4
7992.187500; 1.14262E-4
7998.046875; 1.05820E-4
8003.906250; 1.06086E-4
8009.765625; 9.86836E-5
8015.625000; 1.15758E-4
8021.484375; 1.08558E-4
8027.343750; 1.06636E-4
8033.203125; 1.08297E-4
8039.062500; 1.13649E-4
8044.921875; 1.24550E-4
8050.781250; 1.12542E-4
8056.640625; 1.10646E-4
8062.500000; 1.18834E-4
8068.359375; 1.09558E-4
8074.218750; 1.03522E-4
8080.078125; 1.12026E-4
8085.937500; 9.97799E-5
8091.796875; 1.05656E-4
8097.656250; 1.05094E-4
8103.515625; 1.10764E-4
8109.375000; 1.06672E-4
8115.234375; 1.03561E-4
8121.093750; 1.15834E-4
8126.953125; 1.12633E-4
8132.812500; 9.74516E-5
8138.671875; 1.05023E-4
8144.531250; 1.12832E-4
8150.390625; 1.03562E-4
8156.250000; 1.00905E-4
8162.109375; 1.05230E-4
8167.968750; 1.07059E-4
8173.828125; 1.06711E-4
8179.687500; 1.03828E-4
8185.546875; 1.17386E-4
8191.406250; 1.08456E-4
8197.265625; 1.01672E-4
8203.125000; 1.06383E-4
8208.984375; 1.12167E-4
8214.843750; 1.10074E-4
8220.703125; 1.06383E-4
8226.562500; 1.01015E-4
8232.421875; 1.07829E-4
8238.281250; 1.07694E-4
8244.140625; 1.05559E-4
8250.000000; 1.00899E-4
8255.859375; 9.68276E-5
8261.718750; 1.01499E-4
8267.578125; 1.03916E-4
8273.437500; 1.05837E-4
8279.296875; 1.00998E-4
8285.156250; 1.05351E-4
8291.015625; 1.05561E-4
8296.875000; 1.12564E-4
8302.734375; 1.14878E-4
8308.593750; 1.12934E-4
8314.453125; 1.23767E-4
8320.312500; 1.10469E-4
8326.171875; 9.71068E-5
8332.031250; 9.59333E-5
8337.890625; 9.64711E-5
8343.750000; 9.62366E-5
8349.609375; 1.12555E-4
8355.468750; 1.11037E-4
8361.328125; 1.08118E-4
8367.187500; 9.43847E-5
8373.046875; 9.18680E-5
8378.906250; 1.03885E-4
8384.765625; 1.02738E-4
8390.625000; 9.30635E-5
8396.484375; 9.11248E-5
8402.343750; 1.12544E-4
8408.203125; 1.20872E-4
8414.062500; 1.04777E-4
8419.921875; 1.02963E-4
8425.781250; 9.99217E-5
8431.640625; 1.05603E-4
8437.500000; 1.00372E-4
8443.359375; 9.40822E-5
8449.218750; 9.92251E-5
8455.078125; 1.13081E-4
8460.937500; 1.27930E-4
8466.796875; 1.22307E-4
8472.656250; 1.02433E-4
8478.515625; 9.93924E-5
8484.375000; 1.05510E-4
8490.234375; 1.05996E-4
8496.093750; 1.09671E-4
8501.953125; 1.17361E-4
8507.812500; 9.66281E-5
8513.671875; 1.03568E-4
8519.531250; 1.10151E-4
8525.390625; 1.07839E-4
8531.250000; 1.10964E-4
8537.109375; 1.08497E-4
8542.968750; 1.11094E-4
8548.828125; 1.12334E-4
8554.687500; 9.97239E-5
8560.546875; 1.03049E-4
8566.406250; 1.01433E-4
8572.265625; 9.93434E-5
8578.125000; 1.14015E-4
8583.984375; 1.23608E-4
8589.843750; 1.08089E-4
8595.703125; 1.15992E-4
8601.562500; 1.22614E-4
8607.421875; 1.18221E-4
8613.281250; 1.17816E-4
8619.140625; 1.25107E-4
8625.000000; 1.04994E-4
8630.859375; 9.94154E-5
8636.718750; 1.00266E-4
8642.578125; 1.09138E-4
8648.437500; 1.13341E-4
8654.296875; 1.01771E-4
8660.156250; 1.03852E-4
8666.015625; 9.64685E-5
8671.875000; 1.04622E-4
8677.734375; 1.05218E-4
8683.593750; 9.53645E-5
8689.453125; 1.00402E-4
8695.312500; 9.86303E-5
8701.171875; 1.03261E-4
8707.031250; 1.07131E-4
8712.890625; 1.20522E-4
8718.750000; 1.18569E-4
8724.609375; 1.24544E-4
8730.468750; 1.14576E-4
8736.328125; 9.75637E-5
8742.187500; 1.00090E-4
8748.046875; 1.15120E-4
8753.906250; 1.06365E-4
8759.765625; 1.04622E-4
8765.625000; 1.02389E-4
8771.484375; 1.08622E-4
8777.343750; 1.12913E-4
8783.203125; 9.90772E-5
8789.062500; 1.04224E-4
8794.921875; 9.44313E-5
8800.781250; 1.09723E-4
8806.640625; 1.15324E-4
8812.500000; 9.99192E-5
8818.359375; 9.61757E-5
8824.218750; 1.04128E-4
8830.078125; 1.21770E-4
8835.937500; 1.26627E-4
8841.796875; 1.16173E-4
8847.656250; 1.09217E-4
8853.515625; 1.00757E-4
8859.375000; 1.04335E-4
8865.234375; 1.04004E-4
8871.093750; 1.05373E-4
8876.953125; 1.17440E-4
8882.812500; 1.17202E-4
8888.671875; 1.15173E-4
8894.531250; 1.05604E-4
8900.390625; 1.01397E-4
8906.250000; 9.90171E-5
8912.109375; 9.93437E-5
8917.968750; 9.96719E-5
8923.828125; 1.03060E-4
8929.687500; 1.12806E-4
8935.546875; 1.18350E-4
8941.406250; 1.10105E-4
8947.265625; 9.55039E-5
8953.125000; 9.24129E-5
8958.984375; 9.47111E-5
8964.843750; 1.04520E-4
8970.703125; 1.03795E-4
8976.562500; 1.07859E-4
8982.421875; 1.21343E-4
8988.281250; 1.23171E-4
8994.140625; 1.15973E-4
9000.000000; 1.11045E-4
9005.859375; 1.09133E-4
9011.718750; 9.61246E-5
9017.578125; 1.04895E-4
9023.437500; 1.07531E-4
9029.296875; 8.79096E-5
9035.156250; 9.35942E-5
9041.015625; 1.05824E-4
9046.875000; 1.04664E-4
9052.734375; 1.02369E-4
9058.593750; 1.12973E-4
9064.453125; 1.14424E-4
9070.312500; 1.05244E-4
9076.171875; 1.12651E-4
9082.031250; 1.15597E-4
9087.890625; 1.08297E-4
9093.750000; 1.07435E-4
9099.609375; 1.18282E-4
9105.468750; 1.16206E-4
9111.328125; 1.15325E-4
9117.187500; 1.21653E-4
9123.046875; 1.18357E-4
9128.906250; 1.03656E-4
9134.765625; 1.04334E-4
9140.625000; 1.04209E-4
9146.484375; 1.12594E-4
9152.343750; 1.11414E-4
9158.203125; 1.10626E-4
9164.062500; 1.23838E-4
9169.921875; 1.17752E-4
9175.781250; 1.07019E-4
9181.640625; 1.02865E-4
9187.500000; 1.16793E-4
9193.359375; 1.13507E-4
9199.218750; 1.07587E-4
9205.078125; 9.86162E-5
9210.937500; 1.05796E-4
9216.796875; 1.04564E-4
9222.656250; 9.49755E-5
9228.515625; 9.73583E-5
9234.375000; 9.43205E-5
9240.234375; 1.00648E-4
9246.093750; 1.08800E-4
9251.953125; 1.13856E-4
9257.812500; 1.16790E-4
9263.671875; 1.15044E-4
9269.531250; 1.16038E-4
9275.390625; 1.13110E-4
9281.250000; 9.89319E-5
9287.109375; 9.30308E-5
9292.968750; 1.06210E-4
9298.828125; 1.05615E-4
9304.687500; 1.07110E-4
9310.546875; 1.09300E-4
9316.406250; 1.10451E-4
9322.265625; 1.06429E-4
9328.125000; 1.02290E-4
9333.984375; 1.09916E-4
9339.843750; 1.09380E-4
9345.703125; 1.02280E-4
9351.562500; 1.11082E-4
9357.421875; 1.05040E-4
9363.281250; 1.02745E-4
9369.140625; 9.36325E-5
9375.000000; 9.50229E-5
9380.859375; 1.17948E-4
9386.718750; 1.21568E-4
9392.578125; 1.12754E-4
9398.437500; 9.96776E-5
9404.296875; 1.08154E-4
9410.156250; 1.11146E-4
9416.015625; 1.01830E-4
9421.875000; 1.08022E-4
9427.734375; 1.00358E-4
9433.593750; 1.00948E-4
9439.453125; 1.06961E-4
9445.312500; 1.09069E-4
9451.171875; 1.11729E-4
9457.031250; 1.13142E-4
9462.890625; 1.03638E-4
9468.750000; 1.06775E-4
9474.609375; 1.16303E-4
9480.468750; 1.14794E-4
9486.328125; 1.04813E-4
9492.187500; 1.02601E-4
9498.046875; 1.07622E-4
9503.906250; 1.10339E-4
9509.765625; 1.03414E-4
9515.625000; 1.07278E-4
9521.484375; 1.01090E-4
9527.343750; 9.35770E-5
9533.203125; 1.10953E-4
9539.062500; 1.09318E-4
9544.921875; 1.02685E-4
9550.781250; 1.06636E-4
9556.640625; 1.21170E-4
9562.500000; 1.20997E-4
9568.359375; 1.28886E-4
9574.218750; 1.21058E-4
9580.078125; 1.04010E-4
9585.937500; 9.82193E-5
9591.796875; 1.13191E-4
9597.656250; 1.14940E-4
9603.515625; 1.06427E-4
9609.375000; 9.71227E-5
9615.234375; 9.90419E-5
9621.093750; 1.02986E-4
9626.953125; 1.04343E-4
9632.812500; 1.00851E-4
9638.671875; 9.50990E-5
9644.531250; 1.02754E-4
9650.390625; 1.21458E-4
9656.250000; 1.16698E-4
9662.109375; 1.13541E-4
9667.968750; 1.15653E-4
9673.828125; 1.05940E-4
9679.687500; 1.00038E-4
9685.546875; 1.08838E-4
9691.406250; 9.79878E-5
9697.265625; 1.06983E-4
9703.125000; 1.13809E-4
9708.984375; 1.06241E-4
9714.843750; 1.00603E-4
9720.703125; 1.02207E-4
9726.562500; 1.04850E-4
9732.421875; 1.01892E-4
9738.281250; 1.06218E-4
9744.140625; 1.16552E-4
9750.000000; 1.12271E-4
9755.859375; 1.02127E-4
9761.718750; 1.04318E-4
9767.578125; 1.05955E-4
9773.437500; 1.21779E-4
9779.296875; 1.13081E-4
9785.156250; 1.06840E-4
9791.015625; 1.16654E-4
9796.875000; 1.11792E-4
9802.734375; 1.18622E-4
9808.593750; 1.11486E-4
9814.453125; 1.12014E-4
9820.312500; 1.06488E-4
9826.171875; 1.00830E-4
9832.031250; 1.04145E-4
9837.890625; 1.04369E-4
9843.750000; 1.03252E-4
9849.609375; 1.08460E-4
9855.468750; 1.14013E-4
9861.328125; 1.08054E-4
9867.187500; 1.07403E-4
9873.046875; 1.13420E-4
9878.906250; 1.07633E-4
9884.765625; 1.03376E-4
9890.625000; 1.10601E-4
9896.484375; 1.05273E-4
9902.343750; 1.03297E-4
9908.203125; 1.02625E-4
9914.062500; 1.06075E-4
9919.921875; 9.42617E-5
9925.781250; 9.74758E-5
9931.640625; 1.04804E-4
9937.500000; 1.17017E-4
9943.359375; 1.17261E-4
9949.218750; 1.10002E-4
9955.078125; 1.03353E-4
9960.937500; 1.02283E-4
9966.796875; 1.13583E-4
9972.656250; 1.17354E-4
9978.515625; 1.21684E-4
9984.375000; 1.22143E-4
9990.234375; 1.32863E-4
9996.093750; 1.14565E-4
10001.953125; 9.51822E-5
10007.812500; 9.96001E-5
10013.671875; 1.05186E-4
10019.531250; 1.09213E-4
10025.390625; 1.10818E-4
10031.250000; 1.11847E-4
10037.109375; 1.06544E-4
10042.968750; 1.05680E-4
10048.828125; 1.10653E-4
10054.687500; 1.07809E-4
10060.546875; 1.16865E-4
10066.406250; 1.12640E-4
10072.265625; 1.01813E-4
10078.125000; 1.02773E-4
10083.984375; 1.13330E-4
10089.843750; 1.06503E-4
10095.703125; 1.11262E-4
10101.562500; 1.15191E-4
10107.421875; 1.04003E-4
10113.281250; 1.03182E-4
10119.140625; 1.04017E-4
10125.000000; 1.02914E-4
10130.859375; 1.09518E-4
10136.718750; 1.09205E-4
10142.578125; 1.13553E-4
10148.437500; 1.12435E-4
10154.296875; 1.10928E-4
10160.156250; 1.18151E-4
10166.015625; 1.09122E-4
10171.875000; 1.01018E-4
10177.734375; 1.08247E-4
10183.593750; 1.05781E-4
10189.453125; 1.08598E-4
10195.312500; 1.20036E-4
10201.171875; 1.11349E-4
10207.031250; 1.08576E-4
10212.890625; 1.11652E-4
10218.750000; 1.02525E-4
10224.609375; 1.13420E-4
10230.468750; 1.20276E-4
10236.328125; 1.14770E-4
10242.187500; 1.06206E-4
10248.046875; 9.38160E-5
10253.906250; 9.37361E-5
10259.765625; 9.57590E-5
10265.625000; 1.07013E-4
10271.484375; 1.07481E-4
10277.343750; 1.04004E-4
10283.203125; 1.05150E-4
10289.062500; 1.10849E-4
10294.921875; 1.13070E-4
10300.781250; 1.10660E-4
10306.640625; 1.08010E-4
10312.500000; 1.12187E-4
10318.359375; 1.07863E-4
10324.218750; 9.70298E-5
10330.078125; 1.05961E-4
10335.937500; 1.06592E-4
10341.796875; 1.06875E-4
10347.656250; 1.04872E-4
10353.515625; 1.08976E-4
10359.375000; 1.01994E-4
10365.234375; 1.13887E-4
10371.093750; 1.04551E-4
10376.953125; 1.00538E-4
10382.812500; 1.06713E-4
10388.671875; 1.03157E-4
10394.531250; 9.71169E-5
10400.390625; 1.00684E-4
10406.250000; 1.13200E-4
10412.109375; 1.12173E-4
10417.968750; 1.08444E-4
10423.828125; 1.13466E-4
10429.687500; 1.09496E-4
10435.546875; 1.23320E-4
10441.406250; 1.10758E-4
10447.265625; 1.00121E-4
10453.125000; 1.05330E-4
10458.984375; 9.29094E-5
10464.843750; 1.00259E-4
10470.703125; 1.17808E-4
10476.562500; 1.15025E-4
10482.421875; 1.02475E-4
10488.281250; 9.76385E-5
10494.140625; 1.00704E-4
10500.000000; 1.09524E-4
10505.859375; 1.03506E-4
10511.718750; 1.01278E-4
10517.578125; 1.11707E-4
10523.437500; 9.95142E-5
10529.296875; 9.76685E-5
10535.156250; 1.11269E-4
10541.015625; 1.10676E-4
10546.875000; 1.12019E-4
10552.734375; 1.03489E-4
10558.593750; 1.04248E-4
10564.453125; 1.05276E-4
10570.312500; 1.09155E-4
10576.171875; 1.01556E-4
10582.031250; 1.14193E-4
10587.890625; 1.09680E-4
10593.750000; 9.78682E-5
10599.609375; 1.11735E-4
10605.468750; 1.08522E-4
10611.328125; 1.11607E-4
10617.187500; 1.15852E-4
10623.046875; 1.10391E-4
10628.906250; 1.06349E-4
10634.765625; 1.20619E-4
10640.625000; 1.30467E-4
10646.484375; 1.18964E-4
10652.343750; 1.13401E-4
10658.203125; 1.16395E-4
10664.062500; 1.16190E-4
10669.921875; 1.14311E-4
10675.781250; 1.10823E-4
10681.640625; 1.11117E-4
10687.500000; 1.01237E-4
10693.359375; 1.04574E-4
10699.218750; 1.06056E-4
10705.078125; 1.01487E-4
10710.937500; 9.73619E-5
10716.796875; 1.09219E-4
10722.656250; 1.06282E-4
10728.515625; 1.13330E-4
10734.375000; 1.09686E-4
10740.234375; 1.07985E-4
10746.093750; 1.06141E-4
10751.953125; 1.08459E-4
10757.812500; 1.08586E-4
10763.671875; 1.07452E-4
10769.531250; 1.10566E-4
10775.390625; 1.08973E-4
10781.250000; 1.00158E-4
10787.109375; 9.65211E-5
10792.968750; 1.07042E-4
10798.828125; 1.05673E-4
10804.687500; 9.96578E-5
10810.546875; 9.90102E-5
10816.406250; 9.56332E-5
10822.265625; 1.00292E-4
10828.125000; 9.49216E-5
10833.984375; 9.79610E-5
10839.843750; 1.11230E-4
10845.703125; 1.11924E-4
10851.562500; 1.01621E-4
10857.421875; 9.64174E-5
10863.281250; 9.84464E-5
10869.140625; 9.99996E-5
10875.000000; 1.12801E-4
10880.859375; 1.13893E-4
10886.718750; 1.05419E-4
10892.578125; 1.09676E-4
10898.437500; 1.19188E-4
10904.296875; 1.06584E-4
10910.156250; 1.03391E-4
10916.015625; 9.35484E-5
10921.875000; 1.03928E-4
10927.734375; 1.06625E-4
10933.593750; 9.98647E-5
10939.453125; 1.14826E-4
10945.312500; 1.21176E-4
10951.171875; 1.07186E-4
10957.031250; 9.97905E-5
10962.890625; 1.05035E-4
10968.750000; 1.00864E-4
10974.609375; 1.00203E-4
10980.468750; 1.00322E-4
10986.328125; 1.13969E-4
10992.187500; 1.21357E-4
10998.046875; 1.22629E-4
11003.906250; 1.10052E-4
11009.765625; 1.03430E-4
11015.625000; 1.21170E-4
11021.484375; 1.15010E-4
11027.343750; 1.05811E-4
11033.203125; 1.04277E-4
11039.062500; 1.14095E-4
11044.921875; 1.08138E-4
11050.781250; 9.53950E-5
11056.640625; 1.00869E-4
11062.500000; 1.14182E-4
11068.359375; 1.15867E-4
11074.218750; 1.14257E-4
11080.078125; 9.35088E-5
11085.937500; 1.09177E-4
11091.796875; 1.10535E-4
11097.656250; 1.05373E-4
11103.515625; 1.09538E-4
11109.375000; 1.03719E-4
11115.234375; 1.11675E-4
11121.093750; 1.05110E-4
11126.953125; 1.09217E-4
11132.812500; 1.03990E-4
11138.671875; 1.07163E-4
11144.531250; 1.09891E-4
11150.390625; 1.11257E-4
11156.250000; 1.01565E-4
11162.109375; 1.06622E-4
11167.968750; 1.14179E-4
11173.828125; 1.15202E-4
11179.687500; 1.24402E-4
11185.546875; 1.15069E-4
11191.406250; 1.07502E-4
11197.265625; 1.09872E-4
11203.125000; 1.18865E-4
11208.984375; 1.08960E-4
11214.843750; 1.06342E-4
11220.703125; 1.09461E-4
11226.562500; 1.17426E-4
11232.421875; 9.91047E-5
11238.281250; 9.38032E-5
11244.140625; 1.10556E-4
11250.000000; 1.09262E-4
11255.859375; 9.81598E-5
11261.718750; 9.37094E-5
11267.578125; 1.12320E-4
11273.437500; 1.10952E-4
11279.296875; 1.05034E-4
11285.156250; 1.10516E-4
11291.015625; 1.12773E-4
11296.875000; 1.07300E-4
11302.734375; 1.16790E-4
11308.593750; 1.16396E-4
11314.453125; 1.12234E-4
11320.312500; 1.19940E-4
11326.171875; 1.06993E-4
11332.031250; 1.06717E-4
11337.890625; 1.00555E-4
11343.750000; 1.02494E-4
11349.609375; 1.03054E-4
11355.468750; 9.57498E-5
11361.328125; 9.52008E-5
11367.187500; 9.58185E-5
11373.046875; 1.00613E-4
11378.906250; 1.15665E-4
11384.765625; 1.08500E-4
11390.625000; 1.03239E-4
11396.484375; 1.03778E-4
11402.343750; 9.14056E-5
11408.203125; 1.04927E-4
11414.062500; 1.16680E-4
11419.921875; 1.22895E-4
11425.781250; 1.13063E-4
11431.640625; 9.84233E-5
11437.500000; 1.02448E-4
11443.359375; 1.15273E-4
11449.218750; 1.15763E-4
11455.078125; 1.13058E-4
11460.937500; 1.29092E-4
11466.796875; 1.18498E-4
11472.656250; 1.01119E-4
11478.515625; 1.08076E-4
11484.375000; 1.00969E-4
11490.234375; 9.97710E-5
11496.093750; 1.11386E-4
11501.953125; 1.13950E-4
11507.812500; 1.01485E-4
11513.671875; 1.05918E-4
11519.531250; 9.51564E-5
11525.390625; 1.05624E-4
11531.250000; 1.12591E-4
11537.109375; 9.87952E-5
11542.968750; 1.04791E-4
11548.828125; 1.07690E-4
11554.687500; 1.08850E-4
11560.546875; 1.09762E-4
11566.406250; 1.14559E-4
11572.265625; 1.13658E-4
11578.125000; 1.09590E-4
11583.984375; 1.11877E-4
11589.843750; 1.11963E-4
11595.703125; 1.12968E-4
11601.562500; 1.08251E-4
11607.421875; 1.09753E-4
11613.281250; 1.04388E-4
11619.140625; 9.04896E-5
11625.000000; 1.02474E-4
11630.859375; 1.09881E-4
11636.718750; 1.12733E-4
11642.578125; 1.13201E-4
11648.437500; 1.15794E-4
11654.296875; 1.05861E-4
11660.156250; 1.11968E-4
11666.015625; 1.02559E-4
11671.875000; 9.84657E-5
11677.734375; 1.05943E-4
11683.593750; 1.06737E-4
11689.453125; 1.16247E-4
11695.312500; 1.14387E-4
11701.171875; 1.04908E-4
11707.031250; 1.02849E-4
11712.890625; 9.73033E-5
11718.750000; 1.07574E-4
11724.609375; 1.03501E-4
11730.468750; 1.02152E-4
11736.328125; 1.04189E-4
11742.187500; 1.00960E-4
11748.046875; 1.05076E-4
11753.906250; 1.16533E-4
11759.765625; 1.16682E-4
11765.625000; 1.01989E-4
11771.484375; 1.11951E-4
11777.343750; 1.19345E-4
11783.203125; 1.17509E-4
11789.062500; 1.00235E-4
11794.921875; 1.01744E-4
11800.781250; 1.04342E-4
11806.640625; 1.05803E-4
11812.500000; 1.02143E-4
11818.359375; 1.03571E-4
11824.218750; 9.26330E-5
11830.078125; 1.00132E-4
11835.937500; 1.12596E-4
11841.796875; 1.05380E-4
11847.656250; 1.02546E-4
11853.515625; 1.06414E-4
11859.375000; 1.12053E-4
11865.234375; 1.12458E-4
11871.093750; 1.11322E-4
11876.953125; 1.05519E-4
11882.812500; 1.04112E-4
11888.671875; 1.11566E-4
11894.531250; 1.19893E-4
11900.390625; 1.15932E-4
11906.250000; 9.83251E-5
11912.109375; 1.08585E-4
11917.968750; 1.08570E-4
11923.828125; 1.13579E-4
11929.687500; 1.21022E-4
11935.546875; 1.04006E-4
11941.406250; 1.15688E-4
11947.265625; 1.10160E-4
11953.125000; 1.05261E-4
11958.984375; 9.96602E-5
11964.843750; 1.04027E-4
11970.703125; 1.00708E-4
11976.562500; 9.40494E-5
11982.421875; 1.01251E-4
11988.281250; 1.17367E-4
11994.140625; 1.14832E-4
12000.000000; 9.78866E-5
12005.859375; 9.79307E-5
12011.718750; 9.32274E-5
12017.578125; 9.79042E-5
12023.437500; 9.02093E-5
12029.296875; 8.91402E-5
12035.156250; 8.97597E-5
12041.015625; 9.21063E-5
12046.875000; 9.49518E-5
12052.734375; 1.05013E-4
12058.593750; 9.69527E-5
12064.453125; 9.75484E-5
12070.312500; 1.05543E-4
12076.171875; 1.06075E-4
12082.031250; 1.14150E-4
12087.890625; 1.11004E-4
12093.750000; 1.00846E-4
12099.609375; 9.67968E-5
12105.468750; 9.91952E-5
12111.328125; 1.02678E-4
12117.187500; 1.06571E-4
12123.046875; 1.17531E-4
12128.906250; 9.06767E-5
12134.765625; 1.02604E-4
12140.625000; 9.97067E-5
12146.484375; 1.06043E-4
12152.343750; 1.08856E-4
12158.203125; 1.07773E-4
12164.062500; 1.01972E-4
12169.921875; 9.80260E-5
12175.781250; 9.81176E-5
12181.640625; 1.08540E-4
12187.500000; 1.12433E-4
12193.359375; 1.05439E-4
12199.218750; 1.03790E-4
12205.078125; 1.12785E-4
12210.937500; 1.11680E-4
12216.796875; 1.06728E-4
12222.656250; 1.08743E-4
12228.515625; 9.71925E-5
12234.375000; 9.84794E-5
12240.234375; 9.99612E-5
12246.093750; 1.05578E-4
12251.953125; 1.15386E-4
12257.812500; 1.20528E-4
12263.671875; 1.28212E-4
12269.531250; 1.21627E-4
12275.390625; 1.17312E-4
12281.250000; 1.11512E-4
12287.109375; 1.03055E-4
12292.968750; 1.00064E-4
12298.828125; 1.07339E-4
12304.687500; 1.08093E-4
12310.546875; 1.10021E-4
12316.406250; 1.10183E-4
12322.265625; 1.06821E-4
12328.125000; 9.78813E-5
12333.984375; 1.01937E-4
12339.843750; 1.06111E-4
12345.703125; 9.98229E-5
12351.562500; 9.89301E-5
12357.421875; 1.01077E-4
12363.281250; 9.63341E-5
12369.140625; 9.90704E-5
12375.000000; 9.93662E-5
12380.859375; 9.85068E-5
12386.718750; 1.04758E-4
12392.578125; 1.12490E-4
12398.437500; 1.14890E-4
12404.296875; 9.43689E-5
12410.156250; 9.70871E-5
12416.015625; 9.91496E-5
12421.875000; 9.32624E-5
12427.734375; 1.02755E-4
12433.593750; 1.09568E-4
12439.453125; 1.09788E-4
12445.312500; 1.09854E-4
12451.171875; 1.07792E-4
12457.031250; 1.02959E-4
12462.890625; 1.03159E-4
12468.750000; 1.07497E-4
12474.609375; 1.08134E-4
12480.468750; 1.09141E-4
12486.328125; 1.01791E-4
12492.187500; 1.04427E-4
12498.046875; 1.21206E-4
12503.906250; 1.21295E-4
12509.765625; 1.06761E-4
12515.625000; 1.10738E-4
12521.484375; 1.15987E-4
12527.343750; 1.12345E-4
12533.203125; 1.07135E-4
12539.062500; 1.04729E-4
12544.921875; 1.08134E-4
12550.781250; 1.13855E-4
12556.640625; 1.05756E-4
12562.500000; 1.12754E-4
12568.359375; 1.08389E-4
12574.218750; 1.19262E-4
12580.078125; 1.15889E-4
12585.937500; 1.07379E-4
12591.796875; 1.05237E-4
12597.656250; 9.32512E-5
12603.515625; 8.94617E-5
12609.375000; 1.01632E-4
12615.234375; 1.12854E-4
12621.093750; 1.05181E-4
12626.953125; 1.02901E-4
12632.812500; 1.04089E-4
12638.671875; 1.09804E-4
12644.531250; 1.06805E-4
12650.390625; 9.99286E-5
12656.250000; 9.62316E-5
12662.109375; 1.04141E-4
12667.968750; 1.09411E-4
12673.828125; 1.08009E-4
12679.687500; 1.13515E-4
12685.546875; 1.07255E-4
12691.406250; 1.08068E-4
12697.265625; 1.06872E-4
12703.125000; 9.86013E-5
12708.984375; 1.08224E-4
12714.843750; 1.10643E-4
12720.703125; 1.05015E-4
12726.562500; 1.01967E-4
12732.421875; 1.06814E-4
12738.281250; 9.80247E-5
12744.140625; 1.00635E-4
12750.000000; 1.12769E-4
12755.859375; 1.13264E-4
12761.718750; 9.94613E-5
12767.578125; 1.08774E-4
12773.437500; 1.17456E-4
12779.296875; 1.03906E-4
12785.156250; 1.10017E-4
12791.015625; 1.12895E-4
12796.875000; 1.01789E-4
12802.734375; 9.47101E-5
12808.593750; 1.13942E-4
12814.453125; 1.12457E-4
12820.312500; 1.07796E-4
12826.171875; 9.82158E-5
12832.031250; 9.31934E-5
12837.890625; 9.35552E-5
12843.750000; 1.00411E-4
12849.609375; 1.03854E-4
12855.468750; 1.03982E-4
12861.328125; 1.07531E-4
12867.187500; 1.09478E-4
12873.046875; 1.05805E-4
12878.906250; 1.06319E-4
12884.765625; 1.06130E-4
12890.625000; 1.12493E-4
12896.484375; 1.04506E-4
12902.343750; 9.59108E-5
12908.203125; 1.02850E-4
12914.062500; 1.09180E-4
12919.921875; 1.05770E-4
12925.781250; 8.95932E-5
12931.640625; 1.07173E-4
12937.500000; 1.11726E-4
12943.359375; 1.06805E-4
12949.218750; 1.11343E-4
12955.078125; 9.83136E-5
12960.937500; 9.41525E-5
12966.796875; 1.07074E-4
12972.656250; 9.90629E-5
12978.515625; 1.02844E-4
12984.375000; 1.08133E-4
12990.234375; 1.10746E-4
12996.093750; 9.74752E-5
13001.953125; 1.06566E-4
13007.812500; 1.10913E-4
13013.671875; 1.19532E-4
13019.531250; 1.10721E-4
13025.390625; 1.11048E-4
13031.250000; 1.08375E-4
13037.109375; 9.87735E-5
13042.968750; 1.06328E-4
13048.828125; 1.04572E-4
13054.687500; 1.02361E-4
13060.546875; 9.87686E-5
13066.406250; 1.06771E-4
13072.265625; 1.08737E-4
13078.125000; 1.14260E-4
13083.984375; 1.19670E-4
13089.843750; 1.16207E-4
13095.703125; 1.13130E-4
13101.562500; 1.11516E-4
13107.421875; 1.13596E-4
13113.281250; 1.07761E-4
13119.140625; 1.07299E-4
13125.000000; 1.11276E-4
13130.859375; 9.66384E-5
13136.718750; 1.02393E-4
13142.578125; 1.24792E-4
13148.437500; 1.18710E-4
13154.296875; 9.61710E-5
13160.156250; 1.09380E-4
13166.015625; 1.03528E-4
13171.875000; 9.77517E-5
13177.734375; 1.20761E-4
13183.593750; 1.22815E-4
13189.453125; 1.19025E-4
13195.312500; 1.07488E-4
13201.171875; 9.36793E-5
13207.031250; 9.89277E-5
13212.890625; 1.00721E-4
13218.750000; 1.13301E-4
13224.609375; 1.07371E-4
13230.468750; 1.08410E-4
13236.328125; 9.30978E-5
13242.187500; 1.05183E-4
13248.046875; 1.13982E-4
13253.906250; 1.17396E-4
13259.765625; 9.79169E-5
13265.625000; 9.38802E-5
13271.484375; 1.02236E-4
13277.343750; 1.10074E-4
13283.203125; 1.21641E-4
13289.062500; 1.17193E-4
13294.921875; 1.09180E-4
13300.781250; 1.02949E-4
13306.640625; 1.14271E-4
13312.500000; 1.04953E-4
13318.359375; 1.06108E-4
13324.218750; 1.15969E-4
13330.078125; 1.10650E-4
13335.937500; 9.63710E-5
13341.796875; 1.05352E-4
13347.656250; 1.15976E-4
13353.515625; 1.18777E-4
13359.375000; 1.07528E-4
13365.234375; 1.05521E-4
13371.093750; 1.09224E-4
13376.953125; 1.08120E-4
13382.812500; 1.13419E-4
13388.671875; 1.20934E-4
13394.531250; 1.08599E-4
13400.390625; 1.01677E-4
13406.250000; 1.02049E-4
13412.109375; 1.01552E-4
13417.968750; 1.08786E-4
13423.828125; 1.12263E-4
13429.687500; 1.16679E-4
13435.546875; 1.08496E-4
13441.406250; 1.08723E-4
13447.265625; 1.13593E-4
13453.125000; 1.08274E-4
13458.984375; 9.76525E-5
13464.843750; 9.96580E-5
13470.703125; 1.02996E-4
13476.562500; 1.14210E-4
13482.421875; 9.99320E-5
13488.281250; 9.76203E-5
13494.140625; 1.01482E-4
13500.000000; 1.02509E-4
13505.859375; 9.41479E-5
13511.718750; 9.68258E-5
13517.578125; 1.12077E-4
13523.437500; 1.11635E-4
13529.296875; 1.10863E-4
13535.156250; 1.01285E-4
13541.015625; 1.06871E-4
13546.875000; 1.08048E-4
13552.734375; 1.14146E-4
13558.593750; 1.23626E-4
13564.453125; 1.10399E-4
13570.312500; 9.85980E-5
13576.171875; 9.97787E-5
13582.031250; 1.07636E-4
13587.890625; 1.13334E-4
13593.750000; 1.11036E-4
13599.609375; 9.86653E-5
13605.468750; 1.04979E-4
13611.328125; 1.01538E-4
13617.187500; 1.04044E-4
13623.046875; 1.06432E-4
13628.906250; 1.11972E-4
13634.765625; 1.05805E-4
13640.625000; 1.01834E-4
13646.484375; 1.06395E-4
13652.343750; 1.04111E-4
13658.203125; 9.77159E-5
13664.062500; 1.01542E-4
13669.921875; 1.03821E-4
13675.781250; 1.08618E-4
13681.640625; 9.94726E-5
13687.500000; 1.09022E-4
13693.359375; 1.09452E-4
13699.218750; 1.15951E-4
13705.078125; 1.14532E-4
13710.937500; 1.07696E-4
13716.796875; 9.97745E-5
13722.656250; 9.83417E-5
13728.515625; 1.11061E-4
13734.375000; 1.17097E-4
13740.234375; 1.12521E-4
13746.093750; 1.06715E-4
13751.953125; 1.02875E-4
13757.812500; 9.88583E-5
13763.671875; 1.01535E-4
13769.531250; 1.03261E-4
13775.390625; 8.83677E-5
13781.250000; 9.45042E-5
13787.109375; 1.13595E-4
13792.968750; 1.02610E-4
13798.828125; 1.04617E-4
13804.687500; 1.08353E-4
13810.546875; 9.38695E-5
13816.406250; 1.05045E-4
13822.265625; 1.09667E-4
13828.125000; 9.39760E-5
13833.984375; 9.85225E-5
13839.843750; 1.01224E-4
13845.703125; 1.13059E-4
13851.562500; 1.11764E-4
13857.421875; 9.78871E-5
13863.281250; 1.07662E-4
13869.140625; 1.06466E-4
13875.000000; 9.96289E-5
13880.859375; 9.71362E-5
13886.718750; 1.01499E-4
13892.578125; 1.06076E-4
13898.437500; 1.05249E-4
13904.296875; 1.04564E-4
13910.156250; 1.07459E-4
13916.015625; 1.10774E-4
13921.875000; 1.21799E-4
13927.734375; 1.11583E-4
13933.593750; 1.00326E-4
13939.453125; 1.15733E-4
13945.312500; 1.04532E-4
13951.171875; 9.67402E-5
13957.031250; 1.06944E-4
13962.890625; 1.08253E-4
13968.750000; 1.04094E-4
13974.609375; 1.06245E-4
13980.468750; 1.06837E-4
13986.328125; 9.58947E-5
13992.187500; 9.39175E-5
13998.046875; 9.92446E-5
14003.906250; 9.74240E-5
14009.765625; 1.08718E-4
14015.625000; 1.10339E-4
14021.484375; 1.04597E-4
14027.343750; 1.10445E-4
14033.203125; 1.13685E-4
14039.062500; 1.07600E-4
14044.921875; 1.11365E-4
14050.781250; 1.14047E-4
14056.640625; 1.16962E-4
14062.500000; 1.14395E-4
14068.359375; 1.12706E-4
14074.218750; 1.12519E-4
14080.078125; 1.12204E-4
14085.937500; 1.17186E-4
14091.796875; 1.16308E-4
14097.656250; 9.36533E-5
14103.515625; 9.99795E-5
14109.375000; 1.04805E-4
14115.234375; 1.08484E-4
14121.093750; 1.12968E-4
14126.953125; 1.03079E-4
14132.812500; 1.16584E-4
14138.671875; 1.23622E-4
14144.531250; 1.19274E-4
14150.390625; 1.01185E-4
14156.250000; 8.92894E-5
14162.109375; 1.03094E-4
14167.968750; 1.09166E-4
14173.828125; 1.13070E-4
14179.687500; 1.05604E-4
14185.546875; 1.10503E-4
14191.406250; 1.02828E-4
14197.265625; 9.90800E-5
14203.125000; 1.04723E-4
14208.984375; 1.07463E-4
14214.843750; 1.14460E-4
14220.703125; 1.02858E-4
14226.562500; 1.11916E-4
14232.421875; 1.13691E-4
14238.281250; 1.02020E-4
14244.140625; 1.08528E-4
14250.000000; 1.08637E-4
14255.859375; 1.09722E-4
14261.718750; 9.75404E-5
14267.578125; 9.86433E-5
14273.437500; 1.12532E-4
14279.296875; 1.09165E-4
14285.156250; 1.05256E-4
14291.015625; 1.05424E-4
14296.875000; 1.03837E-4
14302.734375; 1.03964E-4
14308.593750; 1.00985E-4
14314.453125; 1.05202E-4
14320.312500; 1.07485E-4
14326.171875; 1.19111E-4
14332.031250; 1.17493E-4
14337.890625; 1.04924E-4
14343.750000; 1.08438E-4
14349.609375; 1.08654E-4
14355.468750; 1.05770E-4
14361.328125; 1.07415E-4
14367.187500; 1.05571E-4
14373.046875; 1.03193E-4
14378.906250; 1.04214E-4
14384.765625; 1.06362E-4
14390.625000; 1.06855E-4
14396.484375; 1.07919E-4
14402.343750; 1.11933E-4
14408.203125; 9.95513E-5
14414.062500; 1.11521E-4
14419.921875; 1.11625E-4
14425.781250; 1.20938E-4
14431.640625; 1.19739E-4
14437.500000; 1.06006E-4
14443.359375; 1.01066E-4
14449.218750; 1.02802E-4
14455.078125; 1.07321E-4
14460.937500; 1.11173E-4
14466.796875; 1.05495E-4
14472.656250; 1.02284E-4
14478.515625; 1.10737E-4
14484.375000; 1.15944E-4
14490.234375; 1.09260E-4
14496.093750; 1.06096E-4
14501.953125; 1.03700E-4
14507.812500; 1.00724E-4
14513.671875; 9.86527E-5
14519.531250; 1.13060E-4
14525.390625; 1.14317E-4
14531.250000; 1.09958E-4
14537.109375; 1.03897E-4
14542.968750; 1.14804E-4
14548.828125; 1.17041E-4
14554.687500; 1.24903E-4
14560.546875; 1.30267E-4
14566.406250; 1.27307E-4
14572.265625; 1.10998E-4
14578.125000; 1.13999E-4
14583.984375; 1.17779E-4
14589.843750; 1.13966E-4
14595.703125; 1.10126E-4
14601.562500; 1.07061E-4
14607.421875; 1.02853E-4
14613.281250; 9.40763E-5
14619.140625; 1.04258E-4
14625.000000; 1.13727E-4
14630.859375; 1.13132E-4
14636.718750; 1.11006E-4
14642.578125; 1.13272E-4
14648.437500; 1.05595E-4
14654.296875; 1.04887E-4
14660.156250; 1.17075E-4
14666.015625; 1.09950E-4
14671.875000; 1.03636E-4
14677.734375; 9.91334E-5
14683.593750; 1.05880E-4
14689.453125; 9.97866E-5
14695.312500; 9.22752E-5
14701.171875; 9.56392E-5
14707.031250; 1.01807E-4
14712.890625; 1.11298E-4
14718.750000; 1.14447E-4
14724.609375; 9.83795E-5
14730.468750; 1.01409E-4
14736.328125; 1.07942E-4
14742.187500; 1.11441E-4
14748.046875; 1.04144E-4
14753.906250; 1.15418E-4
14759.765625; 1.20170E-4
14765.625000; 1.05983E-4
14771.484375; 9.36246E-5
14777.343750; 1.04547E-4
14783.203125; 1.01878E-4
14789.062500; 9.88390E-5
14794.921875; 1.06714E-4
14800.781250; 1.12838E-4
14806.640625; 1.17191E-4
14812.500000; 9.94712E-5
14818.359375; 9.91918E-5
14824.218750; 1.03625E-4
14830.078125; 1.13669E-4
14835.937500; 1.13040E-4
14841.796875; 1.15464E-4
14847.656250; 1.16450E-4
14853.515625; 1.27527E-4
14859.375000; 1.18295E-4
14865.234375; 9.38093E-5
14871.093750; 8.82642E-5
14876.953125; 8.99796E-5
14882.812500; 9.94220E-5
14888.671875; 1.12774E-4
14894.531250; 1.14570E-4
14900.390625; 1.09427E-4
14906.250000; 1.00040E-4
14912.109375; 9.64036E-5
14917.968750; 1.02863E-4
14923.828125; 1.03977E-4
14929.687500; 1.01372E-4
14935.546875; 1.15134E-4
14941.406250; 1.10280E-4
14947.265625; 1.03499E-4
14953.125000; 9.78203E-5
14958.984375; 1.12795E-4
14964.843750; 1.03121E-4
14970.703125; 1.03346E-4
14976.562500; 1.09542E-4
14982.421875; 1.07824E-4
14988.281250; 9.89145E-5
14994.140625; 1.02752E-4
15000.000000; 1.07515E-4
15005.859375; 1.01501E-4
15011.718750; 9.82507E-5
15017.578125; 1.15314E-4
15023.437500; 1.12911E-4
15029.296875; 9.89374E-5
15035.156250; 9.84465E-5
15041.015625; 1.06404E-4
15046.875000; 1.07449E-4
15052.734375; 1.07506E-4
15058.593750; 1.00830E-4
15064.453125; 1.14386E-4
15070.312500; 1.06668E-4
15076.171875; 1.09891E-4
15082.031250; 1.01168E-4
15087.890625; 1.02008E-4
15093.750000; 1.06275E-4
15099.609375; 9.68704E-5
15105.468750; 9.55496E-5
15111.328125; 1.02034E-4
15117.187500; 1.02335E-4
15123.046875; 1.06026E-4
15128.906250; 1.21103E-4
15134.765625; 1.11086E-4
15140.625000; 8.96737E-5
15146.484375; 9.90900E-5
15152.343750; 9.44612E-5
15158.203125; 1.01557E-4
15164.062500; 1.08876E-4
15169.921875; 1.08960E-4
15175.781250; 1.09113E-4
15181.640625; 1.08899E-4
15187.500000; 1.01086E-4
15193.359375; 1.11278E-4
15199.218750; 1.18872E-4
15205.078125; 1.12698E-4
15210.937500; 1.00871E-4
15216.796875; 1.00775E-4
15222.656250; 9.90519E-5
15228.515625; 1.03678E-4
15234.375000; 1.02661E-4
15240.234375; 9.56767E-5
15246.093750; 1.07309E-4
15251.953125; 1.11027E-4
15257.812500; 9.31273E-5
15263.671875; 8.80156E-5
15269.531250; 1.04694E-4
15275.390625; 1.11646E-4
15281.250000; 1.07926E-4
15287.109375; 1.05359E-4
15292.968750; 1.12593E-4
15298.828125; 1.03167E-4
15304.687500; 1.10080E-4
15310.546875; 1.13457E-4
15316.406250; 1.13623E-4
15322.265625; 1.03881E-4
15328.125000; 1.01299E-4
15333.984375; 1.06964E-4
15339.843750; 1.13176E-4
15345.703125; 1.18222E-4
15351.562500; 1.14312E-4
15357.421875; 9.98886E-5
15363.281250; 9.92357E-5
15369.140625; 9.83327E-5
15375.000000; 1.09247E-4
15380.859375; 1.17557E-4
15386.718750; 1.20601E-4
15392.578125; 1.09013E-4
15398.437500; 1.01776E-4
15404.296875; 1.05296E-4
15410.156250; 1.01879E-4
15416.015625; 1.02640E-4
15421.875000; 1.04624E-4
15427.734375; 1.11609E-4
15433.593750; 1.01476E-4
15439.453125; 9.64095E-5
15445.312500; 1.01673E-4
15451.171875; 1.05226E-4
15457.031250; 1.02045E-4
15462.890625; 1.02688E-4
15468.750000; 1.12460E-4
15474.609375; 1.18579E-4
15480.468750; 1.08029E-4
15486.328125; 1.08399E-4
15492.187500; 1.16215E-4
15498.046875; 1.12290E-4
15503.906250; 1.01723E-4
15509.765625; 9.04956E-5
15515.625000; 1.09328E-4
15521.484375; 1.17697E-4
15527.343750; 1.06436E-4
15533.203125; 1.12012E-4
15539.062500; 1.12434E-4
15544.921875; 9.29645E-5
15550.781250; 9.96974E-5
15556.640625; 1.12453E-4
15562.500000; 1.10019E-4
15568.359375; 1.09663E-4
15574.218750; 1.13422E-4
15580.078125; 1.09503E-4
15585.937500; 1.04870E-4
15591.796875; 1.08213E-4
15597.656250; 1.11366E-4
15603.515625; 1.02768E-4
15609.375000; 9.08175E-5
15615.234375; 9.09922E-5
15621.093750; 8.21842E-5
15626.953125; 1.01211E-4
15632.812500; 1.04337E-4
15638.671875; 1.02641E-4
15644.531250; 1.04277E-4
15650.390625; 1.01517E-4
15656.250000; 1.08882E-4
15662.109375; 1.07972E-4
15667.968750; 1.02211E-4
15673.828125; 1.14042E-4
15679.687500; 1.11019E-4
15685.546875; 1.05048E-4
15691.406250; 9.97742E-5
15697.265625; 9.32696E-5
15703.125000; 1.08015E-4
15708.984375; 1.10471E-4
15714.843750; 1.02453E-4
15720.703125; 1.13641E-4
15726.562500; 1.16809E-4
15732.421875; 1.19874E-4
15738.281250; 1.12834E-4
15744.140625; 1.09743E-4
15750.000000; 1.10643E-4
15755.859375; 1.10742E-4
15761.718750; 1.17687E-4
15767.578125; 1.07678E-4
15773.437500; 1.11159E-4
15779.296875; 1.01932E-4
15785.156250; 1.11955E-4
15791.015625; 1.17451E-4
15796.875000; 1.18361E-4
15802.734375; 1.03339E-4
15808.593750; 1.02725E-4
15814.453125; 1.00799E-4
15820.312500; 1.16745E-4
15826.171875; 1.04557E-4
15832.031250; 1.00318E-4
15837.890625; 9.59605E-5
15843.750000; 9.87214E-5
15849.609375; 1.07052E-4
15855.468750; 1.14920E-4
15861.328125; 1.09631E-4
15867.187500; 9.97036E-5
15873.046875; 9.36130E-5
15878.906250; 1.07291E-4
15884.765625; 1.14115E-4
15890.625000; 9.94771E-5
15896.484375; 1.06933E-4
15902.343750; 9.74032E-5
15908.203125; 9.71064E-5
15914.062500; 9.96252E-5
15919.921875; 9.04463E-5
15925.781250; 9.53793E-5
15931.640625; 1.02253E-4
15937.500000; 9.63152E-5
15943.359375; 9.22815E-5
15949.218750; 9.69297E-5
15955.078125; 1.03643E-4
15960.937500; 1.11722E-4
15966.796875; 1.17240E-4
15972.656250; 1.05480E-4
15978.515625; 1.11921E-4
15984.375000; 1.22373E-4
15990.234375; 1.15066E-4
15996.093750; 1.16833E-4
16001.953125; 1.09633E-4
16007.812500; 1.02184E-4
16013.671875; 1.07724E-4
16019.531250; 1.04767E-4
16025.390625; 1.07068E-4
16031.250000; 1.03332E-4
16037.109375; 1.08787E-4
16042.968750; 1.02574E-4
16048.828125; 9.95105E-5
16054.687500; 1.12764E-4
16060.546875; 1.13791E-4
16066.406250; 1.07381E-4
16072.265625; 9.80242E-5
16078.125000; 1.01984E-4
16083.984375; 1.00712E-4
16089.843750; 1.08627E-4
16095.703125; 9.81210E-5
16101.562500; 1.10702E-4
16107.421875; 1.08099E-4
16113.281250; 1.02011E-4
16119.140625; 9.76812E-5
16125.000000; 1.02394E-4
16130.859375; 1.00357E-4
16136.718750; 1.04097E-4
16142.578125; 9.53194E-5
16148.437500; 9.39677E-5
16154.296875; 1.02648E-4
16160.156250; 9.57525E-5
16166.015625; 1.09561E-4
16171.875000; 1.10894E-4
16177.734375; 9.88431E-5
16183.593750; 9.55233E-5
16189.453125; 9.58375E-5
16195.312500; 1.07049E-4
16201.171875; 1.00919E-4
16207.031250; 1.07757E-4
16212.890625; 1.17297E-4
16218.750000; 1.08655E-4
16224.609375; 1.00523E-4
16230.468750; 1.11180E-4
16236.328125; 1.18300E-4
16242.187500; 1.20821E-4
16248.046875; 1.07359E-4
16253.906250; 1.10181E-4
16259.765625; 1.13271E-4
16265.625000; 1.08261E-4
16271.484375; 1.17370E-4
16277.343750; 1.11482E-4
16283.203125; 1.01037E-4
16289.062500; 1.01305E-4
16294.921875; 1.19429E-4
16300.781250; 1.18019E-4
16306.640625; 9.77470E-5
16312.500000; 1.04614E-4
16318.359375; 1.07450E-4
16324.218750; 1.09546E-4
16330.078125; 1.02063E-4
16335.937500; 8.51302E-5
16341.796875; 9.84392E-5
16347.656250; 1.05676E-4
16353.515625; 1.09913E-4
16359.375000; 1.12204E-4
16365.234375; 1.12930E-4
16371.093750; 1.07416E-4
16376.953125; 1.03397E-4
16382.812500; 1.07388E-4
16388.671875; 1.12722E-4
16394.531250; 1.03016E-4
16400.390625; 9.88564E-5
16406.250000; 1.00007E-4
16412.109375; 1.13804E-4
16417.968750; 1.14266E-4
16423.828125; 9.72665E-5
16429.687500; 1.03507E-4
16435.546875; 1.12105E-4
16441.406250; 1.07138E-4
16447.265625; 1.05708E-4
16453.125000; 9.35630E-5
16458.984375; 9.77967E-5
16464.843750; 1.02006E-4
16470.703125; 9.79190E-5
16476.562500; 9.48594E-5
16482.421875; 1.09543E-4
16488.281250; 1.06860E-4
16494.140625; 1.05454E-4
16500.000000; 1.14021E-4
16505.859375; 1.15960E-4
16511.718750; 1.12729E-4
16517.578125; 9.48376E-5
16523.437500; 1.02728E-4
16529.296875; 1.09026E-4
16535.156250; 1.04962E-4
16541.015625; 1.09745E-4
16546.875000; 1.09526E-4
16552.734375; 1.16041E-4
16558.593750; 1.04420E-4
16564.453125; 1.09692E-4
16570.312500; 1.06836E-4
16576.171875; 1.03236E-4
16582.031250; 1.00579E-4
16587.890625; 1.07928E-4
16593.750000; 1.07108E-4
16599.609375; 9.57196E-5
16605.468750; 1.08391E-4
16611.328125; 1.15853E-4
16617.187500; 1.18230E-4
16623.046875; 1.13906E-4
16628.906250; 9.84428E-5
16634.765625; 9.74712E-5
16640.625000; 1.05367E-4
16646.484375; 1.14529E-4
16652.343750; 1.08438E-4
16658.203125; 1.04057E-4
16664.062500; 1.16240E-4
16669.921875; 1.11470E-4
16675.781250; 1.14126E-4
16681.640625; 1.07651E-4
16687.500000; 1.10053E-4
16693.359375; 1.06582E-4
16699.218750; 1.02439E-4
16705.078125; 1.11801E-4
16710.937500; 9.88743E-5
16716.796875; 9.58466E-5
16722.656250; 1.06805E-4
16728.515625; 1.01027E-4
16734.375000; 1.04639E-4
16740.234375; 1.08543E-4
16746.093750; 1.14564E-4
16751.953125; 1.11709E-4
16757.812500; 1.10624E-4
16763.671875; 1.02309E-4
16769.531250; 1.03141E-4
16775.390625; 1.10098E-4
16781.250000; 1.08755E-4
16787.109375; 1.15442E-4
16792.968750; 1.15363E-4
16798.828125; 1.06469E-4
16804.687500; 1.06253E-4
16810.546875; 9.99464E-5
16816.406250; 1.05605E-4
16822.265625; 1.01237E-4
16828.125000; 9.64625E-5
16833.984375; 1.07271E-4
16839.843750; 1.04719E-4
16845.703125; 9.41931E-5
16851.562500; 1.06591E-4
16857.421875; 1.03750E-4
16863.281250; 1.00258E-4
16869.140625; 1.01207E-4
16875.000000; 1.00558E-4
16880.859375; 9.98868E-5
16886.718750; 1.07566E-4
16892.578125; 1.18404E-4
16898.437500; 1.09181E-4
16904.296875; 1.09008E-4
16910.156250; 1.06796E-4
16916.015625; 1.00483E-4
16921.875000; 9.29780E-5
16927.734375; 1.12625E-4
16933.593750; 1.09739E-4
16939.453125; 1.02797E-4
16945.312500; 1.09164E-4
16951.171875; 1.03674E-4
16957.031250; 9.95719E-5
16962.890625; 1.02547E-4
16968.750000; 1.02526E-4
16974.609375; 1.02653E-4
16980.468750; 1.09679E-4
16986.328125; 9.58323E-5
16992.187500; 1.04733E-4
16998.046875; 1.10443E-4
17003.906250; 9.76136E-5
17009.765625; 1.08160E-4
17015.625000; 1.03684E-4
17021.484375; 1.08163E-4
17027.343750; 1.10549E-4
17033.203125; 1.05311E-4
17039.062500; 1.03835E-4
17044.921875; 1.04198E-4
17050.781250; 1.08713E-4
17056.640625; 1.02887E-4
17062.500000; 9.91873E-5
17068.359375; 1.00666E-4
17074.218750; 1.13556E-4
17080.078125; 9.77852E-5
17085.937500; 9.91816E-5
17091.796875; 1.02953E-4
17097.656250; 1.01744E-4
17103.515625; 1.05745E-4
17109.375000; 1.06494E-4
17115.234375; 1.06124E-4
17121.093750; 1.04295E-4
17126.953125; 1.03393E-4
17132.812500; 1.12666E-4
17138.671875; 1.05146E-4
17144.531250; 1.01928E-4
17150.390625; 1.08356E-4
17156.250000; 1.10434E-4
17162.109375; 1.04790E-4
17167.968750; 1.04519E-4
17173.828125; 9.43006E-5
17179.687500; 9.86527E-5
17185.546875; 1.13655E-4
17191.406250; 1.03837E-4
17197.265625; 9.54989E-5
17203.125000; 8.88634E-5
17208.984375; 9.35647E-5
17214.843750; 9.97460E-5
17220.703125; 1.00678E-4
17226.562500; 1.04146E-4
17232.421875; 1.08330E-4
17238.281250; 1.10042E-4
17244.140625; 1.10479E-4
17250.000000; 1.07220E-4
17255.859375; 1.09341E-4
17261.718750; 1.01804E-4
17267.578125; 9.73219E-5
17273.437500; 9.81788E-5
17279.296875; 1.04467E-4
17285.156250; 9.70538E-5
17291.015625; 1.03559E-4
17296.875000; 1.04737E-4
17302.734375; 1.02921E-4
17308.593750; 9.49408E-5
17314.453125; 1.00106E-4
17320.312500; 1.16184E-4
17326.171875; 1.13040E-4
17332.031250; 1.09744E-4
17337.890625; 1.02994E-4
17343.750000; 1.00343E-4
17349.609375; 1.09453E-4
17355.468750; 1.03427E-4
17361.328125; 1.03689E-4
17367.187500; 1.18995E-4
17373.046875; 1.11050E-4
17378.906250; 9.09617E-5
17384.765625; 9.33295E-5
17390.625000; 1.01302E-4
17396.484375; 1.08189E-4
17402.343750; 1.00542E-4
17408.203125; 1.09023E-4
17414.062500; 1.00334E-4
17419.921875; 1.00596E-4
17425.781250; 1.09990E-4
17431.640625; 1.04199E-4
17437.500000; 1.01438E-4
17443.359375; 1.07811E-4
17449.218750; 1.05981E-4
17455.078125; 1.11245E-4
17460.937500; 1.06185E-4
17466.796875; 1.00053E-4
17472.656250; 1.03399E-4
17478.515625; 1.23822E-4
17484.375000; 1.30397E-4
17490.234375; 1.07839E-4
17496.093750; 9.01897E-5
17501.953125; 1.01447E-4
17507.812500; 1.02237E-4
17513.671875; 1.03386E-4
17519.531250; 9.84003E-5
17525.390625; 1.09014E-4
17531.250000; 1.11006E-4
17537.109375; 1.09480E-4
17542.968750; 1.08692E-4
17548.828125; 1.07868E-4
17554.687500; 1.09511E-4
17560.546875; 1.20836E-4
17566.406250; 1.19263E-4
17572.265625; 9.76011E-5
17578.125000; 9.73361E-5
17583.984375; 1.02238E-4
17589.843750; 1.07873E-4
17595.703125; 1.11176E-4
17601.562500; 1.05040E-4
17607.421875; 9.31730E-5
17613.281250; 9.75737E-5
17619.140625; 9.12166E-5
17625.000000; 1.02368E-4
17630.859375; 9.70198E-5
17636.718750; 1.12880E-4
17642.578125; 1.07196E-4
17648.437500; 9.81058E-5
17654.296875; 1.03923E-4
17660.156250; 1.08013E-4
17666.015625; 1.04149E-4
17671.875000; 9.59398E-5
17677.734375; 1.03417E-4
17683.593750; 1.05636E-4
17689.453125; 1.11472E-4
17695.312500; 1.15886E-4
17701.171875; 1.02226E-4
17707.031250; 9.77045E-5
17712.890625; 1.08735E-4
17718.750000; 1.11188E-4
17724.609375; 1.21631E-4
17730.468750; 1.23947E-4
17736.328125; 1.23351E-4
17742.187500; 1.24067E-4
17748.046875; 9.98012E-5
17753.906250; 8.22506E-5
17759.765625; 9.41019E-5
17765.625000; 1.05861E-4
17771.484375; 1.06563E-4
17777.343750; 1.01312E-4
17783.203125; 1.02560E-4
17789.062500; 1.10358E-4
17794.921875; 1.06862E-4
17800.781250; 9.43081E-5
17806.640625; 1.06582E-4
17812.500000; 1.14189E-4
17818.359375; 1.09137E-4
17824.218750; 1.06020E-4
17830.078125; 1.03996E-4
17835.937500; 1.14031E-4
17841.796875; 1.07778E-4
17847.656250; 9.94605E-5
17853.515625; 9.86706E-5
17859.375000; 1.11474E-4
17865.234375; 1.03212E-4
17871.093750; 1.05733E-4
17876.953125; 1.15912E-4
17882.812500; 1.13312E-4
17888.671875; 1.07454E-4
17894.531250; 1.11342E-4
17900.390625; 1.16821E-4
17906.250000; 1.08082E-4
17912.109375; 1.01196E-4
17917.968750; 1.03399E-4
17923.828125; 1.06904E-4
17929.687500; 1.00401E-4
17935.546875; 1.11788E-4
17941.406250; 1.02824E-4
17947.265625; 1.10437E-4
17953.125000; 1.12959E-4
17958.984375; 1.04520E-4
17964.843750; 1.03451E-4
17970.703125; 9.43718E-5
17976.562500; 1.05819E-4
17982.421875; 1.06624E-4
17988.281250; 1.18800E-4
17994.140625; 1.12829E-4
18000.000000; 9.34215E-5
18005.859375; 9.84554E-5
18011.718750; 1.05555E-4
18017.578125; 1.01354E-4
18023.437500; 9.18463E-5
18029.296875; 9.16186E-5
18035.156250; 9.73665E-5
18041.015625; 9.95539E-5
18046.875000; 1.04090E-4
18052.734375; 1.03067E-4
18058.593750; 9.19394E-5
18064.453125; 8.85051E-5
18070.312500; 1.02201E-4
18076.171875; 1.08420E-4
18082.031250; 1.09409E-4
18087.890625; 1.13143E-4
18093.750000; 1.14586E-4
18099.609375; 1.14527E-4
18105.468750; 1.09063E-4
18111.328125; 1.18228E-4
18117.187500; 1.08098E-4
18123.046875; 1.05773E-4
18128.906250; 1.15051E-4
18134.765625; 1.15489E-4
18140.625000; 1.08547E-4
18146.484375; 1.02310E-4
18152.343750; 9.96284E-5
18158.203125; 9.26603E-5
18164.062500; 1.06638E-4
18169.921875; 1.11654E-4
18175.781250; 1.12897E-4
18181.640625; 9.70129E-5
18187.500000; 9.89854E-5
18193.359375; 1.04171E-4
18199.218750; 1.03897E-4
18205.078125; 1.07433E-4
18210.937500; 1.15328E-4
18216.796875; 1.02074E-4
18222.656250; 9.56983E-5
18228.515625; 9.65248E-5
18234.375000; 8.92950E-5
18240.234375; 9.33766E-5
18246.093750; 8.54218E-5
18251.953125; 9.51017E-5
18257.812500; 1.04188E-4
18263.671875; 1.11424E-4
18269.531250; 1.13114E-4
18275.390625; 9.88304E-5
18281.250000; 9.60809E-5
18287.109375; 9.84548E-5
18292.968750; 1.04425E-4
18298.828125; 1.09084E-4
18304.687500; 1.05082E-4
18310.546875; 1.12340E-4
18316.406250; 1.05500E-4
18322.265625; 8.78373E-5
18328.125000; 1.02790E-4
18333.984375; 1.01655E-4
18339.843750; 1.06439E-4
18345.703125; 1.00353E-4
18351.562500; 1.15216E-4
18357.421875; 1.09669E-4
18363.281250; 1.08058E-4
18369.140625; 1.12101E-4
18375.000000; 1.15077E-4
18380.859375; 1.00015E-4
18386.718750; 1.16029E-4
18392.578125; 1.29142E-4
18398.437500; 1.19188E-4
18404.296875; 1.06173E-4
18410.156250; 1.07197E-4
18416.015625; 1.08067E-4
18421.875000; 9.76718E-5
18427.734375; 1.13387E-4
18433.593750; 1.06460E-4
18439.453125; 1.01323E-4
18445.312500; 1.00614E-4
18451.171875; 9.96152E-5
18457.031250; 9.60200E-5
18462.890625; 9.23461E-5
18468.750000; 1.02916E-4
18474.609375; 1.09272E-4
18480.468750; 1.04720E-4
18486.328125; 9.94356E-5
18492.187500; 1.06989E-4
18498.046875; 1.08045E-4
18503.906250; 1.02838E-4
18509.765625; 1.04585E-4
18515.625000; 1.09643E-4
18521.484375; 9.59390E-5
18527.343750; 1.05767E-4
18533.203125; 9.89560E-5
18539.062500; 9.41166E-5
18544.921875; 9.33675E-5
18550.781250; 9.20032E-5
18556.640625; 9.03319E-5
18562.500000; 1.00604E-4
18568.359375; 1.04015E-4
18574.218750; 1.09058E-4
18580.078125; 1.00178E-4
18585.937500; 1.05419E-4
18591.796875; 1.06637E-4
18597.656250; 1.08125E-4
18603.515625; 1.16783E-4
18609.375000; 1.05621E-4
18615.234375; 1.07963E-4
18621.093750; 1.07461E-4
18626.953125; 1.15174E-4
18632.812500; 1.05541E-4
18638.671875; 1.02040E-4
18644.531250; 1.13621E-4
18650.390625; 1.16227E-4
18656.250000; 1.12877E-4
18662.109375; 1.13385E-4
18667.968750; 1.04188E-4
18673.828125; 9.45830E-5
18679.687500; 1.15420E-4
18685.546875; 1.20627E-4
18691.406250; 1.14398E-4
18697.265625; 1.09484E-4
18703.125000; 1.16465E-4
18708.984375; 1.06767E-4
18714.843750; 1.02459E-4
18720.703125; 9.70583E-5
18726.562500; 8.99996E-5
18732.421875; 9.51948E-5
18738.281250; 9.41508E-5
18744.140625; 1.03052E-4
18750.000000; 1.07381E-4
18755.859375; 1.08825E-4
18761.718750; 1.10512E-4
18767.578125; 9.93001E-5
18773.437500; 1.01227E-4
18779.296875; 1.08497E-4
18785.156250; 1.00942E-4
18791.015625; 1.02741E-4
18796.875000; 1.04628E-4
18802.734375; 1.03221E-4
18808.593750; 1.07226E-4
18814.453125; 1.07895E-4
18820.312500; 1.05393E-4
18826.171875; 1.04536E-4
18832.031250; 1.05056E-4
18837.890625; 1.07900E-4
18843.750000; 9.86746E-5
18849.609375; 9.96670E-5
18855.468750; 1.04482E-4
18861.328125; 9.89805E-5
18867.187500; 1.02199E-4
18873.046875; 1.08919E-4
18878.906250; 1.05298E-4
18884.765625; 1.05564E-4
18890.625000; 1.13178E-4
18896.484375; 9.80150E-5
18902.343750; 1.04392E-4
18908.203125; 1.02251E-4
18914.062500; 1.17815E-4
18919.921875; 1.13179E-4
18925.781250; 1.05978E-4
18931.640625; 1.04395E-4
18937.500000; 9.93164E-5
18943.359375; 9.98485E-5
18949.218750; 1.08095E-4
18955.078125; 1.12492E-4
18960.937500; 1.00110E-4
18966.796875; 9.56297E-5
18972.656250; 9.81547E-5
18978.515625; 9.26239E-5
18984.375000; 9.02563E-5
18990.234375; 1.06326E-4
18996.093750; 1.12802E-4
19001.953125; 9.04729E-5
19007.812500; 9.40846E-5
19013.671875; 9.59785E-5
19019.531250; 1.10526E-4
19025.390625; 1.17236E-4
19031.250000; 1.12290E-4
19037.109375; 1.10602E-4
19042.968750; 1.12451E-4
19048.828125; 1.09112E-4
19054.687500; 9.39043E-5
19060.546875; 1.02044E-4
19066.406250; 1.07922E-4
19072.265625; 1.09600E-4
19078.125000; 1.19850E-4
19083.984375; 1.09289E-4
19089.843750; 9.99452E-5
19095.703125; 1.08473E-4
19101.562500; 1.08733E-4
19107.421875; 9.75661E-5
19113.281250; 9.64018E-5
19119.140625; 1.02856E-4
19125.000000; 1.17811E-4
19130.859375; 1.14232E-4
19136.718750; 9.88429E-5
19142.578125; 1.08348E-4
19148.437500; 1.14934E-4
19154.296875; 1.09422E-4
19160.156250; 1.04584E-4
19166.015625; 9.17155E-5
19171.875000; 8.95543E-5
19177.734375; 1.07109E-4
19183.593750; 1.08802E-4
19189.453125; 9.21211E-5
19195.312500; 9.58422E-5
19201.171875; 1.02407E-4
19207.031250; 9.34964E-5
19212.890625; 9.35288E-5
19218.750000; 9.67561E-5
19224.609375; 1.03017E-4
19230.468750; 1.05764E-4
19236.328125; 1.00503E-4
19242.187500; 9.20896E-5
19248.046875; 1.10218E-4
19253.906250; 1.02826E-4
19259.765625; 1.03862E-4
19265.625000; 1.13114E-4
19271.484375; 1.02588E-4
19277.343750; 1.01979E-4
19283.203125; 9.57868E-5
19289.062500; 8.89447E-5
19294.921875; 9.38269E-5
19300.781250; 9.64603E-5
19306.640625; 1.01385E-4
19312.500000; 1.05856E-4
19318.359375; 9.85223E-5
19324.218750; 9.73733E-5
19330.078125; 9.60343E-5
19335.937500; 1.07564E-4
19341.796875; 1.06863E-4
19347.656250; 1.02426E-4
19353.515625; 9.46203E-5
19359.375000; 1.01720E-4
19365.234375; 9.81541E-5
19371.093750; 1.00925E-4
19376.953125; 1.04671E-4
19382.812500; 1.11806E-4
19388.671875; 1.08759E-4
19394.531250; 1.08841E-4
19400.390625; 1.13587E-4
19406.250000; 1.10897E-4
19412.109375; 1.03859E-4
19417.968750; 1.02325E-4
19423.828125; 1.06092E-4
19429.687500; 1.04933E-4
19435.546875; 1.03302E-4
19441.406250; 1.03893E-4
19447.265625; 1.05925E-4
19453.125000; 1.02265E-4
19458.984375; 1.09024E-4
19464.843750; 1.14198E-4
19470.703125; 1.11289E-4
19476.562500; 1.08452E-4
19482.421875; 1.04210E-4
19488.281250; 1.02348E-4
19494.140625; 9.59707E-5
19500.000000; 9.42516E-5
19505.859375; 9.57678E-5
19511.718750; 1.01811E-4
19517.578125; 1.00918E-4
19523.437500; 1.03287E-4
19529.296875; 1.13092E-4
19535.156250; 9.79484E-5
19541.015625; 9.72760E-5
19546.875000; 1.02300E-4
19552.734375; 9.82360E-5
19558.593750; 9.97907E-5
19564.453125; 1.12478E-4
19570.312500; 1.03786E-4
19576.171875; 1.05899E-4
19582.031250; 1.12732E-4
19587.890625; 1.17690E-4
19593.750000; 1.07256E-4
19599.609375; 1.08818E-4
19605.468750; 1.04472E-4
19611.328125; 9.91149E-5
19617.187500; 1.16391E-4
19623.046875; 1.22821E-4
19628.906250; 1.03900E-4
19634.765625; 9.83600E-5
19640.625000; 9.58382E-5
19646.484375; 1.06696E-4
19652.343750; 1.05657E-4
19658.203125; 1.04687E-4
19664.062500; 1.18414E-4
19669.921875; 1.06316E-4
19675.781250; 1.03365E-4
19681.640625; 9.80556E-5
19687.500000; 9.75831E-5
19693.359375; 1.04275E-4
19699.218750; 8.93166E-5
19705.078125; 1.08307E-4
19710.937500; 1.12479E-4
19716.796875; 9.67595E-5
19722.656250; 9.73885E-5
19728.515625; 9.81794E-5
19734.375000; 1.02359E-4
19740.234375; 1.05062E-4
19746.093750; 9.99892E-5
19751.953125; 1.00211E-4
19757.812500; 1.15859E-4
19763.671875; 1.07745E-4
19769.531250; 9.87606E-5
19775.390625; 1.00573E-4
19781.250000; 9.09297E-5
19787.109375; 9.95229E-5
19792.968750; 1.12577E-4
19798.828125; 1.01440E-4
19804.687500; 9.82980E-5
19810.546875; 9.26510E-5
19816.406250; 9.26964E-5
19822.265625; 1.02725E-4
19828.125000; 1.04855E-4
19833.984375; 1.23247E-4
19839.843750; 1.17879E-4
19845.703125; 1.11643E-4
19851.562500; 9.69812E-5
19857.421875; 9.64877E-5
19863.281250; 9.57411E-5
19869.140625; 1.00633E-4
19875.000000; 1.01966E-4
19880.859375; 1.11838E-4
19886.718750; 1.03385E-4
19892.578125; 9.70458E-5
19898.437500; 1.02510E-4
19904.296875; 1.01839E-4
19910.156250; 1.03110E-4
19916.015625; 1.03949E-4
19921.875000; 9.89075E-5
19927.734375; 1.09392E-4
19933.593750; 1.11454E-4
19939.453125; 1.06462E-4
19945.312500; 9.48530E-5
19951.171875; 1.02446E-4
19957.031250; 1.17451E-4
19962.890625; 1.15578E-4
19968.750000; 9.97654E-5
19974.609375; 9.37398E-5
19980.468750; 1.03195E-4
19986.328125; 1.10412E-4
19992.187500; 1.10037E-4
19998.046875; 1.17011E-4
20003.906250; 1.13490E-4
20009.765625; 1.06369E-4
20015.625000; 1.10156E-4
20021.484375; 1.02067E-4
20027.343750; 9.73610E-5
20033.203125; 1.01066E-4
20039.062500; 9.86875E-5
20044.921875; 1.02653E-4
20050.781250; 1.12932E-4
20056.640625; 1.02592E-4
20062.500000; 9.89243E-5
20068.359375; 1.05298E-4
20074.218750; 1.26237E-4
20080.078125; 1.12610E-4
20085.937500; 1.01492E-4
20091.796875; 1.07767E-4
20097.656250; 1.05825E-4
20103.515625; 1.11631E-4
20109.375000; 1.08764E-4
20115.234375; 9.87004E-5
20121.093750; 1.03485E-4
20126.953125; 9.65117E-5
20132.812500; 9.86409E-5
20138.671875; 9.27127E-5
20144.531250; 8.86653E-5
20150.390625; 9.40352E-5
20156.250000; 1.09520E-4
20162.109375; 1.10450E-4
20167.968750; 9.95887E-5
20173.828125; 9.36269E-5
20179.687500; 1.03551E-4
20185.546875; 1.09574E-4
20191.406250; 1.06076E-4
20197.265625; 1.11061E-4
20203.125000; 9.80548E-5
20208.984375; 9.20974E-5
20214.843750; 9.66686E-5
20220.703125; 9.51371E-5
20226.562500; 1.04796E-4
20232.421875; 1.07479E-4
20238.281250; 9.83818E-5
20244.140625; 9.84784E-5
20250.000000; 1.03838E-4
20255.859375; 1.02550E-4
20261.718750; 1.08400E-4
20267.578125; 9.84578E-5
20273.437500; 8.80207E-5
20279.296875; 1.03377E-4
20285.156250; 1.02333E-4
20291.015625; 1.03012E-4
20296.875000; 1.02839E-4
20302.734375; 1.09237E-4
20308.593750; 1.15972E-4
20314.453125; 1.12009E-4
20320.312500; 1.02817E-4
20326.171875; 9.72965E-5
20332.031250; 8.94862E-5
20337.890625; 9.47795E-5
20343.750000; 1.02095E-4
20349.609375; 9.84003E-5
20355.468750; 9.01356E-5
20361.328125; 1.02284E-4
20367.187500; 1.03210E-4
20373.046875; 1.00281E-4
20378.906250; 1.00638E-4
20384.765625; 9.95090E-5
20390.625000; 1.13024E-4
20396.484375; 1.06084E-4
20402.343750; 9.30425E-5
20408.203125; 1.12340E-4
20414.062500; 1.06877E-4
20419.921875; 1.03247E-4
20425.781250; 1.15823E-4
20431.640625; 1.16733E-4
20437.500000; 1.00080E-4
20443.359375; 1.03417E-4
20449.218750; 1.05847E-4
20455.078125; 9.85082E-5
20460.937500; 9.68003E-5
20466.796875; 9.82535E-5
20472.656250; 1.00213E-4
20478.515625; 9.71821E-5
20484.375000; 1.05597E-4
20490.234375; 1.14432E-4
20496.093750; 1.05325E-4
20501.953125; 1.01231E-4
20507.812500; 9.85869E-5
20513.671875; 9.08307E-5
20519.531250; 9.73966E-5
20525.390625; 1.03352E-4
20531.250000; 1.05018E-4
20537.109375; 1.11249E-4
20542.968750; 1.10297E-4
20548.828125; 1.04276E-4
20554.687500; 1.10795E-4
20560.546875; 1.11810E-4
20566.406250; 1.06377E-4
20572.265625; 1.00339E-4
20578.125000; 1.07471E-4
20583.984375; 1.08787E-4
20589.843750; 1.03006E-4
20595.703125; 1.07732E-4
20601.562500; 1.06594E-4
20607.421875; 9.87110E-5
20613.281250; 9.00400E-5
20619.140625; 9.35636E-5
20625.000000; 1.02768E-4
20630.859375; 1.13168E-4
20636.718750; 1.01737E-4
20642.578125; 9.98141E-5
20648.437500; 1.07898E-4
20654.296875; 1.03302E-4
20660.156250; 9.56810E-5
20666.015625; 9.38110E-5
20671.875000; 9.98636E-5
20677.734375; 9.38258E-5
20683.593750; 1.02053E-4
20689.453125; 1.00071E-4
20695.312500; 9.61910E-5
20701.171875; 1.10235E-4
20707.031250; 1.07854E-4
20712.890625; 1.14279E-4
20718.750000; 1.03355E-4
20724.609375; 1.04714E-4
20730.468750; 9.66152E-5
20736.328125; 9.50964E-5
20742.187500; 9.50895E-5
20748.046875; 9.85722E-5
20753.906250; 1.06266E-4
20759.765625; 1.09397E-4
20765.625000; 1.16250E-4
20771.484375; 1.22850E-4
20777.343750; 1.26739E-4
20783.203125; 1.12197E-4
20789.062500; 1.13060E-4
20794.921875; 1.06775E-4
20800.781250; 9.97181E-5
20806.640625; 1.12401E-4
20812.500000; 1.03689E-4
20818.359375; 1.04019E-4
20824.218750; 9.60182E-5
20830.078125; 1.09619E-4
20835.937500; 1.11419E-4
20841.796875; 1.00056E-4
20847.656250; 1.03006E-4
20853.515625; 1.08541E-4
20859.375000; 9.75155E-5
20865.234375; 1.02179E-4
20871.093750; 1.05925E-4
20876.953125; 1.11549E-4
20882.812500; 1.20524E-4
20888.671875; 1.13723E-4
20894.531250; 1.08537E-4
20900.390625; 9.36965E-5
20906.250000; 1.02397E-4
20912.109375; 1.02336E-4
20917.968750; 9.87995E-5
20923.828125; 9.02645E-5
20929.687500; 9.10725E-5
20935.546875; 1.05757E-4
20941.406250; 1.12674E-4
20947.265625; 1.05132E-4
20953.125000; 9.44257E-5
20958.984375; 9.60036E-5
20964.843750; 9.32844E-5
20970.703125; 1.09763E-4
20976.562500; 1.12449E-4
20982.421875; 1.10914E-4
20988.281250; 1.03336E-4
20994.140625; 9.75819E-5
21000.000000; 9.35292E-5
21005.859375; 9.38780E-5
21011.718750; 1.07003E-4
21017.578125; 9.42507E-5
21023.437500; 1.01283E-4
21029.296875; 1.12596E-4
21035.156250; 1.04154E-4
21041.015625; 8.95687E-5
21046.875000; 1.03066E-4
21052.734375; 1.10766E-4
21058.593750; 9.82328E-5
21064.453125; 1.10378E-4
21070.312500; 1.08379E-4
21076.171875; 1.03527E-4
21082.031250; 1.07063E-4
21087.890625; 1.27139E-4
21093.750000; 1.08657E-4
21099.609375; 9.66167E-5
21105.468750; 9.91935E-5
21111.328125; 1.03614E-4
21117.187500; 1.17162E-4
21123.046875; 1.05228E-4
21128.906250; 8.70271E-5
21134.765625; 8.98029E-5
21140.625000; 1.02186E-4
21146.484375; 1.00962E-4
21152.343750; 8.93529E-5
21158.203125; 1.05572E-4
21164.062500; 1.10994E-4
21169.921875; 1.16482E-4
21175.781250; 1.13249E-4
21181.640625; 1.02056E-4
21187.500000; 1.03336E-4
21193.359375; 1.05107E-4
21199.218750; 1.06634E-4
21205.078125; 1.07589E-4
21210.937500; 1.03421E-4
21216.796875; 9.69088E-5
21222.656250; 1.03761E-4
21228.515625; 9.74127E-5
21234.375000; 9.38629E-5
21240.234375; 1.02414E-4
21246.093750; 9.34955E-5
21251.953125; 9.81931E-5
21257.812500; 1.03945E-4
21263.671875; 9.77769E-5
21269.531250; 1.07457E-4
21275.390625; 1.20762E-4
21281.250000; 1.02732E-4
21287.109375; 1.04390E-4
21292.968750; 9.84238E-5
21298.828125; 1.01738E-4
21304.687500; 9.90981E-5
21310.546875; 1.04974E-4
21316.406250; 1.08593E-4
21322.265625; 1.03706E-4
21328.125000; 1.00530E-4
21333.984375; 1.08329E-4
21339.843750; 1.13287E-4
21345.703125; 1.05058E-4
21351.562500; 1.08463E-4
21357.421875; 1.12562E-4
21363.281250; 1.13115E-4
21369.140625; 1.01973E-4
21375.000000; 9.79703E-5
21380.859375; 1.03582E-4
21386.718750; 1.08791E-4
21392.578125; 1.06604E-4
21398.437500; 1.00824E-4
21404.296875; 1.04136E-4
21410.156250; 1.00063E-4
21416.015625; 1.08139E-4
21421.875000; 1.07071E-4
21427.734375; 1.05147E-4
21433.593750; 1.12130E-4
21439.453125; 1.13619E-4
21445.312500; 1.14271E-4
21451.171875; 1.13186E-4
21457.031250; 1.11248E-4
21462.890625; 9.85137E-5
21468.750000; 9.23924E-5
21474.609375; 9.20530E-5
21480.468750; 1.03933E-4
21486.328125; 1.09250E-4
21492.187500; 1.12408E-4
21498.046875; 1.01312E-4
21503.906250; 1.02959E-4
21509.765625; 1.02281E-4
21515.625000; 1.00986E-4
21521.484375; 1.07024E-4
21527.343750; 9.88195E-5
21533.203125; 9.52599E-5
21539.062500; 9.46301E-5
21544.921875; 1.02296E-4
21550.781250; 8.96480E-5
21556.640625; 9.14409E-5
21562.500000; 8.75576E-5
21568.359375; 8.94539E-5
21574.218750; 1.09698E-4
21580.078125; 1.02477E-4
21585.937500; 1.04125E-4
21591.796875; 1.12678E-4
21597.656250; 1.10613E-4
21603.515625; 1.03917E-4
21609.375000; 1.07137E-4
21615.234375; 1.03267E-4
21621.093750; 1.04747E-4
21626.953125; 9.66704E-5
21632.812500; 9.63431E-5
21638.671875; 1.03401E-4
21644.531250; 1.02009E-4
21650.390625; 1.14066E-4
21656.250000; 9.96628E-5
21662.109375; 9.60115E-5
21667.968750; 9.89341E-5
21673.828125; 9.00239E-5
21679.687500; 9.51470E-5
21685.546875; 9.96117E-5
21691.406250; 9.84085E-5
21697.265625; 8.99643E-5
21703.125000; 9.58472E-5
21708.984375; 9.90658E-5
21714.843750; 1.02530E-4
21720.703125; 1.05514E-4
21726.562500; 1.08370E-4
21732.421875; 1.15787E-4
21738.281250; 1.21391E-4
21744.140625; 1.07429E-4
21750.000000; 1.11061E-4
21755.859375; 1.05118E-4
21761.718750; 1.09869E-4
21767.578125; 9.93720E-5
21773.437500; 8.80828E-5
21779.296875; 9.70194E-5
21785.156250; 1.03326E-4
21791.015625; 1.00226E-4
21796.875000; 1.07434E-4
21802.734375; 1.04696E-4
21808.593750; 1.00192E-4
21814.453125; 9.74452E-5
21820.312500; 9.68299E-5
21826.171875; 1.03118E-4
21832.031250; 1.01044E-4
21837.890625; 1.01314E-4
21843.750000; 9.79351E-5
21849.609375; 9.20049E-5
21855.468750; 1.05929E-4
21861.328125; 1.07348E-4
21867.187500; 9.36456E-5
21873.046875; 9.89593E-5
21878.906250; 9.77958E-5
21884.765625; 9.67363E-5
21890.625000; 1.04305E-4
21896.484375; 1.07418E-4
21902.343750; 1.00408E-4
21908.203125; 1.03596E-4
21914.062500; 9.60413E-5
21919.921875; 8.73765E-5
21925.781250; 1.04987E-4
21931.640625; 1.10607E-4
21937.500000; 1.07691E-4
21943.359375; 1.10349E-4
21949.218750; 1.13233E-4
21955.078125; 1.12545E-4
21960.937500; 1.03421E-4
21966.796875; 1.01025E-4
21972.656250; 1.14418E-4
21978.515625; 1.08784E-4
21984.375000; 1.01268E-4
21990.234375; 9.27135E-5
21996.093750; 9.68436E-5
22001.953125; 9.25596E-5
22007.812500; 1.13180E-4
22013.671875; 1.08001E-4
22019.531250; 1.00719E-4
22025.390625; 9.50290E-5
22031.250000; 1.02923E-4
22037.109375; 1.07235E-4
22042.968750; 1.06647E-4
22048.828125; 1.08660E-4
22054.687500; 1.00346E-4
22060.546875; 1.00064E-4
22066.406250; 9.70790E-5
22072.265625; 9.59230E-5
22078.125000; 1.06901E-4
22083.984375; 9.34821E-5
22089.843750; 9.34392E-5
22095.703125; 9.64218E-5
22101.562500; 9.49784E-5
22107.421875; 9.78043E-5
22113.281250; 1.05852E-4
22119.140625; 1.09270E-4
22125.000000; 1.08497E-4
22130.859375; 1.05104E-4
22136.718750; 9.84475E-5
22142.578125; 1.04854E-4
22148.437500; 1.12069E-4
22154.296875; 1.09330E-4
22160.156250; 1.03638E-4
22166.015625; 1.03641E-4
22171.875000; 9.57067E-5
22177.734375; 9.92702E-5
22183.593750; 1.03990E-4
22189.453125; 1.06333E-4
22195.312500; 9.96230E-5
22201.171875; 1.03605E-4
22207.031250; 9.19980E-5
22212.890625; 1.05706E-4
22218.750000; 9.87875E-5
22224.609375; 9.74048E-5
22230.468750; 9.41118E-5
22236.328125; 8.48792E-5
22242.187500; 8.94619E-5
22248.046875; 9.60582E-5
22253.906250; 9.90228E-5
22259.765625; 1.11771E-4
22265.625000; 1.13634E-4
22271.484375; 1.19707E-4
22277.343750; 1.20798E-4
22283.203125; 1.06993E-4
22289.062500; 1.01615E-4
22294.921875; 1.00134E-4
22300.781250; 9.71661E-5
22306.640625; 9.63210E-5
22312.500000; 1.02656E-4
22318.359375; 1.07090E-4
22324.218750; 9.67334E-5
22330.078125; 1.03973E-4
22335.937500; 9.81227E-5
22341.796875; 7.89070E-5
22347.656250; 8.80221E-5
22353.515625; 9.37764E-5
22359.375000; 9.58792E-5
22365.234375; 1.02694E-4
22371.093750; 1.08072E-4
22376.953125; 9.95333E-5
22382.812500; 9.77276E-5
22388.671875; 1.07997E-4
22394.531250; 1.10207E-4
22400.390625; 1.01833E-4
22406.250000; 8.98858E-5
22412.109375; 9.87204E-5
22417.968750; 1.14573E-4
22423.828125; 1.14180E-4
22429.687500; 9.86753E-5
22435.546875; 9.50870E-5
22441.406250; 1.02629E-4
22447.265625; 9.30726E-5
22453.125000; 9.66022E-5
22458.984375; 9.13044E-5
22464.843750; 9.62304E-5
22470.703125; 9.01833E-5
22476.562500; 9.79141E-5
22482.421875; 9.95130E-5
22488.281250; 8.20919E-5
22494.140625; 8.97998E-5
22500.000000; 1.00775E-4
22505.859375; 9.91170E-5
22511.718750; 7.57767E-5
22517.578125; 9.23288E-5
22523.437500; 1.05481E-4
22529.296875; 1.00588E-4
22535.156250; 9.48811E-5
22541.015625; 1.03901E-4
22546.875000; 1.15968E-4
22552.734375; 9.86392E-5
22558.593750; 8.38156E-5
22564.453125; 8.53565E-5
22570.312500; 8.66596E-5
22576.171875; 9.52345E-5
22582.031250; 9.76429E-5
22587.890625; 1.06574E-4
22593.750000; 9.11471E-5
22599.609375; 8.04544E-5
22605.468750; 9.42907E-5
22611.328125; 9.86250E-5
22617.187500; 1.00871E-4
22623.046875; 1.05133E-4
22628.906250; 1.02287E-4
22634.765625; 9.00257E-5
22640.625000; 8.99025E-5
22646.484375; 8.55183E-5
22652.343750; 9.81946E-5
22658.203125; 9.75257E-5
22664.062500; 9.94640E-5
22669.921875; 9.01924E-5
22675.781250; 9.20864E-5
22681.640625; 8.89430E-5
22687.500000; 7.15581E-5
22693.359375; 8.10204E-5
22699.218750; 1.00505E-4
22705.078125; 1.03714E-4
22710.937500; 9.55493E-5
22716.796875; 9.17424E-5
22722.656250; 8.66365E-5
22728.515625; 8.73612E-5
22734.375000; 9.10418E-5
22740.234375; 8.73854E-5
22746.093750; 8.80038E-5
22751.953125; 9.56806E-5
22757.812500; 8.65694E-5
22763.671875; 8.76702E-5
22769.531250; 9.79040E-5
22775.390625; 1.01100E-4
22781.250000; 9.49595E-5
22787.109375; 9.02718E-5
22792.968750; 8.07624E-5
22798.828125; 8.76385E-5
22804.687500; 9.19120E-5
22810.546875; 9.07473E-5
22816.406250; 8.87414E-5
22822.265625; 8.82652E-5
22828.125000; 9.59583E-5
22833.984375; 9.66906E-5
22839.843750; 8.40819E-5
22845.703125; 8.27163E-5
22851.562500; 8.43055E-5
22857.421875; 8.43620E-5
22863.281250; 7.97163E-5
22869.140625; 8.07974E-5
22875.000000; 9.07535E-5
22880.859375; 9.48135E-5
22886.718750; 8.71839E-5
22892.578125; 9.00194E-5
22898.437500; 7.31965E-5
22904.296875; 8.23305E-5
22910.156250; 8.93234E-5
22916.015625; 7.60800E-5
22921.875000; 7.82205E-5
22927.734375; 8.12392E-5
22933.593750; 6.99340E-5
22939.453125; 7.16109E-5
22945.312500; 8.16362E-5
22951.171875; 7.95302E-5
22957.031250; 7.89877E-5
22962.890625; 7.44944E-5
22968.750000; 7.45416E-5
22974.609375; 8.02014E-5
22980.468750; 8.51083E-5
22986.328125; 7.64564E-5
22992.187500; 7.57964E-5
22998.046875; 7.99429E-5
23003.906250; 8.84134E-5
23009.765625; 7.26336E-5
23015.625000; 7.33617E-5
23021.484375; 8.37487E-5
23027.343750; 8.24749E-5
23033.203125; 7.84865E-5
23039.062500; 7.79892E-5
23044.921875; 7.17208E-5
23050.781250; 7.09351E-5
23056.640625; 6.10988E-5
23062.500000; 6.41600E-5
23068.359375; 7.02188E-5
23074.218750; 7.93576E-5
23080.078125; 7.25348E-5
23085.937500; 6.87032E-5
23091.796875; 7.25480E-5
23097.656250; 7.03296E-5
23103.515625; 6.90810E-5
23109.375000; 7.75391E-5
23115.234375; 6.69417E-5
23121.093750; 7.23857E-5
23126.953125; 7.74798E-5
23132.812500; 7.40081E-5
23138.671875; 7.70694E-5
23144.531250; 7.56414E-5
23150.390625; 7.13328E-5
23156.250000; 6.75499E-5
23162.109375; 6.74890E-5
23167.968750; 7.36318E-5
23173.828125; 7.94838E-5
23179.687500; 7.12318E-5
23185.546875; 6.41502E-5
23191.406250; 6.03572E-5
23197.265625; 5.92682E-5
23203.125000; 6.24689E-5
23208.984375; 6.71097E-5
23214.843750; 6.97581E-5
23220.703125; 6.52266E-5
23226.562500; 6.84073E-5
23232.421875; 7.01163E-5
23238.281250; 6.36084E-5
23244.140625; 6.32202E-5
23250.000000; 7.28944E-5
23255.859375; 7.71201E-5
23261.718750; 6.98097E-5
23267.578125; 6.64305E-5
23273.437500; 6.20036E-5
23279.296875; 5.64199E-5
23285.156250; 5.95735E-5
23291.015625; 5.92659E-5
23296.875000; 6.34211E-5
23302.734375; 7.05779E-5
23308.593750; 6.37923E-5
23314.453125; 6.53223E-5
23320.312500; 6.20200E-5
23326.171875; 6.04403E-5
23332.031250; 6.39283E-5
23337.890625; 6.57902E-5
23343.750000; 5.81338E-5
23349.609375; 5.47577E-5
23355.468750; 6.02702E-5
23361.328125; 5.69336E-5
23367.187500; 5.17524E-5
23373.046875; 6.19281E-5
23378.906250; 7.09137E-5
23384.765625; 6.36443E-5
23390.625000; 5.94208E-5
23396.484375; 6.11570E-5
23402.343750; 5.85100E-5
23408.203125; 5.89000E-5
23414.062500; 5.72496E-5
23419.921875; 4.72510E-5
23425.781250; 5.14055E-5
23431.640625; 5.75038E-5
23437.500000; 6.08654E-5
23443.359375; 5.86473E-5
23449.218750; 5.06566E-5
23455.078125; 4.88304E-5
23460.937500; 5.02194E-5
23466.796875; 5.22393E-5
23472.656250; 4.98259E-5
23478.515625; 4.70906E-5
23484.375000; 5.74721E-5
23490.234375; 5.58726E-5
23496.093750; 5.16484E-5
23501.953125; 5.06964E-5
23507.812500; 4.80439E-5
23513.671875; 4.76328E-5
23519.531250; 4.76310E-5
23525.390625; 4.31474E-5
23531.250000; 4.41680E-5
23537.109375; 4.93701E-5
23542.968750; 4.93992E-5
23548.828125; 4.56327E-5
23554.687500; 4.76218E-5
23560.546875; 4.35343E-5
23566.406250; 4.70250E-5
23572.265625; 4.96317E-5
23578.125000; 5.31810E-5
23583.984375; 4.70325E-5
23589.843750; 4.54614E-5
23595.703125; 4.58379E-5
23601.562500; 4.76454E-5
23607.421875; 4.90602E-5
23613.281250; 4.60138E-5
23619.140625; 4.28964E-5
23625.000000; 4.48608E-5
23630.859375; 4.92080E-5
23636.718750; 4.93172E-5
23642.578125; 5.01414E-5
23648.437500; 4.55414E-5
23654.296875; 4.85277E-5
23660.156250; 4.97390E-5
23666.015625; 4.64476E-5
23671.875000; 4.17850E-5
23677.734375; 4.28375E-5
23683.593750; 4.15387E-5
23689.453125; 4.08299E-5
23695.312500; 4.58403E-5
23701.171875; 4.24655E-5
23707.031250; 3.91619E-5
23712.890625; 4.23369E-5
23718.750000; 4.37371E-5
23724.609375; 4.21851E-5
23730.468750; 4.55723E-5
23736.328125; 4.35137E-5
23742.187500; 4.02138E-5
23748.046875; 4.22692E-5
23753.906250; 4.37463E-5
23759.765625; 4.21357E-5
23765.625000; 4.40121E-5
23771.484375; 4.55496E-5
23777.343750; 3.88741E-5
23783.203125; 3.49961E-5
23789.062500; 3.47190E-5
23794.921875; 3.55370E-5
23800.781250; 4.17370E-5
23806.640625; 4.14210E-5
23812.500000; 3.58867E-5
23818.359375; 3.79599E-5
23824.218750; 3.86245E-5
23830.078125; 4.07654E-5
23835.937500; 4.41379E-5
23841.796875; 3.95231E-5
23847.656250; 3.63589E-5
23853.515625; 4.00832E-5
23859.375000; 4.35016E-5
23865.234375; 4.32071E-5
23871.093750; 4.03954E-5
23876.953125; 3.58252E-5
23882.812500; 3.27819E-5
23888.671875; 2.99408E-5
23894.531250; 3.29325E-5
23900.390625; 3.64517E-5
23906.250000; 3.85659E-5
23912.109375; 3.91938E-5
23917.968750; 3.49788E-5
23923.828125; 3.55543E-5
23929.687500; 3.69992E-5
23935.546875; 3.39397E-5
23941.406250; 3.75705E-5
23947.265625; 3.76281E-5
23953.125000; 3.99849E-5
23958.984375; 3.71340E-5
23964.843750; 3.94441E-5
23970.703125; 4.21896E-5
23976.562500; 4.01736E-5
23982.421875; 3.87142E-5
23988.281250; 3.57787E-5
23994.140625; 3.53342E-5
