* Measurement data measured by REW V5.31.3
* Source: PCM: default, no input selected, 2, volume: no control
* Format: 8192-point spectrum using Hann window and exponential averaging 0.97 
* Dated: Mar 9, 2025 1:09:01 PM
* REW Settings:
*  C-weighting compensation: Off
*  Target level: 75.0 dB
* Note: OSDEHA MU-OUTPUT; 8192-point spectrum using Hann window and exponential averaging 0.97  Input RMS 3.164 V 3.164 VC, 3.164 VA 3.164 V 22 - 22k UNW 956.6 uV >22k Distortion at 1,000.0 Hz, -30.00 dBFS: Gain: 29.68 dB THD: 0.016 % based on 21 harmonics  [0..22800 Hz] HHD: 0.012 %  [10 .. 22] N: 0.44 %  [0..22800 Hz] N+D: 4.339 mV A THD+N: 0.44 %  [0..22800 Hz] SNR: 47.1 dB ENOB: 13.0 bits 2nd harmonic 0.0039 % 151 deg 3rd harmonic 0.0034 % -89 deg 4th harmonic 0.0034 % -48 deg 5th harmonic 0.0034 % -126 deg 6th harmonic 0.0035 % 78 deg 7th harmonic 0.0032 % 24 deg 8th harmonic 0.0034 % -90 deg 9th harmonic 0.0033 % -165 deg 
* Measurement: OSDEHA MU-OUT 3.16V
* Smoothing: None
* Frequency Step: 5.859375 Hz
* Start Frequency: 5.859375 Hz
*
* Freq(Hz); V(V)
5.859375; 2.44555E-4
11.718750; 2.93165E-4
17.578125; 2.55128E-4
23.437500; 1.91945E-4
29.296875; 1.85980E-4
35.156250; 1.63864E-4
41.015625; 1.75597E-4
46.875000; 3.25381E-4
52.734375; 3.34104E-4
58.593750; 1.88580E-4
64.453125; 1.73562E-4
70.312500; 1.52311E-4
76.171875; 1.53115E-4
82.031250; 1.84988E-4
87.890625; 2.02833E-4
93.750000; 5.78032E-3
99.609375; 1.28182E-2
105.468750; 7.05569E-3
111.328125; 1.94300E-4
117.187500; 1.56639E-4
123.046875; 1.52146E-4
128.906250; 1.25331E-4
134.765625; 1.29921E-4
140.625000; 1.45629E-4
146.484375; 1.59262E-4
152.343750; 1.57275E-4
158.203125; 1.20526E-4
164.062500; 1.17571E-4
169.921875; 1.28642E-4
175.781250; 1.37276E-4
181.640625; 1.31408E-4
187.500000; 1.31735E-4
193.359375; 5.37641E-4
199.218750; 1.31903E-3
205.078125; 7.99688E-4
210.937500; 1.30928E-4
216.796875; 1.24636E-4
222.656250; 1.05359E-4
228.515625; 1.20962E-4
234.375000; 1.14915E-4
240.234375; 1.20381E-4
246.093750; 1.23595E-4
251.953125; 1.17333E-4
257.812500; 1.28966E-4
263.671875; 1.27602E-4
269.531250; 1.24856E-4
275.390625; 1.20250E-4
281.250000; 1.16183E-4
287.109375; 1.28880E-4
292.968750; 1.53877E-4
298.828125; 3.20840E-4
304.687500; 2.29145E-4
310.546875; 1.05314E-4
316.406250; 1.05753E-4
322.265625; 1.18617E-4
328.125000; 1.24449E-4
333.984375; 1.10138E-4
339.843750; 1.13223E-4
345.703125; 1.14388E-4
351.562500; 1.27201E-4
357.421875; 1.20528E-4
363.281250; 1.16941E-4
369.140625; 1.24926E-4
375.000000; 1.25768E-4
380.859375; 1.06926E-4
386.718750; 1.10100E-4
392.578125; 1.25481E-4
398.437500; 2.69440E-4
404.296875; 2.19597E-4
410.156250; 1.18076E-4
416.015625; 1.09891E-4
421.875000; 1.09702E-4
427.734375; 1.13958E-4
433.593750; 1.18487E-4
439.453125; 1.15789E-4
445.312500; 9.90675E-5
451.171875; 1.04205E-4
457.031250; 1.12078E-4
462.890625; 1.10589E-4
468.750000; 1.09008E-4
474.609375; 1.18368E-4
480.468750; 1.18181E-4
486.328125; 1.16045E-4
492.187500; 1.24911E-4
498.046875; 1.47713E-4
503.906250; 1.32076E-4
509.765625; 1.17972E-4
515.625000; 1.08039E-4
521.484375; 9.86422E-5
527.343750; 1.17981E-4
533.203125; 1.19333E-4
539.062500; 1.14382E-4
544.921875; 1.17187E-4
550.781250; 1.22244E-4
556.640625; 1.24166E-4
562.500000; 1.13064E-4
568.359375; 9.78650E-5
574.218750; 1.07143E-4
580.078125; 9.96554E-5
585.937500; 1.08814E-4
591.796875; 1.13863E-4
597.656250; 1.11638E-4
603.515625; 1.10513E-4
609.375000; 1.22415E-4
615.234375; 1.16000E-4
621.093750; 1.06033E-4
626.953125; 1.09621E-4
632.812500; 1.02821E-4
638.671875; 1.06935E-4
644.531250; 9.76856E-5
650.390625; 1.07978E-4
656.250000; 1.25234E-4
662.109375; 1.30332E-4
667.968750; 1.15698E-4
673.828125; 1.10207E-4
679.687500; 1.06505E-4
685.546875; 1.00913E-4
691.406250; 1.13301E-4
697.265625; 1.13017E-4
703.125000; 1.08185E-4
708.984375; 1.16694E-4
714.843750; 1.03321E-4
720.703125; 9.43520E-5
726.562500; 1.08906E-4
732.421875; 1.13157E-4
738.281250; 1.14396E-4
744.140625; 1.30127E-4
750.000000; 1.41041E-4
755.859375; 1.22939E-4
761.718750; 1.09395E-4
767.578125; 1.11053E-4
773.437500; 1.18093E-4
779.296875; 1.25421E-4
785.156250; 1.11192E-4
791.015625; 1.14580E-4
796.875000; 1.22926E-4
802.734375; 1.16667E-4
808.593750; 1.15269E-4
814.453125; 1.02946E-4
820.312500; 1.07471E-4
826.171875; 1.10121E-4
832.031250; 1.21595E-4
837.890625; 1.16756E-4
843.750000; 1.34508E-4
849.609375; 1.36216E-4
855.468750; 1.25694E-4
861.328125; 1.32184E-4
867.187500; 1.29693E-4
873.046875; 1.47450E-4
878.906250; 1.48615E-4
884.765625; 1.51973E-4
890.625000; 1.87978E-4
896.484375; 1.98369E-4
902.343750; 2.18264E-4
908.203125; 2.50762E-4
914.062500; 3.01218E-4
919.921875; 3.53124E-4
925.781250; 4.42075E-4
931.640625; 5.62448E-4
937.500000; 7.47268E-4
943.359375; 9.69406E-4
949.218750; 1.37537E-3
955.078125; 1.95733E-3
960.937500; 3.02576E-3
966.796875; 4.94058E-3
972.656250; 8.99866E-3
978.515625; 1.90995E-2
984.375000; 5.35327E-2
990.234375; 2.94336E-1
996.093750; 2.35469E0
1001.953125; 2.94335E0
1007.812500; 8.40960E-1
1013.671875; 8.40881E-2
1019.531250; 2.58742E-2
1025.390625; 1.13179E-2
1031.250000; 5.96370E-3
1037.109375; 3.53132E-3
1042.968750; 2.25240E-3
1048.828125; 1.53154E-3
1054.687500; 1.07647E-3
1060.546875; 8.36930E-4
1066.406250; 5.90339E-4
1072.265625; 4.88935E-4
1078.125000; 3.74259E-4
1083.984375; 3.21966E-4
1089.843750; 2.68640E-4
1095.703125; 2.27413E-4
1101.562500; 2.02175E-4
1107.421875; 1.84858E-4
1113.281250; 1.76115E-4
1119.140625; 1.51252E-4
1125.000000; 1.39421E-4
1130.859375; 1.41961E-4
1136.718750; 1.31925E-4
1142.578125; 1.13606E-4
1148.437500; 1.33149E-4
1154.296875; 1.23430E-4
1160.156250; 1.31607E-4
1166.015625; 1.14448E-4
1171.875000; 1.14836E-4
1177.734375; 1.13354E-4
1183.593750; 1.15450E-4
1189.453125; 1.04623E-4
1195.312500; 1.14949E-4
1201.171875; 1.18257E-4
1207.031250; 1.11930E-4
1212.890625; 1.31756E-4
1218.750000; 1.21468E-4
1224.609375; 1.12039E-4
1230.468750; 1.11224E-4
1236.328125; 1.06008E-4
1242.187500; 1.08120E-4
1248.046875; 1.02240E-4
1253.906250; 1.09261E-4
1259.765625; 1.14953E-4
1265.625000; 1.09005E-4
1271.484375; 1.00064E-4
1277.343750; 1.03509E-4
1283.203125; 1.03146E-4
1289.062500; 1.06621E-4
1294.921875; 1.10787E-4
1300.781250; 1.18262E-4
1306.640625; 1.21807E-4
1312.500000; 1.19615E-4
1318.359375; 1.17373E-4
1324.218750; 1.12709E-4
1330.078125; 9.46608E-5
1335.937500; 9.58311E-5
1341.796875; 1.04560E-4
1347.656250; 1.07218E-4
1353.515625; 1.14400E-4
1359.375000; 1.13816E-4
1365.234375; 1.05097E-4
1371.093750; 1.13197E-4
1376.953125; 1.09465E-4
1382.812500; 1.23620E-4
1388.671875; 1.21106E-4
1394.531250; 1.05983E-4
1400.390625; 1.04628E-4
1406.250000; 9.68860E-5
1412.109375; 1.03437E-4
1417.968750; 1.17261E-4
1423.828125; 1.09946E-4
1429.687500; 1.04414E-4
1435.546875; 1.04419E-4
1441.406250; 1.09226E-4
1447.265625; 1.09756E-4
1453.125000; 1.15509E-4
1458.984375; 1.02089E-4
1464.843750; 1.10873E-4
1470.703125; 1.14603E-4
1476.562500; 1.20998E-4
1482.421875; 1.07998E-4
1488.281250; 9.77763E-5
1494.140625; 1.03562E-4
1500.000000; 1.08473E-4
1505.859375; 1.10797E-4
1511.718750; 1.04145E-4
1517.578125; 1.02581E-4
1523.437500; 9.49689E-5
1529.296875; 1.01500E-4
1535.156250; 1.08826E-4
1541.015625; 1.06064E-4
1546.875000; 1.28096E-4
1552.734375; 1.26901E-4
1558.593750; 1.21026E-4
1564.453125; 1.16066E-4
1570.312500; 1.14456E-4
1576.171875; 1.19586E-4
1582.031250; 1.13943E-4
1587.890625; 1.09732E-4
1593.750000; 1.05106E-4
1599.609375; 9.30888E-5
1605.468750; 1.09929E-4
1611.328125; 1.24461E-4
1617.187500; 1.07424E-4
1623.046875; 1.08621E-4
1628.906250; 1.16686E-4
1634.765625; 1.13521E-4
1640.625000; 1.13521E-4
1646.484375; 1.09860E-4
1652.343750; 1.16108E-4
1658.203125; 1.10099E-4
1664.062500; 9.20934E-5
1669.921875; 1.00541E-4
1675.781250; 1.03083E-4
1681.640625; 1.26294E-4
1687.500000; 1.37127E-4
1693.359375; 1.14615E-4
1699.218750; 1.14112E-4
1705.078125; 1.20279E-4
1710.937500; 1.07557E-4
1716.796875; 9.14047E-5
1722.656250; 1.08684E-4
1728.515625; 1.19539E-4
1734.375000; 1.00338E-4
1740.234375; 1.07953E-4
1746.093750; 1.16974E-4
1751.953125; 1.18718E-4
1757.812500; 1.11034E-4
1763.671875; 1.12483E-4
1769.531250; 1.25203E-4
1775.390625; 1.12080E-4
1781.250000; 1.03345E-4
1787.109375; 1.12306E-4
1792.968750; 1.12380E-4
1798.828125; 1.12793E-4
1804.687500; 1.05857E-4
1810.546875; 1.02979E-4
1816.406250; 1.13259E-4
1822.265625; 1.13813E-4
1828.125000; 1.00637E-4
1833.984375; 9.81129E-5
1839.843750; 1.09403E-4
1845.703125; 1.00789E-4
1851.562500; 9.46777E-5
1857.421875; 1.11230E-4
1863.281250; 1.20235E-4
1869.140625; 1.29119E-4
1875.000000; 1.23956E-4
1880.859375; 1.03531E-4
1886.718750; 1.01789E-4
1892.578125; 1.24240E-4
1898.437500; 1.15574E-4
1904.296875; 1.16327E-4
1910.156250; 1.10212E-4
1916.015625; 1.09584E-4
1921.875000; 1.11707E-4
1927.734375; 9.88419E-5
1933.593750; 1.04132E-4
1939.453125; 1.09088E-4
1945.312500; 1.16345E-4
1951.171875; 1.06160E-4
1957.031250; 1.07665E-4
1962.890625; 1.18148E-4
1968.750000; 1.04633E-4
1974.609375; 1.10279E-4
1980.468750; 1.19284E-4
1986.328125; 1.18572E-4
1992.187500; 9.89346E-5
1998.046875; 1.39902E-4
2003.906250; 1.33523E-4
2009.765625; 1.17725E-4
2015.625000; 1.17870E-4
2021.484375; 1.20151E-4
2027.343750; 1.12287E-4
2033.203125; 1.06499E-4
2039.062500; 9.66612E-5
2044.921875; 9.84465E-5
2050.781250; 1.09650E-4
2056.640625; 1.04875E-4
2062.500000; 9.92584E-5
2068.359375; 1.09732E-4
2074.218750; 1.15990E-4
2080.078125; 1.26754E-4
2085.937500; 1.18239E-4
2091.796875; 9.59710E-5
2097.656250; 9.88518E-5
2103.515625; 1.01148E-4
2109.375000; 1.04257E-4
2115.234375; 1.15667E-4
2121.093750; 1.23166E-4
2126.953125; 1.11899E-4
2132.812500; 9.88930E-5
2138.671875; 9.42545E-5
2144.531250; 9.49636E-5
2150.390625; 1.01738E-4
2156.250000; 1.08863E-4
2162.109375; 1.05202E-4
2167.968750; 9.95972E-5
2173.828125; 9.14476E-5
2179.687500; 1.09412E-4
2185.546875; 1.17680E-4
2191.406250; 1.15850E-4
2197.265625; 1.14098E-4
2203.125000; 1.12893E-4
2208.984375; 1.16803E-4
2214.843750; 1.04489E-4
2220.703125; 1.10375E-4
2226.562500; 1.13534E-4
2232.421875; 9.77426E-5
2238.281250; 1.01311E-4
2244.140625; 1.06094E-4
2250.000000; 1.12439E-4
2255.859375; 1.07211E-4
2261.718750; 1.08862E-4
2267.578125; 1.06199E-4
2273.437500; 1.15218E-4
2279.296875; 1.17229E-4
2285.156250; 1.08900E-4
2291.015625; 8.34043E-5
2296.875000; 8.97176E-5
2302.734375; 9.70103E-5
2308.593750; 9.86460E-5
2314.453125; 1.02579E-4
2320.312500; 1.11984E-4
2326.171875; 1.19195E-4
2332.031250; 1.20793E-4
2337.890625; 9.75326E-5
2343.750000; 9.29091E-5
2349.609375; 9.56975E-5
2355.468750; 1.10560E-4
2361.328125; 1.06143E-4
2367.187500; 9.59563E-5
2373.046875; 1.12883E-4
2378.906250; 1.07182E-4
2384.765625; 1.15688E-4
2390.625000; 1.22686E-4
2396.484375; 1.13504E-4
2402.343750; 1.13319E-4
2408.203125; 1.20003E-4
2414.062500; 1.11581E-4
2419.921875; 1.08351E-4
2425.781250; 1.02050E-4
2431.640625; 1.14569E-4
2437.500000; 1.18701E-4
2443.359375; 1.12884E-4
2449.218750; 1.13365E-4
2455.078125; 1.13759E-4
2460.937500; 1.10373E-4
2466.796875; 9.97340E-5
2472.656250; 1.05234E-4
2478.515625; 1.02373E-4
2484.375000; 1.04288E-4
2490.234375; 1.16694E-4
2496.093750; 1.13282E-4
2501.953125; 1.01895E-4
2507.812500; 1.13145E-4
2513.671875; 1.17379E-4
2519.531250; 1.14084E-4
2525.390625; 1.08229E-4
2531.250000; 1.00009E-4
2537.109375; 1.02145E-4
2542.968750; 1.02761E-4
2548.828125; 1.03970E-4
2554.687500; 9.25921E-5
2560.546875; 1.07993E-4
2566.406250; 1.15247E-4
2572.265625; 1.12644E-4
2578.125000; 1.17379E-4
2583.984375; 1.20298E-4
2589.843750; 1.13950E-4
2595.703125; 1.17364E-4
2601.562500; 1.11614E-4
2607.421875; 1.10538E-4
2613.281250; 1.03956E-4
2619.140625; 1.03783E-4
2625.000000; 1.06558E-4
2630.859375; 1.00042E-4
2636.718750; 1.00173E-4
2642.578125; 1.10813E-4
2648.437500; 1.09488E-4
2654.296875; 1.01026E-4
2660.156250; 1.04006E-4
2666.015625; 1.17143E-4
2671.875000; 1.11420E-4
2677.734375; 1.07147E-4
2683.593750; 1.08124E-4
2689.453125; 1.04620E-4
2695.312500; 1.15762E-4
2701.171875; 1.13867E-4
2707.031250; 1.18486E-4
2712.890625; 1.14467E-4
2718.750000; 9.99229E-5
2724.609375; 1.05964E-4
2730.468750; 1.04830E-4
2736.328125; 1.00343E-4
2742.187500; 1.10278E-4
2748.046875; 1.03242E-4
2753.906250; 1.05930E-4
2759.765625; 1.12358E-4
2765.625000; 1.12309E-4
2771.484375; 1.08110E-4
2777.343750; 1.03855E-4
2783.203125; 1.01063E-4
2789.062500; 1.08108E-4
2794.921875; 1.10785E-4
2800.781250; 1.19932E-4
2806.640625; 1.21267E-4
2812.500000; 1.05476E-4
2818.359375; 1.03056E-4
2824.218750; 1.13909E-4
2830.078125; 1.11693E-4
2835.937500; 1.10678E-4
2841.796875; 1.22041E-4
2847.656250; 1.16213E-4
2853.515625; 1.07944E-4
2859.375000; 1.04200E-4
2865.234375; 1.06942E-4
2871.093750; 1.07791E-4
2876.953125; 1.14096E-4
2882.812500; 1.09652E-4
2888.671875; 1.18644E-4
2894.531250; 1.19146E-4
2900.390625; 1.11105E-4
2906.250000; 1.14246E-4
2912.109375; 1.07222E-4
2917.968750; 1.12034E-4
2923.828125; 1.13617E-4
2929.687500; 9.56635E-5
2935.546875; 9.97460E-5
2941.406250; 1.07075E-4
2947.265625; 1.05807E-4
2953.125000; 1.02376E-4
2958.984375; 1.15560E-4
2964.843750; 1.08504E-4
2970.703125; 1.13328E-4
2976.562500; 1.26265E-4
2982.421875; 1.14243E-4
2988.281250; 1.12693E-4
2994.140625; 1.07075E-4
3000.000000; 1.04108E-4
3005.859375; 1.17710E-4
3011.718750; 1.02538E-4
3017.578125; 1.04440E-4
3023.437500; 1.04657E-4
3029.296875; 1.06337E-4
3035.156250; 1.11134E-4
3041.015625; 1.11404E-4
3046.875000; 1.14862E-4
3052.734375; 1.03973E-4
3058.593750; 1.17191E-4
3064.453125; 1.22049E-4
3070.312500; 1.05190E-4
3076.171875; 1.00185E-4
3082.031250; 9.74728E-5
3087.890625; 1.10343E-4
3093.750000; 1.02861E-4
3099.609375; 1.05090E-4
3105.468750; 1.08716E-4
3111.328125; 1.10957E-4
3117.187500; 1.16846E-4
3123.046875; 1.15881E-4
3128.906250; 1.11005E-4
3134.765625; 1.05756E-4
3140.625000; 1.17601E-4
3146.484375; 1.21072E-4
3152.343750; 1.05135E-4
3158.203125; 1.07837E-4
3164.062500; 1.05814E-4
3169.921875; 1.03419E-4
3175.781250; 1.05064E-4
3181.640625; 1.13582E-4
3187.500000; 1.10706E-4
3193.359375; 1.08990E-4
3199.218750; 1.06243E-4
3205.078125; 1.11992E-4
3210.937500; 1.14367E-4
3216.796875; 1.06603E-4
3222.656250; 1.07124E-4
3228.515625; 1.17730E-4
3234.375000; 1.10617E-4
3240.234375; 1.06794E-4
3246.093750; 1.12240E-4
3251.953125; 1.13704E-4
3257.812500; 1.20617E-4
3263.671875; 1.11084E-4
3269.531250; 1.08344E-4
3275.390625; 1.12706E-4
3281.250000; 1.03352E-4
3287.109375; 1.06980E-4
3292.968750; 1.01176E-4
3298.828125; 1.04729E-4
3304.687500; 1.22029E-4
3310.546875; 1.16243E-4
3316.406250; 1.05938E-4
3322.265625; 1.05526E-4
3328.125000; 1.13847E-4
3333.984375; 1.11638E-4
3339.843750; 1.04389E-4
3345.703125; 1.03990E-4
3351.562500; 1.16288E-4
3357.421875; 1.06853E-4
3363.281250; 1.11912E-4
3369.140625; 1.06849E-4
3375.000000; 9.32826E-5
3380.859375; 1.05531E-4
3386.718750; 1.00732E-4
3392.578125; 1.00436E-4
3398.437500; 1.03829E-4
3404.296875; 1.10816E-4
3410.156250; 1.13427E-4
3416.015625; 1.10118E-4
3421.875000; 1.15092E-4
3427.734375; 1.11919E-4
3433.593750; 1.06838E-4
3439.453125; 9.89470E-5
3445.312500; 1.14725E-4
3451.171875; 1.17444E-4
3457.031250; 1.17129E-4
3462.890625; 1.15053E-4
3468.750000; 1.29187E-4
3474.609375; 1.09169E-4
3480.468750; 1.14739E-4
3486.328125; 1.04818E-4
3492.187500; 1.04422E-4
3498.046875; 1.10306E-4
3503.906250; 1.19663E-4
3509.765625; 1.05505E-4
3515.625000; 1.01736E-4
3521.484375; 1.12135E-4
3527.343750; 1.13695E-4
3533.203125; 1.24696E-4
3539.062500; 1.13184E-4
3544.921875; 1.08315E-4
3550.781250; 1.04179E-4
3556.640625; 1.00556E-4
3562.500000; 1.03516E-4
3568.359375; 1.02515E-4
3574.218750; 1.04141E-4
3580.078125; 1.01243E-4
3585.937500; 1.05742E-4
3591.796875; 1.06836E-4
3597.656250; 1.20014E-4
3603.515625; 1.20012E-4
3609.375000; 1.23184E-4
3615.234375; 1.26343E-4
3621.093750; 1.14093E-4
3626.953125; 1.07482E-4
3632.812500; 1.07822E-4
3638.671875; 1.12695E-4
3644.531250; 1.08466E-4
3650.390625; 9.51440E-5
3656.250000; 9.97379E-5
3662.109375; 9.61702E-5
3667.968750; 1.02540E-4
3673.828125; 1.10140E-4
3679.687500; 1.06867E-4
3685.546875; 1.11567E-4
3691.406250; 1.21924E-4
3697.265625; 1.09277E-4
3703.125000; 1.10874E-4
3708.984375; 1.20387E-4
3714.843750; 1.13107E-4
3720.703125; 1.03194E-4
3726.562500; 1.07449E-4
3732.421875; 1.15274E-4
3738.281250; 1.11235E-4
3744.140625; 9.97579E-5
3750.000000; 1.14171E-4
3755.859375; 1.09621E-4
3761.718750; 1.01757E-4
3767.578125; 1.00467E-4
3773.437500; 1.15498E-4
3779.296875; 1.05062E-4
3785.156250; 9.26677E-5
3791.015625; 1.04595E-4
3796.875000; 1.12828E-4
3802.734375; 1.12183E-4
3808.593750; 9.25490E-5
3814.453125; 9.44916E-5
3820.312500; 1.12538E-4
3826.171875; 1.04629E-4
3832.031250; 1.00790E-4
3837.890625; 1.04799E-4
3843.750000; 1.19372E-4
3849.609375; 1.23294E-4
3855.468750; 1.19758E-4
3861.328125; 1.06947E-4
3867.187500; 1.16170E-4
3873.046875; 1.12613E-4
3878.906250; 1.02121E-4
3884.765625; 1.01941E-4
3890.625000; 1.07671E-4
3896.484375; 1.15268E-4
3902.343750; 1.09735E-4
3908.203125; 1.09921E-4
3914.062500; 1.06077E-4
3919.921875; 1.05076E-4
3925.781250; 9.31571E-5
3931.640625; 1.06604E-4
3937.500000; 1.12678E-4
3943.359375; 9.98377E-5
3949.218750; 1.09799E-4
3955.078125; 1.07616E-4
3960.937500; 1.01836E-4
3966.796875; 1.03177E-4
3972.656250; 1.07111E-4
3978.515625; 1.07698E-4
3984.375000; 1.01791E-4
3990.234375; 9.93965E-5
3996.093750; 9.83252E-5
4001.953125; 1.08248E-4
4007.812500; 1.03816E-4
4013.671875; 1.14545E-4
4019.531250; 1.20327E-4
4025.390625; 1.08057E-4
4031.250000; 1.02472E-4
4037.109375; 1.02319E-4
4042.968750; 1.03218E-4
4048.828125; 1.13878E-4
4054.687500; 1.15726E-4
4060.546875; 1.08542E-4
4066.406250; 9.63550E-5
4072.265625; 1.13790E-4
4078.125000; 1.10947E-4
4083.984375; 9.99268E-5
4089.843750; 1.05801E-4
4095.703125; 1.08589E-4
4101.562500; 1.14122E-4
4107.421875; 1.12345E-4
4113.281250; 1.04589E-4
4119.140625; 1.13386E-4
4125.000000; 1.07266E-4
4130.859375; 1.11751E-4
4136.718750; 1.18730E-4
4142.578125; 1.09191E-4
4148.437500; 9.99303E-5
4154.296875; 1.00292E-4
4160.156250; 1.13128E-4
4166.015625; 1.12341E-4
4171.875000; 9.82741E-5
4177.734375; 1.04448E-4
4183.593750; 1.12136E-4
4189.453125; 1.14738E-4
4195.312500; 1.16079E-4
4201.171875; 9.92147E-5
4207.031250; 1.12060E-4
4212.890625; 1.14993E-4
4218.750000; 1.11127E-4
4224.609375; 1.07485E-4
4230.468750; 1.08244E-4
4236.328125; 1.00810E-4
4242.187500; 1.00701E-4
4248.046875; 9.50852E-5
4253.906250; 1.04141E-4
4259.765625; 1.15697E-4
4265.625000; 9.77885E-5
4271.484375; 9.23200E-5
4277.343750; 9.64489E-5
4283.203125; 9.78797E-5
4289.062500; 1.05048E-4
4294.921875; 1.06525E-4
4300.781250; 1.09257E-4
4306.640625; 9.50959E-5
4312.500000; 9.73349E-5
4318.359375; 1.04993E-4
4324.218750; 1.04734E-4
4330.078125; 9.35166E-5
4335.937500; 1.04600E-4
4341.796875; 1.03255E-4
4347.656250; 1.13127E-4
4353.515625; 1.10145E-4
4359.375000; 1.09151E-4
4365.234375; 1.17194E-4
4371.093750; 1.07580E-4
4376.953125; 1.00478E-4
4382.812500; 1.02794E-4
4388.671875; 1.02010E-4
4394.531250; 9.48164E-5
4400.390625; 1.04562E-4
4406.250000; 1.17393E-4
4412.109375; 1.10414E-4
4417.968750; 1.11364E-4
4423.828125; 1.08279E-4
4429.687500; 1.12937E-4
4435.546875; 1.09179E-4
4441.406250; 1.01854E-4
4447.265625; 1.02596E-4
4453.125000; 9.79981E-5
4458.984375; 1.13943E-4
4464.843750; 1.15013E-4
4470.703125; 1.16274E-4
4476.562500; 1.14049E-4
4482.421875; 1.23536E-4
4488.281250; 1.18168E-4
4494.140625; 1.10909E-4
4500.000000; 1.14836E-4
4505.859375; 1.12314E-4
4511.718750; 1.19985E-4
4517.578125; 1.00314E-4
4523.437500; 9.97898E-5
4529.296875; 1.10606E-4
4535.156250; 1.06207E-4
4541.015625; 1.05622E-4
4546.875000; 1.10061E-4
4552.734375; 1.02581E-4
4558.593750; 1.03104E-4
4564.453125; 1.09303E-4
4570.312500; 1.03359E-4
4576.171875; 1.01116E-4
4582.031250; 9.97188E-5
4587.890625; 1.04660E-4
4593.750000; 1.15190E-4
4599.609375; 1.02468E-4
4605.468750; 1.10323E-4
4611.328125; 1.08431E-4
4617.187500; 1.09302E-4
4623.046875; 1.11737E-4
4628.906250; 9.49526E-5
4634.765625; 1.08465E-4
4640.625000; 1.09795E-4
4646.484375; 1.05634E-4
4652.343750; 1.01870E-4
4658.203125; 9.86188E-5
4664.062500; 1.06989E-4
4669.921875; 1.17797E-4
4675.781250; 1.15398E-4
4681.640625; 1.06255E-4
4687.500000; 1.04983E-4
4693.359375; 1.15552E-4
4699.218750; 1.07405E-4
4705.078125; 1.03531E-4
4710.937500; 1.00970E-4
4716.796875; 1.07871E-4
4722.656250; 1.06608E-4
4728.515625; 1.02617E-4
4734.375000; 1.06729E-4
4740.234375; 1.16065E-4
4746.093750; 1.14353E-4
4751.953125; 1.06705E-4
4757.812500; 1.06763E-4
4763.671875; 1.08798E-4
4769.531250; 1.13807E-4
4775.390625; 1.08905E-4
4781.250000; 1.09669E-4
4787.109375; 1.23577E-4
4792.968750; 1.29909E-4
4798.828125; 1.31153E-4
4804.687500; 1.14882E-4
4810.546875; 1.19203E-4
4816.406250; 1.18067E-4
4822.265625; 1.17919E-4
4828.125000; 1.10485E-4
4833.984375; 1.09868E-4
4839.843750; 1.08152E-4
4845.703125; 9.38750E-5
4851.562500; 1.06118E-4
4857.421875; 1.09977E-4
4863.281250; 1.06276E-4
4869.140625; 1.01072E-4
4875.000000; 9.60163E-5
4880.859375; 1.05690E-4
4886.718750; 1.09052E-4
4892.578125; 1.14464E-4
4898.437500; 1.08121E-4
4904.296875; 9.83520E-5
4910.156250; 1.08602E-4
4916.015625; 1.01028E-4
4921.875000; 9.78782E-5
4927.734375; 9.71621E-5
4933.593750; 9.97964E-5
4939.453125; 1.12306E-4
4945.312500; 1.09856E-4
4951.171875; 1.02122E-4
4957.031250; 1.05301E-4
4962.890625; 1.12643E-4
4968.750000; 1.19127E-4
4974.609375; 1.09850E-4
4980.468750; 1.04818E-4
4986.328125; 1.05009E-4
4992.187500; 1.12034E-4
4998.046875; 1.10990E-4
5003.906250; 1.12588E-4
5009.765625; 1.05788E-4
5015.625000; 1.03687E-4
5021.484375; 1.05728E-4
5027.343750; 1.13847E-4
5033.203125; 1.07171E-4
5039.062500; 1.00142E-4
5044.921875; 1.01090E-4
5050.781250; 1.13645E-4
5056.640625; 1.19166E-4
5062.500000; 9.78920E-5
5068.359375; 1.05212E-4
5074.218750; 1.15665E-4
5080.078125; 1.05846E-4
5085.937500; 1.05839E-4
5091.796875; 9.55785E-5
5097.656250; 1.06860E-4
5103.515625; 1.04715E-4
5109.375000; 1.10142E-4
5115.234375; 1.09920E-4
5121.093750; 1.12059E-4
5126.953125; 1.13408E-4
5132.812500; 1.18731E-4
5138.671875; 1.17966E-4
5144.531250; 1.22980E-4
5150.390625; 1.19498E-4
5156.250000; 1.10188E-4
5162.109375; 1.05020E-4
5167.968750; 1.15854E-4
5173.828125; 1.10197E-4
5179.687500; 1.05851E-4
5185.546875; 1.23533E-4
5191.406250; 1.22191E-4
5197.265625; 1.07443E-4
5203.125000; 1.13163E-4
5208.984375; 1.02502E-4
5214.843750; 1.01886E-4
5220.703125; 1.03392E-4
5226.562500; 1.01835E-4
5232.421875; 9.73373E-5
5238.281250; 1.01266E-4
5244.140625; 1.02577E-4
5250.000000; 1.03037E-4
5255.859375; 9.92182E-5
5261.718750; 9.24385E-5
5267.578125; 9.71123E-5
5273.437500; 1.12428E-4
5279.296875; 1.23579E-4
5285.156250; 1.20596E-4
5291.015625; 1.13108E-4
5296.875000; 1.02618E-4
5302.734375; 1.01365E-4
5308.593750; 9.66590E-5
5314.453125; 1.08667E-4
5320.312500; 1.07004E-4
5326.171875; 1.09118E-4
5332.031250; 1.19214E-4
5337.890625; 1.13164E-4
5343.750000; 9.40677E-5
5349.609375; 9.23152E-5
5355.468750; 9.23018E-5
5361.328125; 9.86838E-5
5367.187500; 1.08204E-4
5373.046875; 1.01731E-4
5378.906250; 9.74724E-5
5384.765625; 9.84674E-5
5390.625000; 1.06693E-4
5396.484375; 1.17755E-4
5402.343750; 1.17307E-4
5408.203125; 1.23044E-4
5414.062500; 1.22798E-4
5419.921875; 1.13882E-4
5425.781250; 1.04654E-4
5431.640625; 1.04785E-4
5437.500000; 1.07538E-4
5443.359375; 1.11349E-4
5449.218750; 1.23529E-4
5455.078125; 1.05234E-4
5460.937500; 1.02120E-4
5466.796875; 1.09004E-4
5472.656250; 1.12222E-4
5478.515625; 1.10278E-4
5484.375000; 1.01228E-4
5490.234375; 1.01499E-4
5496.093750; 1.11852E-4
5501.953125; 1.17379E-4
5507.812500; 1.13638E-4
5513.671875; 1.01122E-4
5519.531250; 9.97550E-5
5525.390625; 1.08932E-4
5531.250000; 1.04558E-4
5537.109375; 1.10372E-4
5542.968750; 1.15210E-4
5548.828125; 1.15943E-4
5554.687500; 1.10852E-4
5560.546875; 1.06090E-4
5566.406250; 1.16255E-4
5572.265625; 1.18188E-4
5578.125000; 1.11988E-4
5583.984375; 1.15544E-4
5589.843750; 1.03144E-4
5595.703125; 1.08489E-4
5601.562500; 1.17849E-4
5607.421875; 1.11193E-4
5613.281250; 1.08333E-4
5619.140625; 1.05339E-4
5625.000000; 9.91566E-5
5630.859375; 8.87546E-5
5636.718750; 1.00734E-4
5642.578125; 1.12710E-4
5648.437500; 1.17270E-4
5654.296875; 9.93425E-5
5660.156250; 1.05170E-4
5666.015625; 1.08027E-4
5671.875000; 1.29325E-4
5677.734375; 1.26900E-4
5683.593750; 9.94398E-5
5689.453125; 9.47256E-5
5695.312500; 9.68829E-5
5701.171875; 1.03064E-4
5707.031250; 9.96115E-5
5712.890625; 1.00986E-4
5718.750000; 1.08016E-4
5724.609375; 1.09511E-4
5730.468750; 9.73558E-5
5736.328125; 9.55566E-5
5742.187500; 1.01688E-4
5748.046875; 1.15267E-4
5753.906250; 1.17050E-4
5759.765625; 1.23251E-4
5765.625000; 1.09535E-4
5771.484375; 1.02492E-4
5777.343750; 1.09614E-4
5783.203125; 1.16539E-4
5789.062500; 1.11802E-4
5794.921875; 1.09918E-4
5800.781250; 1.12916E-4
5806.640625; 1.09356E-4
5812.500000; 1.09314E-4
5818.359375; 1.00107E-4
5824.218750; 1.03241E-4
5830.078125; 1.17287E-4
5835.937500; 1.15447E-4
5841.796875; 9.72459E-5
5847.656250; 1.01885E-4
5853.515625; 9.86398E-5
5859.375000; 1.07073E-4
5865.234375; 1.06932E-4
5871.093750; 1.01399E-4
5876.953125; 9.97799E-5
5882.812500; 1.15736E-4
5888.671875; 1.06034E-4
5894.531250; 1.02830E-4
5900.390625; 9.97089E-5
5906.250000; 1.12120E-4
5912.109375; 1.01508E-4
5917.968750; 1.03713E-4
5923.828125; 9.55863E-5
5929.687500; 1.03371E-4
5935.546875; 1.15441E-4
5941.406250; 1.09122E-4
5947.265625; 1.04311E-4
5953.125000; 1.10780E-4
5958.984375; 1.19889E-4
5964.843750; 1.17719E-4
5970.703125; 1.14458E-4
5976.562500; 1.06970E-4
5982.421875; 1.05774E-4
5988.281250; 1.10839E-4
5994.140625; 1.17393E-4
6000.000000; 1.14554E-4
6005.859375; 1.05443E-4
6011.718750; 1.03065E-4
6017.578125; 9.89137E-5
6023.437500; 1.12778E-4
6029.296875; 1.12476E-4
6035.156250; 1.11536E-4
6041.015625; 1.16516E-4
6046.875000; 1.06155E-4
6052.734375; 1.14174E-4
6058.593750; 1.05728E-4
6064.453125; 1.06487E-4
6070.312500; 1.17565E-4
6076.171875; 1.21450E-4
6082.031250; 1.00006E-4
6087.890625; 9.46555E-5
6093.750000; 1.09585E-4
6099.609375; 1.03494E-4
6105.468750; 1.11539E-4
6111.328125; 1.07440E-4
6117.187500; 9.57125E-5
6123.046875; 9.84553E-5
6128.906250; 1.07730E-4
6134.765625; 1.18419E-4
6140.625000; 1.10212E-4
6146.484375; 1.17199E-4
6152.343750; 1.20995E-4
6158.203125; 1.08384E-4
6164.062500; 1.08005E-4
6169.921875; 1.01878E-4
6175.781250; 1.00732E-4
6181.640625; 1.02419E-4
6187.500000; 1.09973E-4
6193.359375; 1.10902E-4
6199.218750; 1.08502E-4
6205.078125; 1.05193E-4
6210.937500; 1.07460E-4
6216.796875; 1.11218E-4
6222.656250; 1.08724E-4
6228.515625; 1.04220E-4
6234.375000; 1.14335E-4
6240.234375; 1.09280E-4
6246.093750; 1.11627E-4
6251.953125; 1.12658E-4
6257.812500; 1.11477E-4
6263.671875; 1.09003E-4
6269.531250; 1.12188E-4
6275.390625; 1.06072E-4
6281.250000; 9.97116E-5
6287.109375; 9.96831E-5
6292.968750; 1.02157E-4
6298.828125; 9.93818E-5
6304.687500; 1.14992E-4
6310.546875; 1.12716E-4
6316.406250; 1.04834E-4
6322.265625; 1.03461E-4
6328.125000; 1.01076E-4
6333.984375; 1.08468E-4
6339.843750; 1.11516E-4
6345.703125; 1.14755E-4
6351.562500; 1.13422E-4
6357.421875; 1.12319E-4
6363.281250; 1.10104E-4
6369.140625; 1.10917E-4
6375.000000; 1.03974E-4
6380.859375; 1.08208E-4
6386.718750; 1.10736E-4
6392.578125; 1.01416E-4
6398.437500; 9.68616E-5
6404.296875; 1.00686E-4
6410.156250; 1.06547E-4
6416.015625; 1.15236E-4
6421.875000; 1.19439E-4
6427.734375; 1.12356E-4
6433.593750; 1.07832E-4
6439.453125; 1.00266E-4
6445.312500; 1.14957E-4
6451.171875; 9.99781E-5
6457.031250; 1.00776E-4
6462.890625; 1.11475E-4
6468.750000; 9.70257E-5
6474.609375; 9.37139E-5
6480.468750; 1.01044E-4
6486.328125; 9.87216E-5
6492.187500; 1.09295E-4
6498.046875; 1.00415E-4
6503.906250; 1.03411E-4
6509.765625; 1.04374E-4
6515.625000; 9.48986E-5
6521.484375; 9.54712E-5
6527.343750; 9.98181E-5
6533.203125; 1.04057E-4
6539.062500; 1.05142E-4
6544.921875; 1.05463E-4
6550.781250; 1.11990E-4
6556.640625; 1.04716E-4
6562.500000; 1.05423E-4
6568.359375; 1.19317E-4
6574.218750; 1.16187E-4
6580.078125; 1.05078E-4
6585.937500; 1.11988E-4
6591.796875; 1.14322E-4
6597.656250; 1.15048E-4
6603.515625; 1.05432E-4
6609.375000; 1.06087E-4
6615.234375; 1.04763E-4
6621.093750; 9.76147E-5
6626.953125; 9.79641E-5
6632.812500; 1.19454E-4
6638.671875; 1.22520E-4
6644.531250; 1.15180E-4
6650.390625; 9.83120E-5
6656.250000; 1.14982E-4
6662.109375; 1.16850E-4
6667.968750; 1.05211E-4
6673.828125; 1.11382E-4
6679.687500; 1.14775E-4
6685.546875; 1.15655E-4
6691.406250; 1.13333E-4
6697.265625; 1.05466E-4
6703.125000; 1.13596E-4
6708.984375; 1.05401E-4
6714.843750; 1.08021E-4
6720.703125; 1.12131E-4
6726.562500; 1.05984E-4
6732.421875; 1.14972E-4
6738.281250; 1.02740E-4
6744.140625; 1.03935E-4
6750.000000; 1.02104E-4
6755.859375; 1.10828E-4
6761.718750; 1.02467E-4
6767.578125; 1.01481E-4
6773.437500; 1.01636E-4
6779.296875; 9.93165E-5
6785.156250; 1.10592E-4
6791.015625; 1.13628E-4
6796.875000; 9.84579E-5
6802.734375; 1.08338E-4
6808.593750; 1.06350E-4
6814.453125; 1.09858E-4
6820.312500; 1.18633E-4
6826.171875; 1.13380E-4
6832.031250; 1.09295E-4
6837.890625; 1.08651E-4
6843.750000; 1.06495E-4
6849.609375; 1.06258E-4
6855.468750; 1.19973E-4
6861.328125; 1.12901E-4
6867.187500; 1.03789E-4
6873.046875; 1.05836E-4
6878.906250; 1.16944E-4
6884.765625; 1.07503E-4
6890.625000; 1.03919E-4
6896.484375; 1.18670E-4
6902.343750; 1.19070E-4
6908.203125; 1.17415E-4
6914.062500; 9.27828E-5
6919.921875; 9.78466E-5
6925.781250; 1.00999E-4
6931.640625; 1.01618E-4
6937.500000; 1.10488E-4
6943.359375; 1.21607E-4
6949.218750; 1.24802E-4
6955.078125; 1.18186E-4
6960.937500; 9.67714E-5
6966.796875; 1.04446E-4
6972.656250; 1.06818E-4
6978.515625; 1.16118E-4
6984.375000; 1.07692E-4
6990.234375; 1.00226E-4
6996.093750; 1.02521E-4
7001.953125; 9.68463E-5
7007.812500; 9.87927E-5
7013.671875; 1.01909E-4
7019.531250; 1.02681E-4
7025.390625; 1.07359E-4
7031.250000; 1.05627E-4
7037.109375; 1.01768E-4
7042.968750; 1.03229E-4
7048.828125; 9.51363E-5
7054.687500; 1.02570E-4
7060.546875; 1.10559E-4
7066.406250; 1.11018E-4
7072.265625; 1.15758E-4
7078.125000; 1.08149E-4
7083.984375; 1.13438E-4
7089.843750; 1.11287E-4
7095.703125; 1.04759E-4
7101.562500; 1.09475E-4
7107.421875; 1.06076E-4
7113.281250; 1.05027E-4
7119.140625; 9.90959E-5
7125.000000; 9.44499E-5
7130.859375; 1.06970E-4
7136.718750; 1.10649E-4
7142.578125; 1.04705E-4
7148.437500; 1.11117E-4
7154.296875; 1.15251E-4
7160.156250; 1.13128E-4
7166.015625; 1.15306E-4
7171.875000; 1.08965E-4
7177.734375; 1.13443E-4
7183.593750; 1.13384E-4
7189.453125; 1.10801E-4
7195.312500; 9.48431E-5
7201.171875; 9.44523E-5
7207.031250; 1.05437E-4
7212.890625; 1.05765E-4
7218.750000; 1.08076E-4
7224.609375; 9.86605E-5
7230.468750; 1.14677E-4
7236.328125; 1.03546E-4
7242.187500; 1.12375E-4
7248.046875; 1.15191E-4
7253.906250; 1.05704E-4
7259.765625; 1.02787E-4
7265.625000; 1.06599E-4
7271.484375; 1.07972E-4
7277.343750; 9.87022E-5
7283.203125; 1.02625E-4
7289.062500; 1.02957E-4
7294.921875; 1.04410E-4
7300.781250; 1.11789E-4
7306.640625; 1.06217E-4
7312.500000; 1.08322E-4
7318.359375; 1.09276E-4
7324.218750; 1.16172E-4
7330.078125; 1.06090E-4
7335.937500; 9.54162E-5
7341.796875; 9.34732E-5
7347.656250; 1.05354E-4
7353.515625; 1.04096E-4
7359.375000; 1.02360E-4
7365.234375; 1.06894E-4
7371.093750; 9.86621E-5
7376.953125; 1.00912E-4
7382.812500; 1.18683E-4
7388.671875; 1.16024E-4
7394.531250; 1.14217E-4
7400.390625; 1.09667E-4
7406.250000; 1.13266E-4
7412.109375; 1.02510E-4
7417.968750; 1.13837E-4
7423.828125; 1.01655E-4
7429.687500; 9.90887E-5
7435.546875; 8.95506E-5
7441.406250; 9.99182E-5
7447.265625; 1.08643E-4
7453.125000; 1.06043E-4
7458.984375; 1.10507E-4
7464.843750; 1.06470E-4
7470.703125; 1.02178E-4
7476.562500; 1.11622E-4
7482.421875; 1.08564E-4
7488.281250; 1.08164E-4
7494.140625; 1.04936E-4
7500.000000; 1.04698E-4
7505.859375; 9.95549E-5
7511.718750; 1.08549E-4
7517.578125; 1.06834E-4
7523.437500; 1.01497E-4
7529.296875; 1.06760E-4
7535.156250; 1.05038E-4
7541.015625; 1.07753E-4
7546.875000; 9.22306E-5
7552.734375; 1.06015E-4
7558.593750; 1.07785E-4
7564.453125; 1.04485E-4
7570.312500; 1.09987E-4
7576.171875; 1.18471E-4
7582.031250; 1.19819E-4
7587.890625; 1.03544E-4
7593.750000; 1.05983E-4
7599.609375; 1.01908E-4
7605.468750; 1.07583E-4
7611.328125; 1.05086E-4
7617.187500; 9.97384E-5
7623.046875; 1.06888E-4
7628.906250; 9.99293E-5
7634.765625; 1.01048E-4
7640.625000; 1.06857E-4
7646.484375; 1.09716E-4
7652.343750; 1.04052E-4
7658.203125; 9.84776E-5
7664.062500; 9.63038E-5
7669.921875; 1.09785E-4
7675.781250; 1.12171E-4
7681.640625; 1.06338E-4
7687.500000; 1.08381E-4
7693.359375; 1.08219E-4
7699.218750; 1.14801E-4
7705.078125; 1.10298E-4
7710.937500; 9.78155E-5
7716.796875; 1.07194E-4
7722.656250; 1.13982E-4
7728.515625; 1.07580E-4
7734.375000; 1.17788E-4
7740.234375; 1.22540E-4
7746.093750; 1.08986E-4
7751.953125; 1.03972E-4
7757.812500; 1.04331E-4
7763.671875; 1.06920E-4
7769.531250; 1.11060E-4
7775.390625; 1.08626E-4
7781.250000; 1.11103E-4
7787.109375; 1.08924E-4
7792.968750; 1.07058E-4
7798.828125; 1.09466E-4
7804.687500; 1.16354E-4
7810.546875; 1.07102E-4
7816.406250; 1.05320E-4
7822.265625; 1.00377E-4
7828.125000; 1.18499E-4
7833.984375; 1.07360E-4
7839.843750; 1.02161E-4
7845.703125; 1.10307E-4
7851.562500; 1.10724E-4
7857.421875; 1.09401E-4
7863.281250; 1.13699E-4
7869.140625; 1.07969E-4
7875.000000; 1.10047E-4
7880.859375; 1.20294E-4
7886.718750; 1.16068E-4
7892.578125; 9.29198E-5
7898.437500; 1.01910E-4
7904.296875; 1.07066E-4
7910.156250; 1.01420E-4
7916.015625; 1.02742E-4
7921.875000; 9.79176E-5
7927.734375; 9.60508E-5
7933.593750; 9.67292E-5
7939.453125; 9.45373E-5
7945.312500; 1.10949E-4
7951.171875; 1.14984E-4
7957.031250; 1.11861E-4
7962.890625; 1.13250E-4
7968.750000; 1.01050E-4
7974.609375; 1.08013E-4
7980.468750; 1.11054E-4
7986.328125; 1.05691E-4
7992.187500; 1.09813E-4
7998.046875; 1.08464E-4
8003.906250; 1.02416E-4
8009.765625; 1.13708E-4
8015.625000; 1.11453E-4
8021.484375; 9.80504E-5
8027.343750; 9.42236E-5
8033.203125; 1.08325E-4
8039.062500; 1.14778E-4
8044.921875; 1.16469E-4
8050.781250; 1.07692E-4
8056.640625; 9.08500E-5
8062.500000; 1.06187E-4
8068.359375; 1.13783E-4
8074.218750; 1.13785E-4
8080.078125; 1.00407E-4
8085.937500; 1.12006E-4
8091.796875; 1.03176E-4
8097.656250; 1.01083E-4
8103.515625; 1.00601E-4
8109.375000; 1.00200E-4
8115.234375; 9.67617E-5
8121.093750; 1.05520E-4
8126.953125; 1.05171E-4
8132.812500; 1.07893E-4
8138.671875; 1.12412E-4
8144.531250; 1.20339E-4
8150.390625; 9.94352E-5
8156.250000; 9.60240E-5
8162.109375; 1.04752E-4
8167.968750; 1.07932E-4
8173.828125; 1.06107E-4
8179.687500; 9.68982E-5
8185.546875; 1.00421E-4
8191.406250; 1.02078E-4
8197.265625; 1.02964E-4
8203.125000; 1.07662E-4
8208.984375; 1.07507E-4
8214.843750; 1.11697E-4
8220.703125; 1.10938E-4
8226.562500; 1.01586E-4
8232.421875; 1.08593E-4
8238.281250; 1.09027E-4
8244.140625; 1.08072E-4
8250.000000; 1.04864E-4
8255.859375; 1.05594E-4
8261.718750; 1.00515E-4
8267.578125; 1.08483E-4
8273.437500; 1.05628E-4
8279.296875; 1.09016E-4
8285.156250; 1.09263E-4
8291.015625; 1.02000E-4
8296.875000; 9.77643E-5
8302.734375; 1.09679E-4
8308.593750; 1.05669E-4
8314.453125; 1.14415E-4
8320.312500; 1.14681E-4
8326.171875; 1.11071E-4
8332.031250; 1.19246E-4
8337.890625; 1.10622E-4
8343.750000; 1.12432E-4
8349.609375; 1.23191E-4
8355.468750; 1.15675E-4
8361.328125; 1.04446E-4
8367.187500; 9.46984E-5
8373.046875; 1.08401E-4
8378.906250; 1.17349E-4
8384.765625; 1.24439E-4
8390.625000; 1.23571E-4
8396.484375; 1.20064E-4
8402.343750; 1.15619E-4
8408.203125; 1.11151E-4
8414.062500; 1.16457E-4
8419.921875; 1.17165E-4
8425.781250; 1.08154E-4
8431.640625; 1.00572E-4
8437.500000; 1.21764E-4
8443.359375; 1.15885E-4
8449.218750; 1.04597E-4
8455.078125; 1.05558E-4
8460.937500; 1.13340E-4
8466.796875; 1.17442E-4
8472.656250; 1.14486E-4
8478.515625; 1.18999E-4
8484.375000; 1.11516E-4
8490.234375; 1.02539E-4
8496.093750; 1.03144E-4
8501.953125; 1.08098E-4
8507.812500; 1.06643E-4
8513.671875; 1.09808E-4
8519.531250; 1.13741E-4
8525.390625; 1.19177E-4
8531.250000; 1.07324E-4
8537.109375; 1.07676E-4
8542.968750; 1.11021E-4
8548.828125; 1.05611E-4
8554.687500; 1.03108E-4
8560.546875; 1.11256E-4
8566.406250; 1.08016E-4
8572.265625; 9.83289E-5
8578.125000; 1.09692E-4
8583.984375; 1.12753E-4
8589.843750; 1.14684E-4
8595.703125; 1.06950E-4
8601.562500; 1.06044E-4
8607.421875; 1.13954E-4
8613.281250; 1.12139E-4
8619.140625; 1.18240E-4
8625.000000; 1.05708E-4
8630.859375; 1.01438E-4
8636.718750; 1.05818E-4
8642.578125; 1.14036E-4
8648.437500; 1.11050E-4
8654.296875; 1.12227E-4
8660.156250; 9.05623E-5
8666.015625; 9.50748E-5
8671.875000; 1.08582E-4
8677.734375; 1.17478E-4
8683.593750; 1.10662E-4
8689.453125; 1.12372E-4
8695.312500; 1.24432E-4
8701.171875; 1.20152E-4
8707.031250; 1.12772E-4
8712.890625; 1.02576E-4
8718.750000; 1.08958E-4
8724.609375; 1.07660E-4
8730.468750; 1.07707E-4
8736.328125; 9.81443E-5
8742.187500; 1.06583E-4
8748.046875; 1.16930E-4
8753.906250; 1.16773E-4
8759.765625; 1.17539E-4
8765.625000; 1.12683E-4
8771.484375; 1.12007E-4
8777.343750; 1.14306E-4
8783.203125; 1.09853E-4
8789.062500; 1.00506E-4
8794.921875; 1.16313E-4
8800.781250; 1.04562E-4
8806.640625; 1.02647E-4
8812.500000; 1.02991E-4
8818.359375; 9.21525E-5
8824.218750; 1.14367E-4
8830.078125; 1.22906E-4
8835.937500; 1.09174E-4
8841.796875; 1.17150E-4
8847.656250; 1.13012E-4
8853.515625; 1.17482E-4
8859.375000; 1.14896E-4
8865.234375; 1.02418E-4
8871.093750; 1.01064E-4
8876.953125; 9.17793E-5
8882.812500; 1.01198E-4
8888.671875; 1.09335E-4
8894.531250; 1.05490E-4
8900.390625; 1.09490E-4
8906.250000; 1.13016E-4
8912.109375; 1.14829E-4
8917.968750; 1.03925E-4
8923.828125; 1.10095E-4
8929.687500; 1.11050E-4
8935.546875; 1.03008E-4
8941.406250; 1.09427E-4
8947.265625; 1.11314E-4
8953.125000; 1.09726E-4
8958.984375; 1.07065E-4
8964.843750; 1.04184E-4
8970.703125; 1.01359E-4
8976.562500; 1.03855E-4
8982.421875; 1.04700E-4
8988.281250; 9.86785E-5
8994.140625; 1.00931E-4
9000.000000; 1.00003E-4
9005.859375; 1.04997E-4
9011.718750; 1.11146E-4
9017.578125; 1.07559E-4
9023.437500; 9.14815E-5
9029.296875; 9.54895E-5
9035.156250; 1.06528E-4
9041.015625; 1.11353E-4
9046.875000; 1.03022E-4
9052.734375; 1.14993E-4
9058.593750; 1.17531E-4
9064.453125; 1.11380E-4
9070.312500; 1.00944E-4
9076.171875; 1.02107E-4
9082.031250; 1.03231E-4
9087.890625; 9.94370E-5
9093.750000; 1.08660E-4
9099.609375; 1.00044E-4
9105.468750; 1.04566E-4
9111.328125; 1.10958E-4
9117.187500; 1.15692E-4
9123.046875; 1.17921E-4
9128.906250; 1.16736E-4
9134.765625; 1.10477E-4
9140.625000; 1.04483E-4
9146.484375; 1.03917E-4
9152.343750; 1.00422E-4
9158.203125; 9.24463E-5
9164.062500; 1.12726E-4
9169.921875; 1.01018E-4
9175.781250; 1.02668E-4
9181.640625; 1.11930E-4
9187.500000; 1.14606E-4
9193.359375; 1.02974E-4
9199.218750; 1.02375E-4
9205.078125; 1.11963E-4
9210.937500; 1.19610E-4
9216.796875; 1.03756E-4
9222.656250; 1.08858E-4
9228.515625; 1.12081E-4
9234.375000; 1.02720E-4
9240.234375; 9.67579E-5
9246.093750; 1.05090E-4
9251.953125; 1.07101E-4
9257.812500; 1.10030E-4
9263.671875; 1.05154E-4
9269.531250; 1.03645E-4
9275.390625; 1.17528E-4
9281.250000; 1.06762E-4
9287.109375; 1.02891E-4
9292.968750; 1.03951E-4
9298.828125; 1.03464E-4
9304.687500; 9.96099E-5
9310.546875; 8.76326E-5
9316.406250; 1.08641E-4
9322.265625; 1.21595E-4
9328.125000; 1.05803E-4
9333.984375; 1.02997E-4
9339.843750; 9.49098E-5
9345.703125; 1.19974E-4
9351.562500; 1.22329E-4
9357.421875; 1.01953E-4
9363.281250; 9.46946E-5
9369.140625; 9.97971E-5
9375.000000; 9.93862E-5
9380.859375; 9.98761E-5
9386.718750; 1.14481E-4
9392.578125; 1.08062E-4
9398.437500; 9.96096E-5
9404.296875; 1.07370E-4
9410.156250; 1.00160E-4
9416.015625; 1.08807E-4
9421.875000; 1.08599E-4
9427.734375; 1.11363E-4
9433.593750; 1.09220E-4
9439.453125; 1.03191E-4
9445.312500; 1.06969E-4
9451.171875; 1.12797E-4
9457.031250; 1.11088E-4
9462.890625; 1.13655E-4
9468.750000; 1.10819E-4
9474.609375; 1.14395E-4
9480.468750; 1.10318E-4
9486.328125; 1.13488E-4
9492.187500; 1.01899E-4
9498.046875; 9.69757E-5
9503.906250; 1.15226E-4
9509.765625; 1.02694E-4
9515.625000; 1.00470E-4
9521.484375; 1.03436E-4
9527.343750; 1.07504E-4
9533.203125; 1.11508E-4
9539.062500; 1.05490E-4
9544.921875; 1.05987E-4
9550.781250; 1.10790E-4
9556.640625; 1.15632E-4
9562.500000; 1.07647E-4
9568.359375; 1.11509E-4
9574.218750; 1.16189E-4
9580.078125; 1.10173E-4
9585.937500; 1.08835E-4
9591.796875; 1.09765E-4
9597.656250; 1.08273E-4
9603.515625; 1.00603E-4
9609.375000; 1.03036E-4
9615.234375; 1.07552E-4
9621.093750; 1.13428E-4
9626.953125; 1.11803E-4
9632.812500; 9.78006E-5
9638.671875; 1.02581E-4
9644.531250; 1.06081E-4
9650.390625; 9.76489E-5
9656.250000; 1.06417E-4
9662.109375; 1.09189E-4
9667.968750; 1.02893E-4
9673.828125; 1.01600E-4
9679.687500; 1.00822E-4
9685.546875; 1.09405E-4
9691.406250; 1.18495E-4
9697.265625; 1.06724E-4
9703.125000; 1.06519E-4
9708.984375; 1.11392E-4
9714.843750; 1.09050E-4
9720.703125; 1.03571E-4
9726.562500; 1.10537E-4
9732.421875; 1.14878E-4
9738.281250; 1.08945E-4
9744.140625; 1.13456E-4
9750.000000; 1.11447E-4
9755.859375; 1.01884E-4
9761.718750; 1.07452E-4
9767.578125; 1.14271E-4
9773.437500; 1.18042E-4
9779.296875; 1.09776E-4
9785.156250; 9.59235E-5
9791.015625; 9.55237E-5
9796.875000; 9.88399E-5
9802.734375; 1.09244E-4
9808.593750; 1.19497E-4
9814.453125; 1.10086E-4
9820.312500; 1.01583E-4
9826.171875; 1.07403E-4
9832.031250; 1.12692E-4
9837.890625; 1.12049E-4
9843.750000; 1.07675E-4
9849.609375; 1.15650E-4
9855.468750; 1.11751E-4
9861.328125; 1.05295E-4
9867.187500; 1.07589E-4
9873.046875; 1.02201E-4
9878.906250; 1.03325E-4
9884.765625; 1.07316E-4
9890.625000; 1.06670E-4
9896.484375; 1.07748E-4
9902.343750; 1.15552E-4
9908.203125; 1.16524E-4
9914.062500; 1.07358E-4
9919.921875; 1.07390E-4
9925.781250; 1.04195E-4
9931.640625; 9.82057E-5
9937.500000; 1.16617E-4
9943.359375; 1.13045E-4
9949.218750; 1.08395E-4
9955.078125; 1.13307E-4
9960.937500; 1.08190E-4
9966.796875; 1.11612E-4
9972.656250; 1.11718E-4
9978.515625; 1.14297E-4
9984.375000; 1.03354E-4
9990.234375; 1.09127E-4
9996.093750; 1.10502E-4
10001.953125; 1.09543E-4
10007.812500; 9.66737E-5
10013.671875; 8.90745E-5
10019.531250; 8.59638E-5
10025.390625; 9.60576E-5
10031.250000; 1.15047E-4
10037.109375; 1.13490E-4
10042.968750; 1.13077E-4
10048.828125; 1.11859E-4
10054.687500; 1.12932E-4
10060.546875; 1.09786E-4
10066.406250; 1.06597E-4
10072.265625; 9.84986E-5
10078.125000; 1.04807E-4
10083.984375; 1.15106E-4
10089.843750; 1.14754E-4
10095.703125; 1.05094E-4
10101.562500; 1.10524E-4
10107.421875; 1.10298E-4
10113.281250; 1.19933E-4
10119.140625; 1.23387E-4
10125.000000; 1.08984E-4
10130.859375; 1.06877E-4
10136.718750; 1.11266E-4
10142.578125; 1.19233E-4
10148.437500; 1.12649E-4
10154.296875; 1.05365E-4
10160.156250; 1.14214E-4
10166.015625; 1.08358E-4
10171.875000; 1.14731E-4
10177.734375; 1.11644E-4
10183.593750; 1.03904E-4
10189.453125; 9.66801E-5
10195.312500; 1.02329E-4
10201.171875; 9.83944E-5
10207.031250; 8.74576E-5
10212.890625; 1.00705E-4
10218.750000; 1.08871E-4
10224.609375; 1.03400E-4
10230.468750; 1.03664E-4
10236.328125; 1.14706E-4
10242.187500; 1.03877E-4
10248.046875; 1.08490E-4
10253.906250; 1.11406E-4
10259.765625; 8.96047E-5
10265.625000; 1.05350E-4
10271.484375; 1.02945E-4
10277.343750; 1.07201E-4
10283.203125; 1.19782E-4
10289.062500; 1.08819E-4
10294.921875; 1.09642E-4
10300.781250; 1.13278E-4
10306.640625; 1.10017E-4
10312.500000; 1.06673E-4
10318.359375; 1.00226E-4
10324.218750; 9.71606E-5
10330.078125; 1.05695E-4
10335.937500; 1.25762E-4
10341.796875; 1.21821E-4
10347.656250; 1.00996E-4
10353.515625; 1.10968E-4
10359.375000; 9.95141E-5
10365.234375; 9.87657E-5
10371.093750; 1.23510E-4
10376.953125; 1.25181E-4
10382.812500; 1.02571E-4
10388.671875; 1.11053E-4
10394.531250; 1.16618E-4
10400.390625; 1.02732E-4
10406.250000; 8.71574E-5
10412.109375; 9.77410E-5
10417.968750; 9.89275E-5
10423.828125; 9.39473E-5
10429.687500; 9.83826E-5
10435.546875; 9.38186E-5
10441.406250; 9.73743E-5
10447.265625; 1.11386E-4
10453.125000; 1.09743E-4
10458.984375; 1.14878E-4
10464.843750; 1.20775E-4
10470.703125; 1.15161E-4
10476.562500; 1.09109E-4
10482.421875; 1.05527E-4
10488.281250; 1.02589E-4
10494.140625; 1.06186E-4
10500.000000; 1.03078E-4
10505.859375; 1.07466E-4
10511.718750; 1.18234E-4
10517.578125; 1.20105E-4
10523.437500; 1.05445E-4
10529.296875; 9.25573E-5
10535.156250; 9.29419E-5
10541.015625; 1.09914E-4
10546.875000; 1.17765E-4
10552.734375; 1.06415E-4
10558.593750; 1.13934E-4
10564.453125; 1.19355E-4
10570.312500; 1.10594E-4
10576.171875; 1.05587E-4
10582.031250; 9.80143E-5
10587.890625; 1.00900E-4
10593.750000; 1.06273E-4
10599.609375; 1.07484E-4
10605.468750; 1.02091E-4
10611.328125; 9.93600E-5
10617.187500; 1.00481E-4
10623.046875; 1.11130E-4
10628.906250; 1.10239E-4
10634.765625; 1.02089E-4
10640.625000; 9.63518E-5
10646.484375; 1.07271E-4
10652.343750; 1.16866E-4
10658.203125; 1.11174E-4
10664.062500; 1.08220E-4
10669.921875; 1.09549E-4
10675.781250; 1.15666E-4
10681.640625; 1.14682E-4
10687.500000; 1.04055E-4
10693.359375; 1.13015E-4
10699.218750; 1.19807E-4
10705.078125; 1.07579E-4
10710.937500; 1.00482E-4
10716.796875; 9.98211E-5
10722.656250; 1.08888E-4
10728.515625; 1.04454E-4
10734.375000; 1.15536E-4
10740.234375; 1.13648E-4
10746.093750; 1.19907E-4
10751.953125; 1.01789E-4
10757.812500; 1.03645E-4
10763.671875; 1.18612E-4
10769.531250; 1.18881E-4
10775.390625; 1.03459E-4
10781.250000; 1.13899E-4
10787.109375; 1.13799E-4
10792.968750; 1.07915E-4
10798.828125; 1.07866E-4
10804.687500; 1.06980E-4
10810.546875; 1.00989E-4
10816.406250; 1.05214E-4
10822.265625; 1.07979E-4
10828.125000; 1.10177E-4
10833.984375; 1.15990E-4
10839.843750; 1.15512E-4
10845.703125; 9.46424E-5
10851.562500; 9.30883E-5
10857.421875; 1.09113E-4
10863.281250; 1.09772E-4
10869.140625; 9.95205E-5
10875.000000; 1.02315E-4
10880.859375; 1.12100E-4
10886.718750; 1.02177E-4
10892.578125; 1.17056E-4
10898.437500; 1.13358E-4
10904.296875; 1.05612E-4
10910.156250; 1.17282E-4
10916.015625; 1.11815E-4
10921.875000; 1.06165E-4
10927.734375; 1.08428E-4
10933.593750; 1.14200E-4
10939.453125; 1.15061E-4
10945.312500; 1.05525E-4
10951.171875; 1.10264E-4
10957.031250; 1.15886E-4
10962.890625; 1.04818E-4
10968.750000; 1.05439E-4
10974.609375; 1.09191E-4
10980.468750; 1.11390E-4
10986.328125; 1.11352E-4
10992.187500; 1.14451E-4
10998.046875; 1.22854E-4
11003.906250; 1.26122E-4
11009.765625; 1.14584E-4
11015.625000; 1.10235E-4
11021.484375; 1.16785E-4
11027.343750; 1.12957E-4
11033.203125; 1.15529E-4
11039.062500; 1.11849E-4
11044.921875; 1.15771E-4
11050.781250; 1.15133E-4
11056.640625; 9.97960E-5
11062.500000; 9.96389E-5
11068.359375; 9.92089E-5
11074.218750; 9.84821E-5
11080.078125; 1.05694E-4
11085.937500; 1.07149E-4
11091.796875; 1.12849E-4
11097.656250; 1.10587E-4
11103.515625; 1.06910E-4
11109.375000; 1.09518E-4
11115.234375; 1.09250E-4
11121.093750; 1.08584E-4
11126.953125; 9.66752E-5
11132.812500; 1.06178E-4
11138.671875; 1.14856E-4
11144.531250; 1.07397E-4
11150.390625; 1.01894E-4
11156.250000; 9.45071E-5
11162.109375; 1.03930E-4
11167.968750; 1.12183E-4
11173.828125; 1.18456E-4
11179.687500; 1.08615E-4
11185.546875; 9.98610E-5
11191.406250; 1.05822E-4
11197.265625; 1.03341E-4
11203.125000; 1.00604E-4
11208.984375; 1.06444E-4
11214.843750; 1.12927E-4
11220.703125; 1.07095E-4
11226.562500; 1.10419E-4
11232.421875; 1.11389E-4
11238.281250; 1.05200E-4
11244.140625; 9.11590E-5
11250.000000; 1.11501E-4
11255.859375; 1.13798E-4
11261.718750; 1.14932E-4
11267.578125; 1.05244E-4
11273.437500; 1.12195E-4
11279.296875; 1.05356E-4
11285.156250; 1.08050E-4
11291.015625; 1.05285E-4
11296.875000; 1.01577E-4
11302.734375; 1.05267E-4
11308.593750; 1.18751E-4
11314.453125; 1.26258E-4
11320.312500; 1.27895E-4
11326.171875; 1.09142E-4
11332.031250; 1.06957E-4
11337.890625; 9.90003E-5
11343.750000; 9.65965E-5
11349.609375; 9.45460E-5
11355.468750; 9.85032E-5
11361.328125; 1.03604E-4
11367.187500; 1.02830E-4
11373.046875; 1.03746E-4
11378.906250; 1.04730E-4
11384.765625; 9.45585E-5
11390.625000; 9.17264E-5
11396.484375; 1.01013E-4
11402.343750; 9.43706E-5
11408.203125; 1.03133E-4
11414.062500; 1.14854E-4
11419.921875; 1.14076E-4
11425.781250; 1.21084E-4
11431.640625; 1.12031E-4
11437.500000; 1.02521E-4
11443.359375; 1.08870E-4
11449.218750; 1.11181E-4
11455.078125; 1.09079E-4
11460.937500; 1.16976E-4
11466.796875; 1.10345E-4
11472.656250; 1.04675E-4
11478.515625; 9.93391E-5
11484.375000; 9.13092E-5
11490.234375; 9.13377E-5
11496.093750; 9.45125E-5
11501.953125; 1.06020E-4
11507.812500; 1.06072E-4
11513.671875; 9.47942E-5
11519.531250; 1.01169E-4
11525.390625; 1.15968E-4
11531.250000; 1.23378E-4
11537.109375; 1.16577E-4
11542.968750; 9.96935E-5
11548.828125; 1.06283E-4
11554.687500; 1.02764E-4
11560.546875; 9.87482E-5
11566.406250; 1.07290E-4
11572.265625; 1.08654E-4
11578.125000; 1.19730E-4
11583.984375; 1.12857E-4
11589.843750; 1.06365E-4
11595.703125; 1.06523E-4
11601.562500; 1.13470E-4
11607.421875; 1.11593E-4
11613.281250; 1.13378E-4
11619.140625; 1.11734E-4
11625.000000; 9.62084E-5
11630.859375; 9.25589E-5
11636.718750; 9.71698E-5
11642.578125; 1.16108E-4
11648.437500; 1.22650E-4
11654.296875; 1.02013E-4
11660.156250; 1.05115E-4
11666.015625; 9.79854E-5
11671.875000; 1.11282E-4
11677.734375; 1.21351E-4
11683.593750; 1.09569E-4
11689.453125; 1.19262E-4
11695.312500; 1.13963E-4
11701.171875; 1.02370E-4
11707.031250; 1.21710E-4
11712.890625; 1.26640E-4
11718.750000; 1.13461E-4
11724.609375; 1.07150E-4
11730.468750; 1.04801E-4
11736.328125; 1.11548E-4
11742.187500; 1.04478E-4
11748.046875; 9.32405E-5
11753.906250; 1.09535E-4
11759.765625; 1.12747E-4
11765.625000; 1.10489E-4
11771.484375; 1.09226E-4
11777.343750; 1.09814E-4
11783.203125; 1.13445E-4
11789.062500; 1.01692E-4
11794.921875; 9.28070E-5
11800.781250; 1.10195E-4
11806.640625; 1.12074E-4
11812.500000; 8.54018E-5
11818.359375; 8.47735E-5
11824.218750; 9.06124E-5
11830.078125; 1.02834E-4
11835.937500; 1.08524E-4
11841.796875; 1.08483E-4
11847.656250; 1.15243E-4
11853.515625; 1.27937E-4
11859.375000; 1.21368E-4
11865.234375; 1.16758E-4
11871.093750; 1.13706E-4
11876.953125; 1.06039E-4
11882.812500; 9.49079E-5
11888.671875; 1.04823E-4
11894.531250; 1.14835E-4
11900.390625; 1.06968E-4
11906.250000; 9.45713E-5
11912.109375; 1.01080E-4
11917.968750; 1.05964E-4
11923.828125; 1.21326E-4
11929.687500; 1.09766E-4
11935.546875; 1.04150E-4
11941.406250; 1.13354E-4
11947.265625; 1.07363E-4
11953.125000; 1.04381E-4
11958.984375; 1.15056E-4
11964.843750; 1.18791E-4
11970.703125; 1.14444E-4
11976.562500; 1.12955E-4
11982.421875; 1.12338E-4
11988.281250; 1.08164E-4
11994.140625; 1.07571E-4
12000.000000; 1.05180E-4
12005.859375; 1.06526E-4
12011.718750; 1.06810E-4
12017.578125; 1.19915E-4
12023.437500; 1.18061E-4
12029.296875; 1.14894E-4
12035.156250; 1.09863E-4
12041.015625; 1.03505E-4
12046.875000; 1.10387E-4
12052.734375; 1.16136E-4
12058.593750; 1.09636E-4
12064.453125; 1.05816E-4
12070.312500; 9.56257E-5
12076.171875; 9.81451E-5
12082.031250; 1.16500E-4
12087.890625; 1.15409E-4
12093.750000; 9.78398E-5
12099.609375; 9.37465E-5
12105.468750; 9.94810E-5
12111.328125; 1.03334E-4
12117.187500; 1.03745E-4
12123.046875; 1.15330E-4
12128.906250; 1.23859E-4
12134.765625; 1.18673E-4
12140.625000; 1.10071E-4
12146.484375; 1.01089E-4
12152.343750; 9.71332E-5
12158.203125; 1.11744E-4
12164.062500; 1.00452E-4
12169.921875; 9.98562E-5
12175.781250; 9.57762E-5
12181.640625; 1.01615E-4
12187.500000; 1.17153E-4
12193.359375; 1.06951E-4
12199.218750; 9.51702E-5
12205.078125; 9.35733E-5
12210.937500; 1.07024E-4
12216.796875; 1.06381E-4
12222.656250; 1.12902E-4
12228.515625; 1.12488E-4
12234.375000; 9.88843E-5
12240.234375; 9.62864E-5
12246.093750; 1.08889E-4
12251.953125; 1.11404E-4
12257.812500; 9.98199E-5
12263.671875; 1.12722E-4
12269.531250; 1.05757E-4
12275.390625; 9.72290E-5
12281.250000; 1.14311E-4
12287.109375; 1.14797E-4
12292.968750; 1.04432E-4
12298.828125; 9.44082E-5
12304.687500; 1.06403E-4
12310.546875; 1.04377E-4
12316.406250; 9.48119E-5
12322.265625; 1.11029E-4
12328.125000; 1.18496E-4
12333.984375; 1.02927E-4
12339.843750; 1.05642E-4
12345.703125; 1.08491E-4
12351.562500; 1.01861E-4
12357.421875; 1.03629E-4
12363.281250; 1.02018E-4
12369.140625; 1.00152E-4
12375.000000; 1.01824E-4
12380.859375; 9.83446E-5
12386.718750; 9.17525E-5
12392.578125; 1.13980E-4
12398.437500; 1.16000E-4
12404.296875; 1.13648E-4
12410.156250; 1.07149E-4
12416.015625; 9.10526E-5
12421.875000; 1.06608E-4
12427.734375; 1.09982E-4
12433.593750; 1.03323E-4
12439.453125; 1.03655E-4
12445.312500; 1.12824E-4
12451.171875; 1.07117E-4
12457.031250; 1.06991E-4
12462.890625; 1.17717E-4
12468.750000; 1.17328E-4
12474.609375; 1.06558E-4
12480.468750; 1.04580E-4
12486.328125; 1.02126E-4
12492.187500; 9.67500E-5
12498.046875; 1.08634E-4
12503.906250; 1.01967E-4
12509.765625; 1.07423E-4
12515.625000; 1.07296E-4
12521.484375; 1.06945E-4
12527.343750; 1.12259E-4
12533.203125; 1.09293E-4
12539.062500; 1.03075E-4
12544.921875; 1.12806E-4
12550.781250; 1.15715E-4
12556.640625; 1.04119E-4
12562.500000; 9.80348E-5
12568.359375; 1.12627E-4
12574.218750; 1.13229E-4
12580.078125; 1.03831E-4
12585.937500; 9.15672E-5
12591.796875; 9.42895E-5
12597.656250; 8.46097E-5
12603.515625; 9.25564E-5
12609.375000; 9.49985E-5
12615.234375; 1.01648E-4
12621.093750; 1.11444E-4
12626.953125; 1.08945E-4
12632.812500; 1.03529E-4
12638.671875; 1.13551E-4
12644.531250; 9.83183E-5
12650.390625; 9.63954E-5
12656.250000; 1.13661E-4
12662.109375; 1.06731E-4
12667.968750; 1.11779E-4
12673.828125; 1.31457E-4
12679.687500; 1.15800E-4
12685.546875; 1.07399E-4
12691.406250; 1.04349E-4
12697.265625; 1.04783E-4
12703.125000; 1.18355E-4
12708.984375; 1.00954E-4
12714.843750; 1.00428E-4
12720.703125; 1.06989E-4
12726.562500; 1.06761E-4
12732.421875; 1.03739E-4
12738.281250; 1.03138E-4
12744.140625; 1.11983E-4
12750.000000; 1.13416E-4
12755.859375; 1.06877E-4
12761.718750; 9.98266E-5
12767.578125; 1.04633E-4
12773.437500; 1.18248E-4
12779.296875; 1.04643E-4
12785.156250; 1.02768E-4
12791.015625; 1.00640E-4
12796.875000; 9.74117E-5
12802.734375; 1.03014E-4
12808.593750; 9.70803E-5
12814.453125; 1.02004E-4
12820.312500; 1.05455E-4
12826.171875; 1.16184E-4
12832.031250; 1.19879E-4
12837.890625; 1.09014E-4
12843.750000; 1.01230E-4
12849.609375; 1.14700E-4
12855.468750; 1.07394E-4
12861.328125; 1.02045E-4
12867.187500; 1.11725E-4
12873.046875; 1.12861E-4
12878.906250; 1.16594E-4
12884.765625; 1.22876E-4
12890.625000; 1.08367E-4
12896.484375; 9.92777E-5
12902.343750; 1.01600E-4
12908.203125; 9.64569E-5
12914.062500; 1.01831E-4
12919.921875; 9.86354E-5
12925.781250; 8.84962E-5
12931.640625; 9.41215E-5
12937.500000; 1.04215E-4
12943.359375; 1.01152E-4
12949.218750; 1.12062E-4
12955.078125; 1.19207E-4
12960.937500; 9.40459E-5
12966.796875; 1.10350E-4
12972.656250; 1.15489E-4
12978.515625; 1.01240E-4
12984.375000; 1.02321E-4
12990.234375; 1.11079E-4
12996.093750; 1.01656E-4
13001.953125; 1.02976E-4
13007.812500; 1.11878E-4
13013.671875; 1.17751E-4
13019.531250; 1.20658E-4
13025.390625; 1.07332E-4
13031.250000; 8.94056E-5
13037.109375; 1.00325E-4
13042.968750; 1.04542E-4
13048.828125; 1.09573E-4
13054.687500; 1.00464E-4
13060.546875; 9.71943E-5
13066.406250; 1.06870E-4
13072.265625; 1.24164E-4
13078.125000; 1.21360E-4
13083.984375; 1.01318E-4
13089.843750; 1.00979E-4
13095.703125; 1.13727E-4
13101.562500; 1.13427E-4
13107.421875; 1.06240E-4
13113.281250; 1.01658E-4
13119.140625; 1.06148E-4
13125.000000; 1.01147E-4
13130.859375; 9.78448E-5
13136.718750; 1.04634E-4
13142.578125; 1.10689E-4
13148.437500; 1.16200E-4
13154.296875; 1.06797E-4
13160.156250; 1.05758E-4
13166.015625; 1.13600E-4
13171.875000; 1.04679E-4
13177.734375; 1.09791E-4
13183.593750; 1.11995E-4
13189.453125; 1.16782E-4
13195.312500; 1.14151E-4
13201.171875; 1.08045E-4
13207.031250; 1.00876E-4
13212.890625; 1.01338E-4
13218.750000; 1.01311E-4
13224.609375; 1.01485E-4
13230.468750; 9.73302E-5
13236.328125; 1.08084E-4
13242.187500; 1.12543E-4
13248.046875; 1.01839E-4
13253.906250; 9.25829E-5
13259.765625; 9.90404E-5
13265.625000; 1.07605E-4
13271.484375; 9.96244E-5
13277.343750; 1.16119E-4
13283.203125; 1.13441E-4
13289.062500; 1.16125E-4
13294.921875; 1.07567E-4
13300.781250; 9.84577E-5
13306.640625; 1.02561E-4
13312.500000; 1.04597E-4
13318.359375; 1.02817E-4
13324.218750; 1.16737E-4
13330.078125; 1.24844E-4
13335.937500; 1.09708E-4
13341.796875; 9.77090E-5
13347.656250; 1.00036E-4
13353.515625; 1.10367E-4
13359.375000; 1.13888E-4
13365.234375; 1.04030E-4
13371.093750; 9.61119E-5
13376.953125; 9.88250E-5
13382.812500; 1.06633E-4
13388.671875; 9.91361E-5
13394.531250; 1.00052E-4
13400.390625; 1.08533E-4
13406.250000; 1.03447E-4
13412.109375; 9.86507E-5
13417.968750; 9.61228E-5
13423.828125; 1.13323E-4
13429.687500; 9.75294E-5
13435.546875; 1.01627E-4
13441.406250; 1.09692E-4
13447.265625; 1.02899E-4
13453.125000; 1.02371E-4
13458.984375; 1.05754E-4
13464.843750; 1.01736E-4
13470.703125; 1.02546E-4
13476.562500; 1.03846E-4
13482.421875; 1.02561E-4
13488.281250; 1.08820E-4
13494.140625; 1.17740E-4
13500.000000; 1.17509E-4
13505.859375; 1.01927E-4
13511.718750; 1.04012E-4
13517.578125; 1.09983E-4
13523.437500; 1.04755E-4
13529.296875; 9.85513E-5
13535.156250; 1.03074E-4
13541.015625; 1.00390E-4
13546.875000; 1.03531E-4
13552.734375; 9.99359E-5
13558.593750; 1.08290E-4
13564.453125; 1.10082E-4
13570.312500; 1.07710E-4
13576.171875; 1.06360E-4
13582.031250; 9.98389E-5
13587.890625; 9.92143E-5
13593.750000; 9.82790E-5
13599.609375; 1.12203E-4
13605.468750; 1.07568E-4
13611.328125; 9.84782E-5
13617.187500; 9.87065E-5
13623.046875; 1.10937E-4
13628.906250; 1.06088E-4
13634.765625; 9.95751E-5
13640.625000; 1.03027E-4
13646.484375; 9.60725E-5
13652.343750; 1.06759E-4
13658.203125; 9.48899E-5
13664.062500; 9.39742E-5
13669.921875; 1.04888E-4
13675.781250; 9.99887E-5
13681.640625; 9.87322E-5
13687.500000; 1.06371E-4
13693.359375; 1.10049E-4
13699.218750; 1.02077E-4
13705.078125; 1.03172E-4
13710.937500; 1.01249E-4
13716.796875; 1.10189E-4
13722.656250; 1.06115E-4
13728.515625; 9.94681E-5
13734.375000; 1.01642E-4
13740.234375; 9.22867E-5
13746.093750; 1.14495E-4
13751.953125; 1.08802E-4
13757.812500; 1.13621E-4
13763.671875; 1.18698E-4
13769.531250; 1.28591E-4
13775.390625; 1.26700E-4
13781.250000; 1.01420E-4
13787.109375; 1.04262E-4
13792.968750; 9.53573E-5
13798.828125; 8.57589E-5
13804.687500; 9.19205E-5
13810.546875; 1.03078E-4
13816.406250; 1.22476E-4
13822.265625; 1.16023E-4
13828.125000; 9.84231E-5
13833.984375; 1.00990E-4
13839.843750; 1.02451E-4
13845.703125; 1.10842E-4
13851.562500; 1.11080E-4
13857.421875; 1.01215E-4
13863.281250; 1.07953E-4
13869.140625; 1.06154E-4
13875.000000; 9.78000E-5
13880.859375; 9.61651E-5
13886.718750; 9.67978E-5
13892.578125; 9.65519E-5
13898.437500; 9.57084E-5
13904.296875; 9.70318E-5
13910.156250; 1.07558E-4
13916.015625; 1.15623E-4
13921.875000; 1.06597E-4
13927.734375; 1.06739E-4
13933.593750; 1.15192E-4
13939.453125; 1.01856E-4
13945.312500; 1.04246E-4
13951.171875; 1.19394E-4
13957.031250; 1.16162E-4
13962.890625; 1.10140E-4
13968.750000; 1.04082E-4
13974.609375; 1.14775E-4
13980.468750; 1.16935E-4
13986.328125; 1.04797E-4
13992.187500; 1.16610E-4
13998.046875; 1.07496E-4
14003.906250; 9.70081E-5
14009.765625; 1.02235E-4
14015.625000; 9.97008E-5
14021.484375; 1.04655E-4
14027.343750; 1.02523E-4
14033.203125; 1.10458E-4
14039.062500; 1.12824E-4
14044.921875; 1.08608E-4
14050.781250; 1.04689E-4
14056.640625; 1.16644E-4
14062.500000; 1.18919E-4
14068.359375; 1.07489E-4
14074.218750; 9.52383E-5
14080.078125; 9.85695E-5
14085.937500; 1.07491E-4
14091.796875; 1.10475E-4
14097.656250; 1.06166E-4
14103.515625; 9.03857E-5
14109.375000; 9.82011E-5
14115.234375; 9.78337E-5
14121.093750; 1.05358E-4
14126.953125; 1.11510E-4
14132.812500; 1.06020E-4
14138.671875; 1.05341E-4
14144.531250; 1.17746E-4
14150.390625; 1.12224E-4
14156.250000; 1.15974E-4
14162.109375; 1.14231E-4
14167.968750; 1.08432E-4
14173.828125; 1.10343E-4
14179.687500; 1.01298E-4
14185.546875; 1.01597E-4
14191.406250; 1.02422E-4
14197.265625; 1.05783E-4
14203.125000; 1.06987E-4
14208.984375; 9.93353E-5
14214.843750; 1.14461E-4
14220.703125; 1.15885E-4
14226.562500; 1.08578E-4
14232.421875; 1.03111E-4
14238.281250; 1.02370E-4
14244.140625; 1.05757E-4
14250.000000; 1.04128E-4
14255.859375; 1.13287E-4
14261.718750; 1.11133E-4
14267.578125; 1.20117E-4
14273.437500; 1.09228E-4
14279.296875; 9.84184E-5
14285.156250; 9.50507E-5
14291.015625; 1.02061E-4
14296.875000; 1.12579E-4
14302.734375; 1.04594E-4
14308.593750; 9.47948E-5
14314.453125; 1.03040E-4
14320.312500; 1.05911E-4
14326.171875; 1.00690E-4
14332.031250; 1.05766E-4
14337.890625; 1.13005E-4
14343.750000; 1.14905E-4
14349.609375; 1.04232E-4
14355.468750; 1.06883E-4
14361.328125; 1.12414E-4
14367.187500; 1.00614E-4
14373.046875; 9.16873E-5
14378.906250; 1.01880E-4
14384.765625; 1.11769E-4
14390.625000; 1.03713E-4
14396.484375; 1.07787E-4
14402.343750; 1.11964E-4
14408.203125; 1.13065E-4
14414.062500; 1.09527E-4
14419.921875; 1.07026E-4
14425.781250; 1.01976E-4
14431.640625; 9.79474E-5
14437.500000; 1.01634E-4
14443.359375; 9.11489E-5
14449.218750; 1.00382E-4
14455.078125; 1.00669E-4
14460.937500; 9.11352E-5
14466.796875; 9.34858E-5
14472.656250; 1.05204E-4
14478.515625; 1.07599E-4
14484.375000; 1.06975E-4
14490.234375; 9.58712E-5
14496.093750; 8.31775E-5
14501.953125; 1.15289E-4
14507.812500; 1.12316E-4
14513.671875; 1.12933E-4
14519.531250; 1.12445E-4
14525.390625; 1.06222E-4
14531.250000; 1.08760E-4
14537.109375; 1.05792E-4
14542.968750; 1.05349E-4
14548.828125; 1.16377E-4
14554.687500; 1.07377E-4
14560.546875; 1.10198E-4
14566.406250; 1.19574E-4
14572.265625; 1.19715E-4
14578.125000; 9.47737E-5
14583.984375; 8.47582E-5
14589.843750; 1.08036E-4
14595.703125; 1.07513E-4
14601.562500; 1.00320E-4
14607.421875; 1.02071E-4
14613.281250; 9.77178E-5
14619.140625; 1.03382E-4
14625.000000; 1.06162E-4
14630.859375; 9.93810E-5
14636.718750; 1.10819E-4
14642.578125; 1.13923E-4
14648.437500; 1.01713E-4
14654.296875; 1.03763E-4
14660.156250; 1.05781E-4
14666.015625; 1.13446E-4
14671.875000; 1.14306E-4
14677.734375; 1.06354E-4
14683.593750; 1.11249E-4
14689.453125; 1.09929E-4
14695.312500; 1.05102E-4
14701.171875; 1.00607E-4
14707.031250; 1.06183E-4
14712.890625; 1.17179E-4
14718.750000; 1.22920E-4
14724.609375; 1.15362E-4
14730.468750; 1.04305E-4
14736.328125; 1.04452E-4
14742.187500; 1.03072E-4
14748.046875; 1.21704E-4
14753.906250; 1.14748E-4
14759.765625; 9.95680E-5
14765.625000; 9.22654E-5
14771.484375; 1.01518E-4
14777.343750; 1.11492E-4
14783.203125; 1.18127E-4
14789.062500; 1.03082E-4
14794.921875; 9.88290E-5
14800.781250; 1.06637E-4
14806.640625; 1.08890E-4
14812.500000; 1.13641E-4
14818.359375; 1.10216E-4
14824.218750; 9.49668E-5
14830.078125; 9.59318E-5
14835.937500; 1.08023E-4
14841.796875; 1.03616E-4
14847.656250; 1.24873E-4
14853.515625; 1.25633E-4
14859.375000; 1.12073E-4
14865.234375; 1.10943E-4
14871.093750; 9.29647E-5
14876.953125; 9.63048E-5
14882.812500; 1.03830E-4
14888.671875; 1.17946E-4
14894.531250; 1.17811E-4
14900.390625; 1.12349E-4
14906.250000; 1.09695E-4
14912.109375; 1.10484E-4
14917.968750; 1.15097E-4
14923.828125; 1.05419E-4
14929.687500; 9.48533E-5
14935.546875; 1.11684E-4
14941.406250; 1.02063E-4
14947.265625; 9.64419E-5
14953.125000; 1.03522E-4
14958.984375; 1.05823E-4
14964.843750; 1.15079E-4
14970.703125; 1.08569E-4
14976.562500; 9.90694E-5
14982.421875; 1.02228E-4
14988.281250; 1.04501E-4
14994.140625; 1.01420E-4
15000.000000; 1.00649E-4
15005.859375; 1.08355E-4
15011.718750; 1.08694E-4
15017.578125; 1.06334E-4
15023.437500; 1.02683E-4
15029.296875; 1.05811E-4
15035.156250; 9.43656E-5
15041.015625; 8.92596E-5
15046.875000; 9.70969E-5
15052.734375; 1.04577E-4
15058.593750; 1.00646E-4
15064.453125; 1.06861E-4
15070.312500; 1.17914E-4
15076.171875; 1.01217E-4
15082.031250; 9.75492E-5
15087.890625; 9.60559E-5
15093.750000; 8.71623E-5
15099.609375; 9.24584E-5
15105.468750; 9.76327E-5
15111.328125; 1.04159E-4
15117.187500; 1.05340E-4
15123.046875; 1.14022E-4
15128.906250; 1.08086E-4
15134.765625; 9.03068E-5
15140.625000; 9.48435E-5
15146.484375; 1.05899E-4
15152.343750; 1.01309E-4
15158.203125; 8.94622E-5
15164.062500; 9.45742E-5
15169.921875; 9.67029E-5
15175.781250; 9.37209E-5
15181.640625; 1.01059E-4
15187.500000; 1.01744E-4
15193.359375; 1.03536E-4
15199.218750; 1.03266E-4
15205.078125; 1.00700E-4
15210.937500; 1.01295E-4
15216.796875; 1.06935E-4
15222.656250; 1.07157E-4
15228.515625; 1.08109E-4
15234.375000; 1.10310E-4
15240.234375; 1.09480E-4
15246.093750; 1.10052E-4
15251.953125; 1.06634E-4
15257.812500; 1.22404E-4
15263.671875; 1.18710E-4
15269.531250; 1.12427E-4
15275.390625; 1.06047E-4
15281.250000; 1.06035E-4
15287.109375; 1.01382E-4
15292.968750; 9.68550E-5
15298.828125; 1.00170E-4
15304.687500; 1.06840E-4
15310.546875; 1.09583E-4
15316.406250; 9.82501E-5
15322.265625; 9.46222E-5
15328.125000; 1.04330E-4
15333.984375; 1.06729E-4
15339.843750; 1.09287E-4
15345.703125; 9.32640E-5
15351.562500; 9.12552E-5
15357.421875; 1.02771E-4
15363.281250; 1.02984E-4
15369.140625; 9.87619E-5
15375.000000; 1.12743E-4
15380.859375; 1.09414E-4
15386.718750; 1.19363E-4
15392.578125; 1.07103E-4
15398.437500; 9.12269E-5
15404.296875; 1.00221E-4
15410.156250; 1.12836E-4
15416.015625; 1.10734E-4
15421.875000; 1.01046E-4
15427.734375; 9.85313E-5
15433.593750; 1.02874E-4
15439.453125; 9.59132E-5
15445.312500; 8.89982E-5
15451.171875; 9.47919E-5
15457.031250; 9.88635E-5
15462.890625; 1.05706E-4
15468.750000; 1.06248E-4
15474.609375; 1.08638E-4
15480.468750; 9.91866E-5
15486.328125; 1.08063E-4
15492.187500; 1.09652E-4
15498.046875; 1.02090E-4
15503.906250; 1.00954E-4
15509.765625; 1.05214E-4
15515.625000; 1.07314E-4
15521.484375; 1.01601E-4
15527.343750; 8.86051E-5
15533.203125; 8.63127E-5
15539.062500; 9.76248E-5
15544.921875; 1.03410E-4
15550.781250; 1.14540E-4
15556.640625; 1.11999E-4
15562.500000; 9.98444E-5
15568.359375; 1.04408E-4
15574.218750; 1.03024E-4
15580.078125; 1.08380E-4
15585.937500; 1.07859E-4
15591.796875; 1.00676E-4
15597.656250; 1.03422E-4
15603.515625; 1.03717E-4
15609.375000; 1.05024E-4
15615.234375; 1.05139E-4
15621.093750; 1.11508E-4
15626.953125; 1.20225E-4
15632.812500; 1.12806E-4
15638.671875; 1.04104E-4
15644.531250; 1.03738E-4
15650.390625; 1.16862E-4
15656.250000; 1.12201E-4
15662.109375; 9.93256E-5
15667.968750; 9.24199E-5
15673.828125; 9.74339E-5
15679.687500; 1.11819E-4
15685.546875; 1.13939E-4
15691.406250; 9.75815E-5
15697.265625; 1.01013E-4
15703.125000; 1.04384E-4
15708.984375; 1.22115E-4
15714.843750; 1.05425E-4
15720.703125; 1.02605E-4
15726.562500; 1.10500E-4
15732.421875; 1.14949E-4
15738.281250; 1.08483E-4
15744.140625; 1.00424E-4
15750.000000; 1.07491E-4
15755.859375; 1.19748E-4
15761.718750; 1.20606E-4
15767.578125; 1.01466E-4
15773.437500; 1.00865E-4
15779.296875; 8.76213E-5
15785.156250; 9.58653E-5
15791.015625; 9.79316E-5
15796.875000; 1.13154E-4
15802.734375; 1.00725E-4
15808.593750; 1.02865E-4
15814.453125; 9.94368E-5
15820.312500; 9.95259E-5
15826.171875; 1.02273E-4
15832.031250; 9.75827E-5
15837.890625; 9.35670E-5
15843.750000; 1.10090E-4
15849.609375; 1.09394E-4
15855.468750; 1.10936E-4
15861.328125; 1.09874E-4
15867.187500; 9.76776E-5
15873.046875; 9.92541E-5
15878.906250; 1.10820E-4
15884.765625; 1.07987E-4
15890.625000; 9.87865E-5
15896.484375; 1.03814E-4
15902.343750; 1.03286E-4
15908.203125; 1.09157E-4
15914.062500; 1.00019E-4
15919.921875; 1.08025E-4
15925.781250; 1.13559E-4
15931.640625; 1.07219E-4
15937.500000; 1.03534E-4
15943.359375; 9.64366E-5
15949.218750; 1.06837E-4
15955.078125; 1.10226E-4
15960.937500; 9.87767E-5
15966.796875; 9.78837E-5
15972.656250; 1.00538E-4
15978.515625; 1.10054E-4
15984.375000; 1.05499E-4
15990.234375; 1.14774E-4
15996.093750; 1.20225E-4
16001.953125; 1.10931E-4
16007.812500; 9.71709E-5
16013.671875; 1.00326E-4
16019.531250; 9.78243E-5
16025.390625; 1.03780E-4
16031.250000; 9.89755E-5
16037.109375; 9.98182E-5
16042.968750; 1.01601E-4
16048.828125; 1.04276E-4
16054.687500; 1.06603E-4
16060.546875; 1.08858E-4
16066.406250; 1.06317E-4
16072.265625; 9.90234E-5
16078.125000; 8.91668E-5
16083.984375; 9.57733E-5
16089.843750; 1.07836E-4
16095.703125; 1.05453E-4
16101.562500; 1.08410E-4
16107.421875; 1.10231E-4
16113.281250; 1.07270E-4
16119.140625; 1.04434E-4
16125.000000; 9.02268E-5
16130.859375; 9.54802E-5
16136.718750; 1.17138E-4
16142.578125; 9.68945E-5
16148.437500; 9.15344E-5
16154.296875; 9.40455E-5
16160.156250; 1.06281E-4
16166.015625; 1.13073E-4
16171.875000; 9.99953E-5
16177.734375; 1.04934E-4
16183.593750; 1.12882E-4
16189.453125; 1.21921E-4
16195.312500; 1.13505E-4
16201.171875; 1.08467E-4
16207.031250; 1.03829E-4
16212.890625; 1.09594E-4
16218.750000; 1.11342E-4
16224.609375; 9.90512E-5
16230.468750; 9.93900E-5
16236.328125; 1.01360E-4
16242.187500; 1.06209E-4
16248.046875; 9.65618E-5
16253.906250; 1.02647E-4
16259.765625; 1.09572E-4
16265.625000; 1.22957E-4
16271.484375; 1.02669E-4
16277.343750; 9.63347E-5
16283.203125; 9.27541E-5
16289.062500; 9.55236E-5
16294.921875; 9.16061E-5
16300.781250; 1.05557E-4
16306.640625; 9.84373E-5
16312.500000; 1.02066E-4
16318.359375; 1.00338E-4
16324.218750; 1.06487E-4
16330.078125; 1.11617E-4
16335.937500; 9.78868E-5
16341.796875; 9.22624E-5
16347.656250; 1.01751E-4
16353.515625; 1.01944E-4
16359.375000; 1.01503E-4
16365.234375; 9.77394E-5
16371.093750; 1.06527E-4
16376.953125; 1.03751E-4
16382.812500; 1.09085E-4
16388.671875; 1.10183E-4
16394.531250; 8.20506E-5
16400.390625; 8.57927E-5
16406.250000; 1.01055E-4
16412.109375; 1.09125E-4
16417.968750; 1.10583E-4
16423.828125; 1.10023E-4
16429.687500; 1.09710E-4
16435.546875; 1.01207E-4
16441.406250; 9.80625E-5
16447.265625; 1.04021E-4
16453.125000; 1.07957E-4
16458.984375; 1.17317E-4
16464.843750; 1.09208E-4
16470.703125; 1.04925E-4
16476.562500; 9.76061E-5
16482.421875; 1.05807E-4
16488.281250; 1.11752E-4
16494.140625; 1.13030E-4
16500.000000; 1.06950E-4
16505.859375; 1.01562E-4
16511.718750; 1.03613E-4
16517.578125; 1.10267E-4
16523.437500; 1.05222E-4
16529.296875; 9.36682E-5
16535.156250; 1.00677E-4
16541.015625; 1.07161E-4
16546.875000; 1.08403E-4
16552.734375; 1.05875E-4
16558.593750; 1.10438E-4
16564.453125; 1.10610E-4
16570.312500; 1.10266E-4
16576.171875; 1.14741E-4
16582.031250; 1.04633E-4
16587.890625; 9.93987E-5
16593.750000; 9.17431E-5
16599.609375; 9.49310E-5
16605.468750; 1.05794E-4
16611.328125; 1.04608E-4
16617.187500; 9.66506E-5
16623.046875; 9.71082E-5
16628.906250; 9.97114E-5
16634.765625; 9.64811E-5
16640.625000; 1.06635E-4
16646.484375; 1.07574E-4
16652.343750; 1.13703E-4
16658.203125; 1.03358E-4
16664.062500; 1.08056E-4
16669.921875; 1.09332E-4
16675.781250; 1.20203E-4
16681.640625; 1.13564E-4
16687.500000; 1.12359E-4
16693.359375; 1.06367E-4
16699.218750; 9.33438E-5
16705.078125; 1.04558E-4
16710.937500; 1.05860E-4
16716.796875; 1.01885E-4
16722.656250; 1.10747E-4
16728.515625; 9.89507E-5
16734.375000; 9.25830E-5
16740.234375; 1.06018E-4
16746.093750; 1.12455E-4
16751.953125; 1.08169E-4
16757.812500; 1.05548E-4
16763.671875; 1.13026E-4
16769.531250; 1.10427E-4
16775.390625; 1.05924E-4
16781.250000; 9.76203E-5
16787.109375; 1.02624E-4
16792.968750; 1.01899E-4
16798.828125; 1.10690E-4
16804.687500; 1.04591E-4
16810.546875; 1.09057E-4
16816.406250; 1.07559E-4
16822.265625; 9.57849E-5
16828.125000; 9.89190E-5
16833.984375; 1.05804E-4
16839.843750; 1.07206E-4
16845.703125; 1.04273E-4
16851.562500; 1.01674E-4
16857.421875; 9.76803E-5
16863.281250; 9.58296E-5
16869.140625; 1.00642E-4
16875.000000; 1.08470E-4
16880.859375; 1.08048E-4
16886.718750; 1.06083E-4
16892.578125; 1.01244E-4
16898.437500; 9.87773E-5
16904.296875; 9.76006E-5
16910.156250; 9.65113E-5
16916.015625; 1.04441E-4
16921.875000; 1.06810E-4
16927.734375; 1.10630E-4
16933.593750; 1.04964E-4
16939.453125; 9.99150E-5
16945.312500; 1.05228E-4
16951.171875; 1.01050E-4
16957.031250; 9.95791E-5
16962.890625; 1.05727E-4
16968.750000; 1.04977E-4
16974.609375; 1.04320E-4
16980.468750; 1.05984E-4
16986.328125; 1.07837E-4
16992.187500; 1.17073E-4
16998.046875; 1.08616E-4
17003.906250; 9.01607E-5
17009.765625; 9.19939E-5
17015.625000; 1.00867E-4
17021.484375; 1.01986E-4
17027.343750; 1.08861E-4
17033.203125; 1.11707E-4
17039.062500; 1.13420E-4
17044.921875; 1.13858E-4
17050.781250; 1.05425E-4
17056.640625; 1.08463E-4
17062.500000; 1.07425E-4
17068.359375; 9.53127E-5
17074.218750; 1.03840E-4
17080.078125; 1.02955E-4
17085.937500; 1.00420E-4
17091.796875; 1.16610E-4
17097.656250; 1.07361E-4
17103.515625; 1.04842E-4
17109.375000; 9.73446E-5
17115.234375; 9.89554E-5
17121.093750; 1.22471E-4
17126.953125; 1.12870E-4
17132.812500; 9.86601E-5
17138.671875; 9.67549E-5
17144.531250; 1.11127E-4
17150.390625; 1.03328E-4
17156.250000; 1.01660E-4
17162.109375; 1.18177E-4
17167.968750; 1.19941E-4
17173.828125; 9.74487E-5
17179.687500; 9.76277E-5
17185.546875; 1.09372E-4
17191.406250; 1.10551E-4
17197.265625; 1.12562E-4
17203.125000; 1.13016E-4
17208.984375; 1.01517E-4
17214.843750; 9.37613E-5
17220.703125; 1.02343E-4
17226.562500; 1.05071E-4
17232.421875; 1.15312E-4
17238.281250; 1.01962E-4
17244.140625; 1.03438E-4
17250.000000; 1.06874E-4
17255.859375; 1.07194E-4
17261.718750; 9.94878E-5
17267.578125; 9.87848E-5
17273.437500; 1.08765E-4
17279.296875; 1.01205E-4
17285.156250; 1.02345E-4
17291.015625; 1.01293E-4
17296.875000; 1.09255E-4
17302.734375; 1.04218E-4
17308.593750; 1.12093E-4
17314.453125; 1.05239E-4
17320.312500; 1.10967E-4
17326.171875; 1.05108E-4
17332.031250; 9.49778E-5
17337.890625; 1.10536E-4
17343.750000; 1.17122E-4
17349.609375; 1.13406E-4
17355.468750; 1.16939E-4
17361.328125; 1.25744E-4
17367.187500; 1.12292E-4
17373.046875; 1.18668E-4
17378.906250; 1.14881E-4
17384.765625; 1.18229E-4
17390.625000; 1.14505E-4
17396.484375; 1.02735E-4
17402.343750; 1.04259E-4
17408.203125; 1.05288E-4
17414.062500; 1.02685E-4
17419.921875; 1.07213E-4
17425.781250; 1.07305E-4
17431.640625; 1.04757E-4
17437.500000; 1.08773E-4
17443.359375; 1.15290E-4
17449.218750; 1.28456E-4
17455.078125; 1.17275E-4
17460.937500; 1.09694E-4
17466.796875; 9.17442E-5
17472.656250; 1.01886E-4
17478.515625; 1.11835E-4
17484.375000; 9.81485E-5
17490.234375; 9.98425E-5
17496.093750; 9.66888E-5
17501.953125; 1.04385E-4
17507.812500; 1.06776E-4
17513.671875; 9.26492E-5
17519.531250; 1.05248E-4
17525.390625; 1.20631E-4
17531.250000; 1.18022E-4
17537.109375; 1.06528E-4
17542.968750; 1.15730E-4
17548.828125; 1.11513E-4
17554.687500; 9.62989E-5
17560.546875; 9.79430E-5
17566.406250; 1.04856E-4
17572.265625; 1.12088E-4
17578.125000; 1.08295E-4
17583.984375; 1.06979E-4
17589.843750; 1.06469E-4
17595.703125; 1.12578E-4
17601.562500; 1.03422E-4
17607.421875; 8.39907E-5
17613.281250; 8.92092E-5
17619.140625; 1.02566E-4
17625.000000; 1.04783E-4
17630.859375; 1.03944E-4
17636.718750; 1.11360E-4
17642.578125; 1.08102E-4
17648.437500; 1.02985E-4
17654.296875; 1.03540E-4
17660.156250; 1.01407E-4
17666.015625; 1.07424E-4
17671.875000; 1.10826E-4
17677.734375; 1.06226E-4
17683.593750; 1.07223E-4
17689.453125; 9.47227E-5
17695.312500; 9.81058E-5
17701.171875; 9.77657E-5
17707.031250; 1.12181E-4
17712.890625; 1.10301E-4
17718.750000; 1.05731E-4
17724.609375; 1.00623E-4
17730.468750; 9.85176E-5
17736.328125; 1.06234E-4
17742.187500; 1.04319E-4
17748.046875; 1.00441E-4
17753.906250; 9.54648E-5
17759.765625; 1.02008E-4
17765.625000; 1.07955E-4
17771.484375; 1.19251E-4
17777.343750; 1.17559E-4
17783.203125; 1.06803E-4
17789.062500; 1.00976E-4
17794.921875; 1.04454E-4
17800.781250; 1.02079E-4
17806.640625; 9.33696E-5
17812.500000; 8.26747E-5
17818.359375; 1.06124E-4
17824.218750; 1.23841E-4
17830.078125; 1.12618E-4
17835.937500; 9.56906E-5
17841.796875; 9.12865E-5
17847.656250; 1.05533E-4
17853.515625; 9.67374E-5
17859.375000; 8.44236E-5
17865.234375; 8.50630E-5
17871.093750; 1.06691E-4
17876.953125; 1.21645E-4
17882.812500; 1.17389E-4
17888.671875; 9.45076E-5
17894.531250; 9.30670E-5
17900.390625; 9.88570E-5
17906.250000; 1.14474E-4
17912.109375; 1.25746E-4
17917.968750; 1.14606E-4
17923.828125; 1.02398E-4
17929.687500; 1.03055E-4
17935.546875; 1.12555E-4
17941.406250; 1.09065E-4
17947.265625; 1.03071E-4
17953.125000; 9.92237E-5
17958.984375; 9.92026E-5
17964.843750; 9.85430E-5
17970.703125; 9.80198E-5
17976.562500; 1.07173E-4
17982.421875; 1.16367E-4
17988.281250; 1.04514E-4
17994.140625; 9.31539E-5
18000.000000; 1.05007E-4
18005.859375; 1.11221E-4
18011.718750; 1.20737E-4
18017.578125; 1.22511E-4
18023.437500; 1.10763E-4
18029.296875; 1.08943E-4
18035.156250; 1.09522E-4
18041.015625; 1.05261E-4
18046.875000; 1.16187E-4
18052.734375; 1.12440E-4
18058.593750; 1.03687E-4
18064.453125; 1.08862E-4
18070.312500; 1.08376E-4
18076.171875; 1.04666E-4
18082.031250; 1.12442E-4
18087.890625; 9.58525E-5
18093.750000; 9.54909E-5
18099.609375; 1.11852E-4
18105.468750; 1.11126E-4
18111.328125; 1.07359E-4
18117.187500; 9.69521E-5
18123.046875; 8.76138E-5
18128.906250; 9.35601E-5
18134.765625; 1.07926E-4
18140.625000; 9.38869E-5
18146.484375; 1.04673E-4
18152.343750; 1.09665E-4
18158.203125; 1.09177E-4
18164.062500; 1.02172E-4
18169.921875; 9.34185E-5
18175.781250; 1.01489E-4
18181.640625; 9.71654E-5
18187.500000; 9.29993E-5
18193.359375; 9.35438E-5
18199.218750; 1.08908E-4
18205.078125; 9.74990E-5
18210.937500; 8.87559E-5
18216.796875; 9.50154E-5
18222.656250; 9.84803E-5
18228.515625; 1.03686E-4
18234.375000; 1.07905E-4
18240.234375; 1.17640E-4
18246.093750; 1.06605E-4
18251.953125; 1.04746E-4
18257.812500; 9.92028E-5
18263.671875; 9.44311E-5
18269.531250; 9.27235E-5
18275.390625; 9.15239E-5
18281.250000; 1.07290E-4
18287.109375; 1.11542E-4
18292.968750; 1.12582E-4
18298.828125; 1.17306E-4
18304.687500; 1.03012E-4
18310.546875; 1.07787E-4
18316.406250; 1.01434E-4
18322.265625; 9.57217E-5
18328.125000; 1.02271E-4
18333.984375; 1.11127E-4
18339.843750; 1.08514E-4
18345.703125; 1.00270E-4
18351.562500; 1.10366E-4
18357.421875; 1.04232E-4
18363.281250; 1.22125E-4
18369.140625; 1.17050E-4
18375.000000; 1.11560E-4
18380.859375; 1.03451E-4
18386.718750; 1.06681E-4
18392.578125; 9.31312E-5
18398.437500; 9.89450E-5
18404.296875; 1.08413E-4
18410.156250; 9.84532E-5
18416.015625; 1.00495E-4
18421.875000; 1.01804E-4
18427.734375; 9.90510E-5
18433.593750; 1.06339E-4
18439.453125; 1.07735E-4
18445.312500; 1.05044E-4
18451.171875; 1.00813E-4
18457.031250; 1.00814E-4
18462.890625; 1.09685E-4
18468.750000; 9.58300E-5
18474.609375; 1.01468E-4
18480.468750; 1.08506E-4
18486.328125; 1.16705E-4
18492.187500; 1.16953E-4
18498.046875; 1.17045E-4
18503.906250; 9.96050E-5
18509.765625; 1.07140E-4
18515.625000; 1.08140E-4
18521.484375; 1.02057E-4
18527.343750; 1.07586E-4
18533.203125; 1.08393E-4
18539.062500; 9.73344E-5
18544.921875; 1.04321E-4
18550.781250; 9.59276E-5
18556.640625; 1.02612E-4
18562.500000; 9.38944E-5
18568.359375; 9.15362E-5
18574.218750; 9.99689E-5
18580.078125; 1.00826E-4
18585.937500; 8.87495E-5
18591.796875; 9.99574E-5
18597.656250; 8.99590E-5
18603.515625; 9.13185E-5
18609.375000; 9.27791E-5
18615.234375; 1.09282E-4
18621.093750; 1.07623E-4
18626.953125; 1.00132E-4
18632.812500; 9.58964E-5
18638.671875; 9.61939E-5
18644.531250; 1.02008E-4
18650.390625; 1.07968E-4
18656.250000; 1.17497E-4
18662.109375; 1.13838E-4
18667.968750; 1.14441E-4
18673.828125; 1.13847E-4
18679.687500; 1.07201E-4
18685.546875; 1.03548E-4
18691.406250; 1.03530E-4
18697.265625; 1.01423E-4
18703.125000; 9.18501E-5
18708.984375; 1.00921E-4
18714.843750; 1.09626E-4
18720.703125; 1.19750E-4
18726.562500; 1.10104E-4
18732.421875; 1.03630E-4
18738.281250; 1.00390E-4
18744.140625; 9.42715E-5
18750.000000; 1.05648E-4
18755.859375; 1.07193E-4
18761.718750; 1.13078E-4
18767.578125; 1.05446E-4
18773.437500; 1.02841E-4
18779.296875; 1.03209E-4
18785.156250; 1.02455E-4
18791.015625; 1.16239E-4
18796.875000; 1.19064E-4
18802.734375; 1.11724E-4
18808.593750; 1.14603E-4
18814.453125; 1.07213E-4
18820.312500; 1.02291E-4
18826.171875; 9.94573E-5
18832.031250; 9.62833E-5
18837.890625; 9.43465E-5
18843.750000; 1.02992E-4
18849.609375; 9.98133E-5
18855.468750; 1.03355E-4
18861.328125; 1.11833E-4
18867.187500; 1.10817E-4
18873.046875; 1.05479E-4
18878.906250; 1.02369E-4
18884.765625; 1.11787E-4
18890.625000; 1.00495E-4
18896.484375; 1.06868E-4
18902.343750; 1.02057E-4
18908.203125; 1.07654E-4
18914.062500; 9.70063E-5
18919.921875; 9.60734E-5
18925.781250; 9.49640E-5
18931.640625; 9.40552E-5
18937.500000; 9.56021E-5
18943.359375; 8.97313E-5
18949.218750; 1.12590E-4
18955.078125; 1.14471E-4
18960.937500; 1.13762E-4
18966.796875; 1.05347E-4
18972.656250; 1.12347E-4
18978.515625; 1.12205E-4
18984.375000; 1.11137E-4
18990.234375; 1.09063E-4
18996.093750; 1.02381E-4
19001.953125; 9.97474E-5
19007.812500; 9.88084E-5
19013.671875; 9.85630E-5
19019.531250; 9.92450E-5
19025.390625; 1.15208E-4
19031.250000; 1.16070E-4
19037.109375; 1.08700E-4
19042.968750; 8.97932E-5
19048.828125; 9.06216E-5
19054.687500; 1.07017E-4
19060.546875; 1.04590E-4
19066.406250; 9.74562E-5
19072.265625; 9.41132E-5
19078.125000; 1.09127E-4
19083.984375; 1.06920E-4
19089.843750; 1.09078E-4
19095.703125; 9.98129E-5
19101.562500; 1.05047E-4
19107.421875; 1.06599E-4
19113.281250; 1.00284E-4
19119.140625; 1.02908E-4
19125.000000; 1.00658E-4
19130.859375; 1.03133E-4
19136.718750; 1.13405E-4
19142.578125; 1.06823E-4
19148.437500; 9.63988E-5
19154.296875; 1.02816E-4
19160.156250; 1.16085E-4
19166.015625; 1.09457E-4
19171.875000; 9.77989E-5
19177.734375; 9.57241E-5
19183.593750; 9.52865E-5
19189.453125; 9.34382E-5
19195.312500; 9.46033E-5
19201.171875; 1.09475E-4
19207.031250; 1.01047E-4
19212.890625; 8.76320E-5
19218.750000; 1.00467E-4
19224.609375; 1.04393E-4
19230.468750; 1.09965E-4
19236.328125; 1.00109E-4
19242.187500; 1.02223E-4
19248.046875; 1.03696E-4
19253.906250; 1.04230E-4
19259.765625; 1.07453E-4
19265.625000; 1.04283E-4
19271.484375; 1.06653E-4
19277.343750; 1.06405E-4
19283.203125; 1.11438E-4
19289.062500; 1.11183E-4
19294.921875; 1.01065E-4
19300.781250; 1.00727E-4
19306.640625; 9.77727E-5
19312.500000; 8.57930E-5
19318.359375; 9.82428E-5
19324.218750; 1.04887E-4
19330.078125; 1.06652E-4
19335.937500; 1.08413E-4
19341.796875; 1.07236E-4
19347.656250; 1.08643E-4
19353.515625; 1.17682E-4
19359.375000; 1.10339E-4
19365.234375; 9.76158E-5
19371.093750; 1.01916E-4
19376.953125; 8.58123E-5
19382.812500; 8.55297E-5
19388.671875; 1.01768E-4
19394.531250; 1.11788E-4
19400.390625; 1.11301E-4
19406.250000; 1.15048E-4
19412.109375; 9.45557E-5
19417.968750; 9.71815E-5
19423.828125; 9.74890E-5
19429.687500; 9.84526E-5
19435.546875; 9.81736E-5
19441.406250; 1.05743E-4
19447.265625; 9.81480E-5
19453.125000; 1.04239E-4
19458.984375; 1.01796E-4
19464.843750; 9.80271E-5
19470.703125; 1.04405E-4
19476.562500; 1.06441E-4
19482.421875; 1.13067E-4
19488.281250; 1.12045E-4
19494.140625; 1.03426E-4
19500.000000; 9.74371E-5
19505.859375; 1.01939E-4
19511.718750; 9.49027E-5
19517.578125; 9.69049E-5
19523.437500; 1.01420E-4
19529.296875; 9.73873E-5
19535.156250; 1.05587E-4
19541.015625; 1.00449E-4
19546.875000; 1.04091E-4
19552.734375; 1.19425E-4
19558.593750; 1.07874E-4
19564.453125; 1.09049E-4
19570.312500; 1.00256E-4
19576.171875; 1.11543E-4
19582.031250; 1.22219E-4
19587.890625; 1.16382E-4
19593.750000; 1.05783E-4
19599.609375; 1.06717E-4
19605.468750; 1.05972E-4
19611.328125; 1.11870E-4
19617.187500; 1.19754E-4
19623.046875; 1.07107E-4
19628.906250; 8.90752E-5
19634.765625; 9.49028E-5
19640.625000; 1.05466E-4
19646.484375; 9.96809E-5
19652.343750; 9.38326E-5
19658.203125; 9.92788E-5
19664.062500; 1.09887E-4
19669.921875; 1.18815E-4
19675.781250; 1.04045E-4
19681.640625; 1.03144E-4
19687.500000; 1.02372E-4
19693.359375; 9.96957E-5
19699.218750; 9.91797E-5
19705.078125; 9.63667E-5
19710.937500; 1.00914E-4
19716.796875; 1.01196E-4
19722.656250; 8.82270E-5
19728.515625; 9.96445E-5
19734.375000; 1.12011E-4
19740.234375; 1.13208E-4
19746.093750; 1.10614E-4
19751.953125; 1.06982E-4
19757.812500; 1.11156E-4
19763.671875; 1.08465E-4
19769.531250; 9.88697E-5
19775.390625; 9.24481E-5
19781.250000; 1.06172E-4
19787.109375; 1.08047E-4
19792.968750; 9.72144E-5
19798.828125; 9.85630E-5
19804.687500; 1.02648E-4
19810.546875; 1.08774E-4
19816.406250; 1.11635E-4
19822.265625; 1.06868E-4
19828.125000; 1.10992E-4
19833.984375; 1.00616E-4
19839.843750; 1.05528E-4
19845.703125; 1.14588E-4
19851.562500; 1.00178E-4
19857.421875; 9.99228E-5
19863.281250; 1.05674E-4
19869.140625; 1.16452E-4
19875.000000; 1.14606E-4
19880.859375; 1.06897E-4
19886.718750; 9.64862E-5
19892.578125; 9.92311E-5
19898.437500; 9.85058E-5
19904.296875; 1.06995E-4
19910.156250; 1.10109E-4
19916.015625; 1.05096E-4
19921.875000; 9.94565E-5
19927.734375; 1.04332E-4
19933.593750; 9.46081E-5
19939.453125; 9.65199E-5
19945.312500; 9.08990E-5
19951.171875; 1.00129E-4
19957.031250; 9.88330E-5
19962.890625; 8.70080E-5
19968.750000; 8.91840E-5
19974.609375; 9.65013E-5
19980.468750; 1.04910E-4
19986.328125; 1.01114E-4
19992.187500; 1.02664E-4
19998.046875; 1.00250E-4
20003.906250; 1.07853E-4
20009.765625; 1.04509E-4
20015.625000; 1.02868E-4
20021.484375; 1.11133E-4
20027.343750; 1.11109E-4
20033.203125; 1.00930E-4
20039.062500; 9.68138E-5
20044.921875; 1.15059E-4
20050.781250; 1.09801E-4
20056.640625; 9.60094E-5
20062.500000; 9.27224E-5
20068.359375; 1.02709E-4
20074.218750; 1.08888E-4
20080.078125; 1.03986E-4
20085.937500; 1.01058E-4
20091.796875; 9.37095E-5
20097.656250; 9.51769E-5
20103.515625; 1.02872E-4
20109.375000; 1.09593E-4
20115.234375; 1.16410E-4
20121.093750; 1.04980E-4
20126.953125; 1.05684E-4
20132.812500; 1.07058E-4
20138.671875; 1.14523E-4
20144.531250; 1.14595E-4
20150.390625; 1.12690E-4
20156.250000; 1.09356E-4
20162.109375; 1.00416E-4
20167.968750; 9.63549E-5
20173.828125; 1.00237E-4
20179.687500; 9.90311E-5
20185.546875; 1.06992E-4
20191.406250; 1.01744E-4
20197.265625; 1.00779E-4
20203.125000; 9.40577E-5
20208.984375; 9.78774E-5
20214.843750; 1.00362E-4
20220.703125; 9.94614E-5
20226.562500; 9.52893E-5
20232.421875; 9.99507E-5
20238.281250; 9.87921E-5
20244.140625; 1.09483E-4
20250.000000; 1.02711E-4
20255.859375; 9.57131E-5
20261.718750; 1.04503E-4
20267.578125; 1.10814E-4
20273.437500; 1.07844E-4
20279.296875; 1.02945E-4
20285.156250; 1.11138E-4
20291.015625; 1.10776E-4
20296.875000; 1.00492E-4
20302.734375; 9.37734E-5
20308.593750; 1.00753E-4
20314.453125; 1.04921E-4
20320.312500; 1.03802E-4
20326.171875; 9.88891E-5
20332.031250; 1.00864E-4
20337.890625; 1.00947E-4
20343.750000; 1.07979E-4
20349.609375; 1.06604E-4
20355.468750; 1.02871E-4
20361.328125; 1.05305E-4
20367.187500; 1.05003E-4
20373.046875; 1.04133E-4
20378.906250; 1.11440E-4
20384.765625; 1.18932E-4
20390.625000; 1.03744E-4
20396.484375; 1.03285E-4
20402.343750; 9.93578E-5
20408.203125; 1.02552E-4
20414.062500; 1.08893E-4
20419.921875; 1.01490E-4
20425.781250; 9.70737E-5
20431.640625; 1.02931E-4
20437.500000; 1.05825E-4
20443.359375; 9.87207E-5
20449.218750; 1.04812E-4
20455.078125; 1.00661E-4
20460.937500; 1.01986E-4
20466.796875; 1.03964E-4
20472.656250; 1.16737E-4
20478.515625; 1.13825E-4
20484.375000; 1.11482E-4
20490.234375; 1.01908E-4
20496.093750; 1.13243E-4
20501.953125; 1.04383E-4
20507.812500; 1.01922E-4
20513.671875; 1.07122E-4
20519.531250; 1.06782E-4
20525.390625; 9.93034E-5
20531.250000; 9.04357E-5
20537.109375; 1.07694E-4
20542.968750; 1.01340E-4
20548.828125; 1.05417E-4
20554.687500; 1.04302E-4
20560.546875; 1.07380E-4
20566.406250; 1.21439E-4
20572.265625; 1.09866E-4
20578.125000; 1.07058E-4
20583.984375; 1.08778E-4
20589.843750; 1.10611E-4
20595.703125; 1.13561E-4
20601.562500; 1.02170E-4
20607.421875; 9.81617E-5
20613.281250; 1.03013E-4
20619.140625; 9.24312E-5
20625.000000; 1.06887E-4
20630.859375; 1.10494E-4
20636.718750; 1.05683E-4
20642.578125; 1.02390E-4
20648.437500; 1.01112E-4
20654.296875; 1.03152E-4
20660.156250; 1.03023E-4
20666.015625; 1.03718E-4
20671.875000; 9.08598E-5
20677.734375; 9.14263E-5
20683.593750; 9.90476E-5
20689.453125; 1.00650E-4
20695.312500; 1.10555E-4
20701.171875; 9.92675E-5
20707.031250; 1.01057E-4
20712.890625; 1.07108E-4
20718.750000; 1.02492E-4
20724.609375; 1.07601E-4
20730.468750; 1.11635E-4
20736.328125; 1.07523E-4
20742.187500; 1.05716E-4
20748.046875; 1.09139E-4
20753.906250; 1.00988E-4
20759.765625; 9.43310E-5
20765.625000; 9.59524E-5
20771.484375; 9.37308E-5
20777.343750; 1.01141E-4
20783.203125; 1.03489E-4
20789.062500; 9.90446E-5
20794.921875; 1.06586E-4
20800.781250; 1.09630E-4
20806.640625; 1.18528E-4
20812.500000; 1.09985E-4
20818.359375; 9.55868E-5
20824.218750; 8.86475E-5
20830.078125; 9.94217E-5
20835.937500; 1.06674E-4
20841.796875; 1.08231E-4
20847.656250; 1.05200E-4
20853.515625; 1.09046E-4
20859.375000; 9.85688E-5
20865.234375; 9.93809E-5
20871.093750; 9.55648E-5
20876.953125; 9.81516E-5
20882.812500; 1.08912E-4
20888.671875; 9.54268E-5
20894.531250; 1.08272E-4
20900.390625; 1.06435E-4
20906.250000; 1.02640E-4
20912.109375; 9.51011E-5
20917.968750; 1.00594E-4
20923.828125; 1.05171E-4
20929.687500; 1.05065E-4
20935.546875; 1.10545E-4
20941.406250; 9.59873E-5
20947.265625; 9.92516E-5
20953.125000; 1.01204E-4
20958.984375; 1.04151E-4
20964.843750; 1.07970E-4
20970.703125; 1.04923E-4
20976.562500; 1.08531E-4
20982.421875; 9.96874E-5
20988.281250; 9.90736E-5
20994.140625; 1.01963E-4
21000.000000; 9.81867E-5
21005.859375; 1.00363E-4
21011.718750; 1.07693E-4
21017.578125; 1.07454E-4
21023.437500; 1.04099E-4
21029.296875; 1.13344E-4
21035.156250; 1.06090E-4
21041.015625; 9.94183E-5
21046.875000; 1.14043E-4
21052.734375; 1.05736E-4
21058.593750; 9.89281E-5
21064.453125; 1.04855E-4
21070.312500; 1.12055E-4
21076.171875; 1.09458E-4
21082.031250; 1.02348E-4
21087.890625; 9.79972E-5
21093.750000; 1.02283E-4
21099.609375; 1.12997E-4
21105.468750; 9.85669E-5
21111.328125; 1.02111E-4
21117.187500; 1.03833E-4
21123.046875; 9.98447E-5
21128.906250; 1.06389E-4
21134.765625; 1.04616E-4
21140.625000; 9.28874E-5
21146.484375; 1.01042E-4
21152.343750; 9.58956E-5
21158.203125; 1.00053E-4
21164.062500; 1.06673E-4
21169.921875; 1.13622E-4
21175.781250; 1.10841E-4
21181.640625; 1.17232E-4
21187.500000; 1.03656E-4
21193.359375; 9.06383E-5
21199.218750; 9.03245E-5
21205.078125; 8.73857E-5
21210.937500; 9.45071E-5
21216.796875; 9.65273E-5
21222.656250; 9.72677E-5
21228.515625; 1.05712E-4
21234.375000; 1.04468E-4
21240.234375; 1.10804E-4
21246.093750; 1.07246E-4
21251.953125; 9.88988E-5
21257.812500; 1.12623E-4
21263.671875; 1.12106E-4
21269.531250; 1.05785E-4
21275.390625; 1.09750E-4
21281.250000; 1.10074E-4
21287.109375; 9.94485E-5
21292.968750; 1.01750E-4
21298.828125; 9.83022E-5
21304.687500; 9.46262E-5
21310.546875; 9.44300E-5
21316.406250; 1.05261E-4
21322.265625; 1.11326E-4
21328.125000; 1.06937E-4
21333.984375; 9.98536E-5
21339.843750; 1.00039E-4
21345.703125; 9.43138E-5
21351.562500; 8.89468E-5
21357.421875; 9.49538E-5
21363.281250; 1.07084E-4
21369.140625; 1.10033E-4
21375.000000; 1.02942E-4
21380.859375; 9.38989E-5
21386.718750; 9.91002E-5
21392.578125; 9.54287E-5
21398.437500; 1.00707E-4
21404.296875; 1.05185E-4
21410.156250; 1.10276E-4
21416.015625; 1.02765E-4
21421.875000; 1.00075E-4
21427.734375; 9.45569E-5
21433.593750; 9.09567E-5
21439.453125; 9.54497E-5
21445.312500; 9.95737E-5
21451.171875; 1.06763E-4
21457.031250; 9.10340E-5
21462.890625; 9.50989E-5
21468.750000; 1.04685E-4
21474.609375; 1.00170E-4
21480.468750; 9.16121E-5
21486.328125; 9.97758E-5
21492.187500; 1.02706E-4
21498.046875; 9.67925E-5
21503.906250; 9.83774E-5
21509.765625; 1.01256E-4
21515.625000; 1.04459E-4
21521.484375; 1.05025E-4
21527.343750; 1.08203E-4
21533.203125; 1.04675E-4
21539.062500; 1.01648E-4
21544.921875; 9.84770E-5
21550.781250; 1.01906E-4
21556.640625; 9.22220E-5
21562.500000; 8.15711E-5
21568.359375; 9.11983E-5
21574.218750; 1.01822E-4
21580.078125; 1.02836E-4
21585.937500; 1.00764E-4
21591.796875; 1.04057E-4
21597.656250; 1.03734E-4
21603.515625; 1.04841E-4
21609.375000; 9.93530E-5
21615.234375; 1.10872E-4
21621.093750; 1.11304E-4
21626.953125; 1.14932E-4
21632.812500; 1.11934E-4
21638.671875; 9.72677E-5
21644.531250; 9.52811E-5
21650.390625; 8.97943E-5
21656.250000; 9.21201E-5
21662.109375; 9.68630E-5
21667.968750; 1.11337E-4
21673.828125; 1.13540E-4
21679.687500; 9.95277E-5
21685.546875; 9.07220E-5
21691.406250; 8.93964E-5
21697.265625; 9.57493E-5
21703.125000; 9.22503E-5
21708.984375; 9.88503E-5
21714.843750; 9.95091E-5
21720.703125; 1.09402E-4
21726.562500; 1.03133E-4
21732.421875; 9.18990E-5
21738.281250; 1.10342E-4
21744.140625; 1.03597E-4
21750.000000; 9.87889E-5
21755.859375; 1.01330E-4
21761.718750; 1.10614E-4
21767.578125; 1.07277E-4
21773.437500; 1.00371E-4
21779.296875; 1.05378E-4
21785.156250; 1.04234E-4
21791.015625; 1.12513E-4
21796.875000; 9.72494E-5
21802.734375; 1.01814E-4
21808.593750; 1.04469E-4
21814.453125; 1.05242E-4
21820.312500; 1.02798E-4
21826.171875; 1.05702E-4
21832.031250; 9.76812E-5
21837.890625; 9.48206E-5
21843.750000; 9.92863E-5
21849.609375; 1.04568E-4
21855.468750; 1.07081E-4
21861.328125; 1.02336E-4
21867.187500; 1.02761E-4
21873.046875; 1.02356E-4
21878.906250; 1.08475E-4
21884.765625; 1.01690E-4
21890.625000; 9.41639E-5
21896.484375; 1.03234E-4
21902.343750; 9.95462E-5
21908.203125; 1.11555E-4
21914.062500; 1.10011E-4
21919.921875; 9.63205E-5
21925.781250; 8.68687E-5
21931.640625; 1.01558E-4
21937.500000; 1.00861E-4
21943.359375; 9.74408E-5
21949.218750; 1.04124E-4
21955.078125; 1.03917E-4
21960.937500; 1.12966E-4
21966.796875; 1.12339E-4
21972.656250; 1.01683E-4
21978.515625; 9.43200E-5
21984.375000; 1.00755E-4
21990.234375; 9.89294E-5
21996.093750; 1.00835E-4
22001.953125; 1.02504E-4
22007.812500; 9.36991E-5
22013.671875; 1.00796E-4
22019.531250; 1.09301E-4
22025.390625; 1.06642E-4
22031.250000; 1.08108E-4
22037.109375; 1.08306E-4
22042.968750; 9.96370E-5
22048.828125; 1.04278E-4
22054.687500; 1.06575E-4
22060.546875; 1.08071E-4
22066.406250; 1.02870E-4
22072.265625; 1.04691E-4
22078.125000; 1.10248E-4
22083.984375; 1.13553E-4
22089.843750; 1.00326E-4
22095.703125; 1.00719E-4
22101.562500; 1.09067E-4
22107.421875; 1.06120E-4
22113.281250; 1.07774E-4
22119.140625; 9.86412E-5
22125.000000; 1.07778E-4
22130.859375; 1.03504E-4
22136.718750; 9.76603E-5
22142.578125; 1.00764E-4
22148.437500; 1.14220E-4
22154.296875; 1.12019E-4
22160.156250; 1.06099E-4
22166.015625; 1.06313E-4
22171.875000; 1.08546E-4
22177.734375; 9.40961E-5
22183.593750; 8.54939E-5
22189.453125; 9.31149E-5
22195.312500; 1.03670E-4
22201.171875; 9.88304E-5
22207.031250; 9.34243E-5
22212.890625; 9.74588E-5
22218.750000; 1.05298E-4
22224.609375; 1.01201E-4
22230.468750; 9.46411E-5
22236.328125; 8.90773E-5
22242.187500; 9.53404E-5
22248.046875; 8.80681E-5
22253.906250; 1.13071E-4
22259.765625; 1.01568E-4
22265.625000; 1.00338E-4
22271.484375; 1.17507E-4
22277.343750; 1.09795E-4
22283.203125; 1.04586E-4
22289.062500; 1.05448E-4
22294.921875; 1.05083E-4
22300.781250; 9.97892E-5
22306.640625; 1.01351E-4
22312.500000; 9.63562E-5
22318.359375; 9.95560E-5
22324.218750; 1.10516E-4
22330.078125; 1.02732E-4
22335.937500; 9.67083E-5
22341.796875; 1.05432E-4
22347.656250; 1.02199E-4
22353.515625; 1.00733E-4
22359.375000; 1.06881E-4
22365.234375; 1.01455E-4
22371.093750; 1.01872E-4
22376.953125; 9.94296E-5
22382.812500; 9.25980E-5
22388.671875; 9.81819E-5
22394.531250; 9.75959E-5
22400.390625; 9.75878E-5
22406.250000; 1.12565E-4
22412.109375; 9.78625E-5
22417.968750; 1.09683E-4
22423.828125; 9.64493E-5
22429.687500; 7.59730E-5
22435.546875; 8.28015E-5
22441.406250; 1.02492E-4
22447.265625; 1.04711E-4
22453.125000; 1.11300E-4
22458.984375; 1.10860E-4
22464.843750; 1.15656E-4
22470.703125; 9.71567E-5
22476.562500; 9.54015E-5
22482.421875; 9.69437E-5
22488.281250; 9.19784E-5
22494.140625; 9.22771E-5
22500.000000; 9.50504E-5
22505.859375; 9.91734E-5
22511.718750; 9.83428E-5
22517.578125; 9.41500E-5
22523.437500; 9.14968E-5
22529.296875; 8.93201E-5
22535.156250; 1.02694E-4
22541.015625; 9.64262E-5
22546.875000; 8.96285E-5
22552.734375; 1.03751E-4
22558.593750; 1.03127E-4
22564.453125; 9.99866E-5
22570.312500; 9.45984E-5
22576.171875; 1.07826E-4
22582.031250; 1.03830E-4
22587.890625; 9.48180E-5
22593.750000; 1.06925E-4
22599.609375; 9.42338E-5
22605.468750; 9.68528E-5
22611.328125; 9.72784E-5
22617.187500; 8.42881E-5
22623.046875; 8.50264E-5
22628.906250; 8.78800E-5
22634.765625; 8.72831E-5
22640.625000; 9.62666E-5
22646.484375; 8.17057E-5
22652.343750; 8.44392E-5
22658.203125; 9.25551E-5
22664.062500; 8.87506E-5
22669.921875; 9.20479E-5
22675.781250; 8.94617E-5
22681.640625; 8.84586E-5
22687.500000; 8.86019E-5
22693.359375; 8.19469E-5
22699.218750; 8.04760E-5
22705.078125; 9.00904E-5
22710.937500; 8.95920E-5
22716.796875; 8.93742E-5
22722.656250; 9.50928E-5
22728.515625; 9.86370E-5
22734.375000; 9.39720E-5
22740.234375; 9.13978E-5
22746.093750; 8.86445E-5
22751.953125; 8.14494E-5
22757.812500; 9.26095E-5
22763.671875; 9.30602E-5
22769.531250; 9.41637E-5
22775.390625; 1.00657E-4
22781.250000; 9.08908E-5
22787.109375; 9.40170E-5
22792.968750; 9.06172E-5
22798.828125; 9.20578E-5
22804.687500; 8.94679E-5
22810.546875; 8.93162E-5
22816.406250; 8.99575E-5
22822.265625; 8.46828E-5
22828.125000; 8.95964E-5
22833.984375; 8.62874E-5
22839.843750; 8.46872E-5
22845.703125; 8.39309E-5
22851.562500; 8.76299E-5
22857.421875; 7.93045E-5
22863.281250; 8.28557E-5
22869.140625; 8.60824E-5
22875.000000; 8.74999E-5
22880.859375; 8.46727E-5
22886.718750; 8.86643E-5
22892.578125; 9.45707E-5
22898.437500; 8.85103E-5
22904.296875; 8.22606E-5
22910.156250; 8.53328E-5
22916.015625; 7.34175E-5
22921.875000; 7.17016E-5
22927.734375; 7.91977E-5
22933.593750; 8.19919E-5
22939.453125; 8.10497E-5
22945.312500; 8.07591E-5
22951.171875; 8.16827E-5
22957.031250; 9.04079E-5
22962.890625; 8.27557E-5
22968.750000; 7.72470E-5
22974.609375; 8.26752E-5
22980.468750; 7.76890E-5
22986.328125; 7.64867E-5
22992.187500; 8.44624E-5
22998.046875; 7.71094E-5
23003.906250; 7.35836E-5
23009.765625; 6.86354E-5
23015.625000; 7.52339E-5
23021.484375; 8.02457E-5
23027.343750; 8.29040E-5
23033.203125; 7.24851E-5
23039.062500; 6.54763E-5
23044.921875; 7.64252E-5
23050.781250; 7.98820E-5
23056.640625; 7.52099E-5
23062.500000; 8.17199E-5
23068.359375; 8.06623E-5
23074.218750; 7.56890E-5
23080.078125; 7.47558E-5
23085.937500; 6.52745E-5
23091.796875; 7.41325E-5
23097.656250; 7.98932E-5
23103.515625; 6.87620E-5
23109.375000; 8.14289E-5
23115.234375; 7.78975E-5
23121.093750; 6.99732E-5
23126.953125; 7.32510E-5
23132.812500; 7.40405E-5
23138.671875; 7.36105E-5
23144.531250; 6.49625E-5
23150.390625; 5.66183E-5
23156.250000; 6.39090E-5
23162.109375; 7.19033E-5
23167.968750; 6.49081E-5
23173.828125; 7.22299E-5
23179.687500; 7.45249E-5
23185.546875; 6.87690E-5
23191.406250; 6.71758E-5
23197.265625; 7.16795E-5
23203.125000; 6.68898E-5
23208.984375; 6.41979E-5
23214.843750; 6.58282E-5
23220.703125; 6.25192E-5
23226.562500; 6.90249E-5
23232.421875; 7.03311E-5
23238.281250; 6.66180E-5
23244.140625; 6.59302E-5
23250.000000; 6.67744E-5
23255.859375; 6.21692E-5
23261.718750; 6.31932E-5
23267.578125; 6.10853E-5
23273.437500; 6.20376E-5
23279.296875; 6.70551E-5
23285.156250; 6.25491E-5
23291.015625; 5.82180E-5
23296.875000; 6.14723E-5
23302.734375; 6.74353E-5
23308.593750; 6.88957E-5
23314.453125; 5.92594E-5
23320.312500; 6.81124E-5
23326.171875; 6.80499E-5
23332.031250; 6.08885E-5
23337.890625; 5.74021E-5
23343.750000; 6.59947E-5
23349.609375; 6.80624E-5
23355.468750; 5.71550E-5
23361.328125; 5.76489E-5
23367.187500; 5.70451E-5
23373.046875; 5.60061E-5
23378.906250; 5.71101E-5
23384.765625; 5.61644E-5
23390.625000; 5.80381E-5
23396.484375; 5.55134E-5
23402.343750; 5.54321E-5
23408.203125; 6.10472E-5
23414.062500; 5.38868E-5
23419.921875; 5.00010E-5
23425.781250; 5.34479E-5
23431.640625; 5.57412E-5
23437.500000; 5.36908E-5
23443.359375; 5.18612E-5
23449.218750; 5.14893E-5
23455.078125; 4.94225E-5
23460.937500; 5.26612E-5
23466.796875; 5.67110E-5
23472.656250; 4.79820E-5
23478.515625; 4.62626E-5
23484.375000; 5.23504E-5
23490.234375; 5.08814E-5
23496.093750; 4.98484E-5
23501.953125; 4.76626E-5
23507.812500; 4.90288E-5
23513.671875; 4.98667E-5
23519.531250; 4.93464E-5
23525.390625; 5.57291E-5
23531.250000; 5.48448E-5
23537.109375; 5.45460E-5
23542.968750; 5.26460E-5
23548.828125; 4.98337E-5
23554.687500; 4.96495E-5
23560.546875; 4.83718E-5
23566.406250; 4.73480E-5
23572.265625; 4.69249E-5
23578.125000; 4.79348E-5
23583.984375; 5.03765E-5
23589.843750; 4.53108E-5
23595.703125; 4.49650E-5
23601.562500; 4.21469E-5
23607.421875; 4.20543E-5
23613.281250; 4.47876E-5
23619.140625; 4.40845E-5
23625.000000; 4.50707E-5
23630.859375; 5.14757E-5
23636.718750; 4.46193E-5
23642.578125; 4.20726E-5
23648.437500; 4.54614E-5
23654.296875; 4.14988E-5
23660.156250; 3.96216E-5
23666.015625; 3.79627E-5
23671.875000; 4.26850E-5
23677.734375; 4.92915E-5
23683.593750; 4.95671E-5
23689.453125; 4.23861E-5
23695.312500; 4.18039E-5
23701.171875; 4.07952E-5
23707.031250; 3.89149E-5
23712.890625; 3.93895E-5
23718.750000; 3.94850E-5
23724.609375; 4.05199E-5
23730.468750; 4.16978E-5
23736.328125; 3.79987E-5
23742.187500; 3.92617E-5
23748.046875; 3.98667E-5
23753.906250; 4.54033E-5
23759.765625; 4.61495E-5
23765.625000; 3.83496E-5
23771.484375; 3.77846E-5
23777.343750; 3.88414E-5
23783.203125; 3.63077E-5
23789.062500; 3.74657E-5
23794.921875; 3.63739E-5
23800.781250; 4.11086E-5
23806.640625; 4.17516E-5
23812.500000; 3.98970E-5
23818.359375; 3.78393E-5
23824.218750; 3.56911E-5
23830.078125; 3.84261E-5
23835.937500; 3.67800E-5
23841.796875; 3.22043E-5
23847.656250; 3.69544E-5
23853.515625; 3.70643E-5
23859.375000; 3.32606E-5
23865.234375; 3.59424E-5
23871.093750; 3.98620E-5
23876.953125; 3.84162E-5
23882.812500; 3.87399E-5
23888.671875; 3.65150E-5
23894.531250; 3.42124E-5
23900.390625; 3.59344E-5
23906.250000; 3.91742E-5
23912.109375; 3.63383E-5
23917.968750; 3.56704E-5
23923.828125; 3.60878E-5
23929.687500; 3.69162E-5
23935.546875; 3.78275E-5
23941.406250; 3.38139E-5
23947.265625; 3.42224E-5
23953.125000; 3.35132E-5
23958.984375; 3.70581E-5
23964.843750; 3.70651E-5
23970.703125; 3.56732E-5
23976.562500; 3.46446E-5
23982.421875; 4.01004E-5
23988.281250; 4.03756E-5
23994.140625; 3.59710E-5
