* Measurement data measured by REW V5.31.3
* Source: PCM: default, no input selected, 2, volume: no control
* Format: 8192-point spectrum using Hann window and exponential averaging 0.97 
* Dated: Mar 9, 2025 1:21:43 PM
* REW Settings:
*  C-weighting compensation: Off
*  Target level: 75.0 dB
* Note: OSDEHA MU-OUTPUT; 8192-point spectrum using Hann window and exponential averaging 0.97  Input RMS 2.371 V 2.371 VC, 2.371 VA 2.371 V 22 - 22k UNW 941.8 uV >22k Distortion at 1,000.0 Hz, -32.50 dBFS: Gain: 29.68 dB THD: 0.021 % based on 21 harmonics  [0..22800 Hz] HHD: 0.016 %  [10 .. 22] N: 0.59 %  [0..22800 Hz] N+D: 4.376 mV A THD+N: 0.59 %  [0..22800 Hz] SNR: 44.5 dB ENOB: 13.0 bits 2nd harmonic 0.0052 % 140 deg 3rd harmonic 0.0049 % 76 deg 4th harmonic 0.0047 % 155 deg 5th harmonic 0.0046 % 147 deg 6th harmonic 0.0046 % -122 deg 7th harmonic 0.0047 % -79 deg 8th harmonic 0.0045 % 140 deg 9th harmonic 0.0048 % 146 deg 
* Measurement: OSDEHA MU-OUT 2.37V
* Smoothing: None
* Frequency Step: 5.859375 Hz
* Start Frequency: 5.859375 Hz
*
* Freq(Hz); V(V)
5.859375; 1.76951E-4
11.718750; 2.10291E-4
17.578125; 2.07627E-4
23.437500; 1.94140E-4
29.296875; 1.97691E-4
35.156250; 2.00801E-4
41.015625; 1.85961E-4
46.875000; 3.25436E-4
52.734375; 3.23076E-4
58.593750; 1.73098E-4
64.453125; 1.72221E-4
70.312500; 1.46549E-4
76.171875; 1.54350E-4
82.031250; 1.59158E-4
87.890625; 2.00387E-4
93.750000; 5.81812E-3
99.609375; 1.28857E-2
105.468750; 7.09737E-3
111.328125; 2.08287E-4
117.187500; 1.48355E-4
123.046875; 1.54302E-4
128.906250; 1.38793E-4
134.765625; 1.25480E-4
140.625000; 1.27420E-4
146.484375; 1.40815E-4
152.343750; 1.48070E-4
158.203125; 1.48730E-4
164.062500; 1.47621E-4
169.921875; 1.54220E-4
175.781250; 1.47440E-4
181.640625; 1.49910E-4
187.500000; 1.40544E-4
193.359375; 5.87979E-4
199.218750; 1.38717E-3
205.078125; 8.50612E-4
210.937500; 1.32277E-4
216.796875; 1.31127E-4
222.656250; 1.32924E-4
228.515625; 1.31467E-4
234.375000; 1.40586E-4
240.234375; 1.33644E-4
246.093750; 1.28370E-4
251.953125; 1.46201E-4
257.812500; 1.34831E-4
263.671875; 1.30626E-4
269.531250; 1.30883E-4
275.390625; 1.13946E-4
281.250000; 1.21367E-4
287.109375; 1.37187E-4
292.968750; 1.88173E-4
298.828125; 3.29601E-4
304.687500; 2.44559E-4
310.546875; 1.47667E-4
316.406250; 1.40766E-4
322.265625; 1.24050E-4
328.125000; 1.17261E-4
333.984375; 1.17430E-4
339.843750; 1.28299E-4
345.703125; 1.30858E-4
351.562500; 1.23469E-4
357.421875; 1.32111E-4
363.281250; 1.38380E-4
369.140625; 1.21312E-4
375.000000; 1.26117E-4
380.859375; 1.28540E-4
386.718750; 1.33813E-4
392.578125; 1.56666E-4
398.437500; 2.68899E-4
404.296875; 2.18850E-4
410.156250; 1.31785E-4
416.015625; 1.18520E-4
421.875000; 1.19217E-4
427.734375; 1.15316E-4
433.593750; 1.12969E-4
439.453125; 1.21794E-4
445.312500; 1.30181E-4
451.171875; 1.42816E-4
457.031250; 1.43723E-4
462.890625; 1.32078E-4
468.750000; 1.39529E-4
474.609375; 1.37027E-4
480.468750; 1.18478E-4
486.328125; 1.20649E-4
492.187500; 1.15270E-4
498.046875; 1.22217E-4
503.906250; 1.16418E-4
509.765625; 1.07713E-4
515.625000; 1.12304E-4
521.484375; 1.23171E-4
527.343750; 1.32393E-4
533.203125; 1.24729E-4
539.062500; 1.09668E-4
544.921875; 1.27084E-4
550.781250; 1.13432E-4
556.640625; 1.07453E-4
562.500000; 1.19075E-4
568.359375; 1.15945E-4
574.218750; 1.14206E-4
580.078125; 1.18760E-4
585.937500; 1.17921E-4
591.796875; 1.19771E-4
597.656250; 1.41743E-4
603.515625; 1.36279E-4
609.375000; 1.13959E-4
615.234375; 1.09873E-4
621.093750; 1.08181E-4
626.953125; 1.16908E-4
632.812500; 1.16053E-4
638.671875; 1.20604E-4
644.531250; 1.22117E-4
650.390625; 1.21649E-4
656.250000; 1.22857E-4
662.109375; 1.29616E-4
667.968750; 1.25512E-4
673.828125; 1.25101E-4
679.687500; 1.18807E-4
685.546875; 1.30318E-4
691.406250; 1.28245E-4
697.265625; 1.23112E-4
703.125000; 1.12739E-4
708.984375; 1.08550E-4
714.843750; 9.98338E-5
720.703125; 1.11252E-4
726.562500; 1.20297E-4
732.421875; 1.18453E-4
738.281250; 1.21559E-4
744.140625; 1.16060E-4
750.000000; 1.05837E-4
755.859375; 1.08118E-4
761.718750; 1.11886E-4
767.578125; 1.28115E-4
773.437500; 1.30653E-4
779.296875; 1.35415E-4
785.156250; 1.22993E-4
791.015625; 1.19155E-4
796.875000; 1.19749E-4
802.734375; 1.24122E-4
808.593750; 1.30999E-4
814.453125; 1.16089E-4
820.312500; 1.23128E-4
826.171875; 1.15712E-4
832.031250; 1.18063E-4
837.890625; 1.20667E-4
843.750000; 1.13900E-4
849.609375; 1.22786E-4
855.468750; 1.25464E-4
861.328125; 1.35578E-4
867.187500; 1.29731E-4
873.046875; 1.29906E-4
878.906250; 1.22875E-4
884.765625; 1.53223E-4
890.625000; 1.74998E-4
896.484375; 1.81267E-4
902.343750; 1.80521E-4
908.203125; 2.01172E-4
914.062500; 2.53370E-4
919.921875; 2.79794E-4
925.781250; 3.30205E-4
931.640625; 4.30796E-4
937.500000; 5.73919E-4
943.359375; 7.22897E-4
949.218750; 1.02595E-3
955.078125; 1.48955E-3
960.937500; 2.25502E-3
966.796875; 3.71466E-3
972.656250; 6.72558E-3
978.515625; 1.43308E-2
984.375000; 4.01057E-2
990.234375; 2.20550E-1
996.093750; 1.76445E0
1001.953125; 2.20556E0
1007.812500; 6.30159E-1
1013.671875; 6.30206E-2
1019.531250; 1.93877E-2
1025.390625; 8.48250E-3
1031.250000; 4.46790E-3
1037.109375; 2.63767E-3
1042.968750; 1.68832E-3
1048.828125; 1.16489E-3
1054.687500; 8.12470E-4
1060.546875; 6.08717E-4
1066.406250; 4.64894E-4
1072.265625; 3.87656E-4
1078.125000; 2.85566E-4
1083.984375; 2.53981E-4
1089.843750; 2.18920E-4
1095.703125; 1.80038E-4
1101.562500; 1.76101E-4
1107.421875; 1.48989E-4
1113.281250; 1.35365E-4
1119.140625; 1.48491E-4
1125.000000; 1.31317E-4
1130.859375; 1.22074E-4
1136.718750; 1.20383E-4
1142.578125; 1.11819E-4
1148.437500; 1.28751E-4
1154.296875; 1.22835E-4
1160.156250; 1.13873E-4
1166.015625; 1.25625E-4
1171.875000; 1.24455E-4
1177.734375; 1.32865E-4
1183.593750; 1.25741E-4
1189.453125; 1.24749E-4
1195.312500; 1.26445E-4
1201.171875; 1.13614E-4
1207.031250; 1.05973E-4
1212.890625; 1.15103E-4
1218.750000; 1.19391E-4
1224.609375; 1.09506E-4
1230.468750; 1.11906E-4
1236.328125; 1.09559E-4
1242.187500; 9.91618E-5
1248.046875; 1.30983E-4
1253.906250; 1.24109E-4
1259.765625; 1.00137E-4
1265.625000; 1.01318E-4
1271.484375; 1.17170E-4
1277.343750; 1.26144E-4
1283.203125; 1.24872E-4
1289.062500; 1.09561E-4
1294.921875; 1.09706E-4
1300.781250; 9.70864E-5
1306.640625; 1.04400E-4
1312.500000; 1.00185E-4
1318.359375; 1.14041E-4
1324.218750; 1.21032E-4
1330.078125; 1.14852E-4
1335.937500; 1.05136E-4
1341.796875; 1.17195E-4
1347.656250; 1.19215E-4
1353.515625; 1.08676E-4
1359.375000; 1.11074E-4
1365.234375; 1.27717E-4
1371.093750; 1.23582E-4
1376.953125; 1.18404E-4
1382.812500; 1.11869E-4
1388.671875; 1.07042E-4
1394.531250; 1.00168E-4
1400.390625; 1.04333E-4
1406.250000; 1.13740E-4
1412.109375; 1.17869E-4
1417.968750; 1.21646E-4
1423.828125; 1.22288E-4
1429.687500; 1.21828E-4
1435.546875; 1.10478E-4
1441.406250; 1.06459E-4
1447.265625; 1.25703E-4
1453.125000; 1.19972E-4
1458.984375; 1.13390E-4
1464.843750; 1.29890E-4
1470.703125; 1.20300E-4
1476.562500; 9.57757E-5
1482.421875; 1.08975E-4
1488.281250; 1.07683E-4
1494.140625; 1.01747E-4
1500.000000; 1.04826E-4
1505.859375; 1.07688E-4
1511.718750; 1.07410E-4
1517.578125; 1.04721E-4
1523.437500; 1.18181E-4
1529.296875; 1.13863E-4
1535.156250; 1.16849E-4
1541.015625; 1.09539E-4
1546.875000; 1.04648E-4
1552.734375; 1.13452E-4
1558.593750; 1.03254E-4
1564.453125; 9.06153E-5
1570.312500; 1.12264E-4
1576.171875; 1.15934E-4
1582.031250; 1.21277E-4
1587.890625; 1.22144E-4
1593.750000; 1.25954E-4
1599.609375; 1.32008E-4
1605.468750; 1.18351E-4
1611.328125; 1.14072E-4
1617.187500; 1.19369E-4
1623.046875; 1.21478E-4
1628.906250; 1.14411E-4
1634.765625; 1.06045E-4
1640.625000; 1.03104E-4
1646.484375; 1.07955E-4
1652.343750; 1.22208E-4
1658.203125; 1.23808E-4
1664.062500; 1.14732E-4
1669.921875; 1.13604E-4
1675.781250; 1.14986E-4
1681.640625; 1.05926E-4
1687.500000; 1.16543E-4
1693.359375; 1.19978E-4
1699.218750; 1.02527E-4
1705.078125; 9.97596E-5
1710.937500; 9.73323E-5
1716.796875; 9.25225E-5
1722.656250; 9.89061E-5
1728.515625; 1.11509E-4
1734.375000; 1.16523E-4
1740.234375; 1.12920E-4
1746.093750; 1.09241E-4
1751.953125; 1.14248E-4
1757.812500; 1.22278E-4
1763.671875; 1.14630E-4
1769.531250; 1.10585E-4
1775.390625; 1.15428E-4
1781.250000; 1.17856E-4
1787.109375; 1.07033E-4
1792.968750; 1.08897E-4
1798.828125; 1.08378E-4
1804.687500; 1.07728E-4
1810.546875; 1.16797E-4
1816.406250; 1.14201E-4
1822.265625; 1.19494E-4
1828.125000; 1.25128E-4
1833.984375; 1.23822E-4
1839.843750; 1.08934E-4
1845.703125; 1.05190E-4
1851.562500; 1.16827E-4
1857.421875; 1.20417E-4
1863.281250; 1.11654E-4
1869.140625; 1.11833E-4
1875.000000; 1.22066E-4
1880.859375; 1.05265E-4
1886.718750; 1.18439E-4
1892.578125; 1.20451E-4
1898.437500; 1.17069E-4
1904.296875; 1.06692E-4
1910.156250; 1.07400E-4
1916.015625; 1.14341E-4
1921.875000; 1.19390E-4
1927.734375; 1.18533E-4
1933.593750; 1.15301E-4
1939.453125; 1.05320E-4
1945.312500; 1.08280E-4
1951.171875; 1.11985E-4
1957.031250; 1.12886E-4
1962.890625; 1.13590E-4
1968.750000; 1.22099E-4
1974.609375; 1.37872E-4
1980.468750; 1.29799E-4
1986.328125; 1.13389E-4
1992.187500; 1.13623E-4
1998.046875; 1.32001E-4
2003.906250; 1.24435E-4
2009.765625; 1.23837E-4
2015.625000; 1.21091E-4
2021.484375; 1.11973E-4
2027.343750; 1.04494E-4
2033.203125; 1.14256E-4
2039.062500; 1.20342E-4
2044.921875; 1.05292E-4
2050.781250; 1.17906E-4
2056.640625; 1.20087E-4
2062.500000; 1.08150E-4
2068.359375; 1.07503E-4
2074.218750; 1.00301E-4
2080.078125; 1.13795E-4
2085.937500; 1.10178E-4
2091.796875; 1.16530E-4
2097.656250; 1.07651E-4
2103.515625; 1.07715E-4
2109.375000; 1.04166E-4
2115.234375; 1.06141E-4
2121.093750; 1.08819E-4
2126.953125; 1.07384E-4
2132.812500; 1.20616E-4
2138.671875; 1.15673E-4
2144.531250; 1.13032E-4
2150.390625; 1.13617E-4
2156.250000; 1.16549E-4
2162.109375; 1.02769E-4
2167.968750; 9.66630E-5
2173.828125; 1.10419E-4
2179.687500; 1.04726E-4
2185.546875; 1.05203E-4
2191.406250; 1.07204E-4
2197.265625; 1.08990E-4
2203.125000; 1.11394E-4
2208.984375; 1.10121E-4
2214.843750; 1.23133E-4
2220.703125; 1.14896E-4
2226.562500; 1.10275E-4
2232.421875; 1.06096E-4
2238.281250; 1.08984E-4
2244.140625; 1.07274E-4
2250.000000; 9.97519E-5
2255.859375; 1.10789E-4
2261.718750; 1.13425E-4
2267.578125; 1.13465E-4
2273.437500; 1.14507E-4
2279.296875; 1.06135E-4
2285.156250; 1.04750E-4
2291.015625; 1.03318E-4
2296.875000; 1.05792E-4
2302.734375; 1.07879E-4
2308.593750; 1.06854E-4
2314.453125; 1.16859E-4
2320.312500; 1.23170E-4
2326.171875; 1.16834E-4
2332.031250; 1.16332E-4
2337.890625; 1.13835E-4
2343.750000; 1.00479E-4
2349.609375; 1.11264E-4
2355.468750; 1.10928E-4
2361.328125; 1.04053E-4
2367.187500; 1.03146E-4
2373.046875; 1.13943E-4
2378.906250; 1.25176E-4
2384.765625; 1.12183E-4
2390.625000; 1.04844E-4
2396.484375; 1.16634E-4
2402.343750; 1.13847E-4
2408.203125; 1.03013E-4
2414.062500; 1.14342E-4
2419.921875; 1.09798E-4
2425.781250; 1.04397E-4
2431.640625; 1.12430E-4
2437.500000; 1.14378E-4
2443.359375; 1.15603E-4
2449.218750; 1.12652E-4
2455.078125; 1.12741E-4
2460.937500; 1.20459E-4
2466.796875; 1.19592E-4
2472.656250; 1.15468E-4
2478.515625; 1.07455E-4
2484.375000; 1.06616E-4
2490.234375; 1.07294E-4
2496.093750; 1.09447E-4
2501.953125; 1.10672E-4
2507.812500; 1.20480E-4
2513.671875; 1.19768E-4
2519.531250; 1.12868E-4
2525.390625; 1.21025E-4
2531.250000; 1.01807E-4
2537.109375; 9.91558E-5
2542.968750; 9.58006E-5
2548.828125; 1.07395E-4
2554.687500; 1.12610E-4
2560.546875; 1.07314E-4
2566.406250; 1.07564E-4
2572.265625; 1.09807E-4
2578.125000; 1.05136E-4
2583.984375; 1.14703E-4
2589.843750; 1.10106E-4
2595.703125; 1.10353E-4
2601.562500; 1.19066E-4
2607.421875; 1.21179E-4
2613.281250; 1.18917E-4
2619.140625; 1.10059E-4
2625.000000; 1.06835E-4
2630.859375; 1.10692E-4
2636.718750; 1.22361E-4
2642.578125; 1.15117E-4
2648.437500; 1.08989E-4
2654.296875; 1.01638E-4
2660.156250; 1.06768E-4
2666.015625; 9.54268E-5
2671.875000; 1.02053E-4
2677.734375; 9.66107E-5
2683.593750; 1.05735E-4
2689.453125; 1.04648E-4
2695.312500; 1.19833E-4
2701.171875; 1.05369E-4
2707.031250; 1.01185E-4
2712.890625; 1.06189E-4
2718.750000; 1.05599E-4
2724.609375; 9.74411E-5
2730.468750; 9.90421E-5
2736.328125; 1.23388E-4
2742.187500; 1.13864E-4
2748.046875; 1.09044E-4
2753.906250; 1.08995E-4
2759.765625; 1.12950E-4
2765.625000; 1.20146E-4
2771.484375; 1.09983E-4
2777.343750; 1.01258E-4
2783.203125; 1.11516E-4
2789.062500; 1.13726E-4
2794.921875; 1.04201E-4
2800.781250; 1.04555E-4
2806.640625; 1.07334E-4
2812.500000; 1.17672E-4
2818.359375; 1.14392E-4
2824.218750; 1.05794E-4
2830.078125; 1.15059E-4
2835.937500; 1.02741E-4
2841.796875; 1.02486E-4
2847.656250; 1.08203E-4
2853.515625; 1.14117E-4
2859.375000; 1.18617E-4
2865.234375; 1.13331E-4
2871.093750; 1.15992E-4
2876.953125; 1.14879E-4
2882.812500; 1.13764E-4
2888.671875; 1.20609E-4
2894.531250; 1.21279E-4
2900.390625; 1.12555E-4
2906.250000; 1.12028E-4
2912.109375; 1.15696E-4
2917.968750; 1.17115E-4
2923.828125; 1.22157E-4
2929.687500; 1.17063E-4
2935.546875; 1.08987E-4
2941.406250; 9.53263E-5
2947.265625; 1.00247E-4
2953.125000; 1.03502E-4
2958.984375; 9.60676E-5
2964.843750; 1.04849E-4
2970.703125; 1.05963E-4
2976.562500; 1.03229E-4
2982.421875; 1.06115E-4
2988.281250; 1.11199E-4
2994.140625; 1.20256E-4
3000.000000; 1.28021E-4
3005.859375; 1.19531E-4
3011.718750; 1.09554E-4
3017.578125; 9.88816E-5
3023.437500; 1.12756E-4
3029.296875; 1.04254E-4
3035.156250; 1.06569E-4
3041.015625; 1.09689E-4
3046.875000; 1.17696E-4
3052.734375; 1.22583E-4
3058.593750; 1.21200E-4
3064.453125; 1.15345E-4
3070.312500; 1.15115E-4
3076.171875; 1.10069E-4
3082.031250; 1.20065E-4
3087.890625; 1.19025E-4
3093.750000; 1.06149E-4
3099.609375; 1.09770E-4
3105.468750; 1.18454E-4
3111.328125; 1.06347E-4
3117.187500; 1.04595E-4
3123.046875; 1.07753E-4
3128.906250; 1.17620E-4
3134.765625; 1.14890E-4
3140.625000; 1.11114E-4
3146.484375; 9.90889E-5
3152.343750; 1.01547E-4
3158.203125; 1.07544E-4
3164.062500; 1.10184E-4
3169.921875; 9.16984E-5
3175.781250; 1.08960E-4
3181.640625; 1.16297E-4
3187.500000; 1.05014E-4
3193.359375; 1.01209E-4
3199.218750; 1.11094E-4
3205.078125; 1.16414E-4
3210.937500; 1.06369E-4
3216.796875; 1.04922E-4
3222.656250; 1.09812E-4
3228.515625; 1.12922E-4
3234.375000; 1.16613E-4
3240.234375; 1.03845E-4
3246.093750; 1.04155E-4
3251.953125; 1.09956E-4
3257.812500; 1.05107E-4
3263.671875; 1.06622E-4
3269.531250; 1.13054E-4
3275.390625; 1.19669E-4
3281.250000; 1.16163E-4
3287.109375; 1.14200E-4
3292.968750; 1.17996E-4
3298.828125; 1.13020E-4
3304.687500; 1.11193E-4
3310.546875; 1.09791E-4
3316.406250; 1.09486E-4
3322.265625; 1.11590E-4
3328.125000; 1.10454E-4
3333.984375; 1.02830E-4
3339.843750; 9.64275E-5
3345.703125; 1.03870E-4
3351.562500; 1.16613E-4
3357.421875; 1.02227E-4
3363.281250; 1.01941E-4
3369.140625; 1.09607E-4
3375.000000; 1.13830E-4
3380.859375; 1.12183E-4
3386.718750; 1.24240E-4
3392.578125; 1.21392E-4
3398.437500; 1.12930E-4
3404.296875; 1.01853E-4
3410.156250; 1.19501E-4
3416.015625; 1.11333E-4
3421.875000; 1.13062E-4
3427.734375; 1.10611E-4
3433.593750; 1.02141E-4
3439.453125; 1.03016E-4
3445.312500; 1.12201E-4
3451.171875; 1.15565E-4
3457.031250; 1.13208E-4
3462.890625; 1.13094E-4
3468.750000; 1.09726E-4
3474.609375; 1.06159E-4
3480.468750; 1.09458E-4
3486.328125; 1.03639E-4
3492.187500; 1.09350E-4
3498.046875; 1.07939E-4
3503.906250; 1.18284E-4
3509.765625; 1.14436E-4
3515.625000; 1.05149E-4
3521.484375; 1.02194E-4
3527.343750; 1.04571E-4
3533.203125; 1.10336E-4
3539.062500; 1.11514E-4
3544.921875; 1.19151E-4
3550.781250; 1.23130E-4
3556.640625; 1.06806E-4
3562.500000; 1.11285E-4
3568.359375; 1.06259E-4
3574.218750; 9.61173E-5
3580.078125; 1.08587E-4
3585.937500; 1.03057E-4
3591.796875; 1.08471E-4
3597.656250; 1.08043E-4
3603.515625; 9.57343E-5
3609.375000; 1.06811E-4
3615.234375; 9.59701E-5
3621.093750; 9.16405E-5
3626.953125; 9.80896E-5
3632.812500; 9.59148E-5
3638.671875; 1.04865E-4
3644.531250; 1.16772E-4
3650.390625; 1.23692E-4
3656.250000; 1.25533E-4
3662.109375; 1.09687E-4
3667.968750; 1.07835E-4
3673.828125; 1.11239E-4
3679.687500; 1.18507E-4
3685.546875; 1.04040E-4
3691.406250; 9.43315E-5
3697.265625; 9.75139E-5
3703.125000; 9.92366E-5
3708.984375; 1.12732E-4
3714.843750; 1.17705E-4
3720.703125; 1.00261E-4
3726.562500; 1.05986E-4
3732.421875; 1.15675E-4
3738.281250; 1.24672E-4
3744.140625; 1.29939E-4
3750.000000; 1.25462E-4
3755.859375; 1.12320E-4
3761.718750; 1.10795E-4
3767.578125; 1.07771E-4
3773.437500; 1.04996E-4
3779.296875; 1.09773E-4
3785.156250; 1.00809E-4
3791.015625; 1.12337E-4
3796.875000; 1.02516E-4
3802.734375; 1.07105E-4
3808.593750; 1.06321E-4
3814.453125; 1.18108E-4
3820.312500; 1.04976E-4
3826.171875; 1.07606E-4
3832.031250; 1.17481E-4
3837.890625; 1.15712E-4
3843.750000; 1.05331E-4
3849.609375; 1.05159E-4
3855.468750; 1.02753E-4
3861.328125; 1.04890E-4
3867.187500; 1.04874E-4
3873.046875; 9.67593E-5
3878.906250; 9.70919E-5
3884.765625; 1.00212E-4
3890.625000; 1.01451E-4
3896.484375; 1.15984E-4
3902.343750; 1.24755E-4
3908.203125; 1.11968E-4
3914.062500; 1.11210E-4
3919.921875; 1.14188E-4
3925.781250; 1.17001E-4
3931.640625; 1.08537E-4
3937.500000; 1.03684E-4
3943.359375; 1.17263E-4
3949.218750; 1.13801E-4
3955.078125; 9.62606E-5
3960.937500; 1.00405E-4
3966.796875; 1.17790E-4
3972.656250; 1.19147E-4
3978.515625; 1.16218E-4
3984.375000; 1.11905E-4
3990.234375; 1.10595E-4
3996.093750; 1.09013E-4
4001.953125; 1.15476E-4
4007.812500; 1.19583E-4
4013.671875; 1.09432E-4
4019.531250; 9.54413E-5
4025.390625; 9.92377E-5
4031.250000; 1.00878E-4
4037.109375; 1.06174E-4
4042.968750; 1.00520E-4
4048.828125; 1.13764E-4
4054.687500; 1.17381E-4
4060.546875; 1.18615E-4
4066.406250; 1.16990E-4
4072.265625; 1.06865E-4
4078.125000; 1.04985E-4
4083.984375; 9.40574E-5
4089.843750; 9.09015E-5
4095.703125; 9.56409E-5
4101.562500; 1.09764E-4
4107.421875; 1.05632E-4
4113.281250; 9.43719E-5
4119.140625; 1.03657E-4
4125.000000; 1.08582E-4
4130.859375; 1.08542E-4
4136.718750; 9.82409E-5
4142.578125; 1.08059E-4
4148.437500; 1.17448E-4
4154.296875; 1.24145E-4
4160.156250; 1.17580E-4
4166.015625; 1.10622E-4
4171.875000; 1.14801E-4
4177.734375; 1.13635E-4
4183.593750; 1.12025E-4
4189.453125; 1.14719E-4
4195.312500; 1.06205E-4
4201.171875; 1.09217E-4
4207.031250; 1.08663E-4
4212.890625; 1.16573E-4
4218.750000; 1.02891E-4
4224.609375; 1.03430E-4
4230.468750; 1.04320E-4
4236.328125; 1.06145E-4
4242.187500; 1.08180E-4
4248.046875; 9.56691E-5
4253.906250; 9.98716E-5
4259.765625; 9.77569E-5
4265.625000; 9.39017E-5
4271.484375; 1.04276E-4
4277.343750; 1.10081E-4
4283.203125; 1.10796E-4
4289.062500; 1.17081E-4
4294.921875; 1.14656E-4
4300.781250; 1.10161E-4
4306.640625; 9.78720E-5
4312.500000; 8.81916E-5
4318.359375; 1.05403E-4
4324.218750; 1.09533E-4
4330.078125; 1.09433E-4
4335.937500; 1.04736E-4
4341.796875; 1.14065E-4
4347.656250; 1.15633E-4
4353.515625; 1.01515E-4
4359.375000; 1.02896E-4
4365.234375; 9.93348E-5
4371.093750; 1.07206E-4
4376.953125; 1.23945E-4
4382.812500; 1.17416E-4
4388.671875; 1.12442E-4
4394.531250; 1.01696E-4
4400.390625; 1.12233E-4
4406.250000; 1.19594E-4
4412.109375; 1.03412E-4
4417.968750; 9.90832E-5
4423.828125; 1.07695E-4
4429.687500; 1.18202E-4
4435.546875; 1.14695E-4
4441.406250; 1.19100E-4
4447.265625; 1.12598E-4
4453.125000; 1.15851E-4
4458.984375; 1.17120E-4
4464.843750; 1.12544E-4
4470.703125; 1.13973E-4
4476.562500; 1.14791E-4
4482.421875; 1.17078E-4
4488.281250; 1.04761E-4
4494.140625; 9.27347E-5
4500.000000; 1.09911E-4
4505.859375; 1.05541E-4
4511.718750; 1.06405E-4
4517.578125; 1.03632E-4
4523.437500; 1.12797E-4
4529.296875; 1.10825E-4
4535.156250; 1.03272E-4
4541.015625; 8.62770E-5
4546.875000; 1.02351E-4
4552.734375; 1.08682E-4
4558.593750; 1.02572E-4
4564.453125; 1.05864E-4
4570.312500; 1.13764E-4
4576.171875; 1.08955E-4
4582.031250; 1.04598E-4
4587.890625; 9.83885E-5
4593.750000; 1.10883E-4
4599.609375; 1.12939E-4
4605.468750; 1.10235E-4
4611.328125; 1.07162E-4
4617.187500; 1.03181E-4
4623.046875; 1.09224E-4
4628.906250; 1.16643E-4
4634.765625; 1.11306E-4
4640.625000; 1.07969E-4
4646.484375; 1.13396E-4
4652.343750; 1.10358E-4
4658.203125; 1.11548E-4
4664.062500; 9.95523E-5
4669.921875; 1.05313E-4
4675.781250; 1.06798E-4
4681.640625; 1.06642E-4
4687.500000; 1.05630E-4
4693.359375; 1.03266E-4
4699.218750; 1.05009E-4
4705.078125; 9.48444E-5
4710.937500; 1.05685E-4
4716.796875; 1.03309E-4
4722.656250; 1.10376E-4
4728.515625; 1.02192E-4
4734.375000; 1.08162E-4
4740.234375; 1.04538E-4
4746.093750; 1.00338E-4
4751.953125; 1.11773E-4
4757.812500; 1.10792E-4
4763.671875; 1.06715E-4
4769.531250; 1.02141E-4
4775.390625; 1.21071E-4
4781.250000; 1.19530E-4
4787.109375; 1.03815E-4
4792.968750; 1.13480E-4
4798.828125; 1.04019E-4
4804.687500; 1.07981E-4
4810.546875; 1.21136E-4
4816.406250; 1.20998E-4
4822.265625; 9.69590E-5
4828.125000; 1.01094E-4
4833.984375; 1.09719E-4
4839.843750; 1.06974E-4
4845.703125; 1.19317E-4
4851.562500; 1.11664E-4
4857.421875; 1.06243E-4
4863.281250; 1.09187E-4
4869.140625; 1.09961E-4
4875.000000; 1.11676E-4
4880.859375; 1.18399E-4
4886.718750; 1.07159E-4
4892.578125; 1.09051E-4
4898.437500; 1.05195E-4
4904.296875; 1.06471E-4
4910.156250; 9.73311E-5
4916.015625; 1.06931E-4
4921.875000; 1.05538E-4
4927.734375; 1.00535E-4
4933.593750; 1.08406E-4
4939.453125; 1.00403E-4
4945.312500; 1.07321E-4
4951.171875; 1.13482E-4
4957.031250; 1.12528E-4
4962.890625; 9.76404E-5
4968.750000; 9.99099E-5
4974.609375; 1.12574E-4
4980.468750; 1.04777E-4
4986.328125; 1.12458E-4
4992.187500; 1.13029E-4
4998.046875; 1.13176E-4
5003.906250; 1.12458E-4
5009.765625; 9.68591E-5
5015.625000; 1.06933E-4
5021.484375; 1.07247E-4
5027.343750; 9.57290E-5
5033.203125; 9.96914E-5
5039.062500; 9.89669E-5
5044.921875; 1.06074E-4
5050.781250; 1.12156E-4
5056.640625; 1.10235E-4
5062.500000; 1.00599E-4
5068.359375; 1.07432E-4
5074.218750; 1.08549E-4
5080.078125; 1.09030E-4
5085.937500; 9.90071E-5
5091.796875; 9.88548E-5
5097.656250; 1.01414E-4
5103.515625; 1.07065E-4
5109.375000; 1.00035E-4
5115.234375; 1.06089E-4
5121.093750; 1.15071E-4
5126.953125; 1.09874E-4
5132.812500; 1.00528E-4
5138.671875; 1.09666E-4
5144.531250; 1.17943E-4
5150.390625; 1.15065E-4
5156.250000; 1.16297E-4
5162.109375; 1.17657E-4
5167.968750; 1.00529E-4
5173.828125; 9.15662E-5
5179.687500; 1.07049E-4
5185.546875; 1.03084E-4
5191.406250; 1.00903E-4
5197.265625; 9.34140E-5
5203.125000; 9.29639E-5
5208.984375; 1.10203E-4
5214.843750; 1.08986E-4
5220.703125; 1.09612E-4
5226.562500; 1.11631E-4
5232.421875; 1.08890E-4
5238.281250; 1.10357E-4
5244.140625; 1.12221E-4
5250.000000; 1.06049E-4
5255.859375; 9.72306E-5
5261.718750; 1.02758E-4
5267.578125; 1.04800E-4
5273.437500; 9.88651E-5
5279.296875; 9.62930E-5
5285.156250; 1.09560E-4
5291.015625; 1.20278E-4
5296.875000; 1.16770E-4
5302.734375; 1.26507E-4
5308.593750; 1.19508E-4
5314.453125; 1.16064E-4
5320.312500; 1.19314E-4
5326.171875; 9.51852E-5
5332.031250; 9.09801E-5
5337.890625; 1.08133E-4
5343.750000; 1.08586E-4
5349.609375; 1.09719E-4
5355.468750; 1.11925E-4
5361.328125; 1.18933E-4
5367.187500; 1.09183E-4
5373.046875; 1.02105E-4
5378.906250; 9.72322E-5
5384.765625; 1.04733E-4
5390.625000; 1.05656E-4
5396.484375; 1.01193E-4
5402.343750; 1.00264E-4
5408.203125; 1.14715E-4
5414.062500; 1.12598E-4
5419.921875; 1.06137E-4
5425.781250; 1.04579E-4
5431.640625; 1.01981E-4
5437.500000; 9.93043E-5
5443.359375; 9.48497E-5
5449.218750; 9.96253E-5
5455.078125; 1.12513E-4
5460.937500; 1.09160E-4
5466.796875; 1.08515E-4
5472.656250; 1.17262E-4
5478.515625; 1.15878E-4
5484.375000; 1.05506E-4
5490.234375; 1.04660E-4
5496.093750; 1.03494E-4
5501.953125; 9.46381E-5
5507.812500; 1.01053E-4
5513.671875; 1.11387E-4
5519.531250; 1.04514E-4
5525.390625; 1.04460E-4
5531.250000; 1.16394E-4
5537.109375; 1.18469E-4
5542.968750; 1.02723E-4
5548.828125; 9.44291E-5
5554.687500; 1.01833E-4
5560.546875; 1.09895E-4
5566.406250; 1.01031E-4
5572.265625; 1.03677E-4
5578.125000; 1.08035E-4
5583.984375; 1.16888E-4
5589.843750; 1.09192E-4
5595.703125; 1.03421E-4
5601.562500; 9.56860E-5
5607.421875; 1.08185E-4
5613.281250; 1.14551E-4
5619.140625; 1.09869E-4
5625.000000; 1.10786E-4
5630.859375; 1.00146E-4
5636.718750; 1.17629E-4
5642.578125; 1.09435E-4
5648.437500; 9.78777E-5
5654.296875; 1.11542E-4
5660.156250; 1.25193E-4
5666.015625; 1.09060E-4
5671.875000; 1.06916E-4
5677.734375; 1.07129E-4
5683.593750; 1.13532E-4
5689.453125; 1.10816E-4
5695.312500; 1.08365E-4
5701.171875; 1.05316E-4
5707.031250; 1.11134E-4
5712.890625; 1.01665E-4
5718.750000; 9.43191E-5
5724.609375; 9.74135E-5
5730.468750; 9.24406E-5
5736.328125; 9.75413E-5
5742.187500; 1.04785E-4
5748.046875; 1.00377E-4
5753.906250; 1.02383E-4
5759.765625; 1.03079E-4
5765.625000; 1.10569E-4
5771.484375; 1.11522E-4
5777.343750; 1.08574E-4
5783.203125; 1.04312E-4
5789.062500; 1.05055E-4
5794.921875; 1.07100E-4
5800.781250; 1.05777E-4
5806.640625; 1.10926E-4
5812.500000; 1.20061E-4
5818.359375; 1.17318E-4
5824.218750; 1.12474E-4
5830.078125; 1.06901E-4
5835.937500; 1.07448E-4
5841.796875; 1.16792E-4
5847.656250; 1.07821E-4
5853.515625; 1.14862E-4
5859.375000; 1.24750E-4
5865.234375; 1.17643E-4
5871.093750; 1.16259E-4
5876.953125; 1.20233E-4
5882.812500; 1.14611E-4
5888.671875; 1.12716E-4
5894.531250; 1.13088E-4
5900.390625; 1.03779E-4
5906.250000; 1.01730E-4
5912.109375; 9.75200E-5
5917.968750; 1.00374E-4
5923.828125; 1.17086E-4
5929.687500; 1.20205E-4
5935.546875; 1.17111E-4
5941.406250; 1.16304E-4
5947.265625; 1.01979E-4
5953.125000; 9.05370E-5
5958.984375; 9.81271E-5
5964.843750; 1.01981E-4
5970.703125; 9.94067E-5
5976.562500; 1.03492E-4
5982.421875; 9.50185E-5
5988.281250; 1.11084E-4
5994.140625; 1.09924E-4
6000.000000; 1.03231E-4
6005.859375; 1.04081E-4
6011.718750; 1.15399E-4
6017.578125; 1.22118E-4
6023.437500; 1.08430E-4
6029.296875; 8.74224E-5
6035.156250; 8.37394E-5
6041.015625; 9.74704E-5
6046.875000; 1.08875E-4
6052.734375; 1.16929E-4
6058.593750; 1.15484E-4
6064.453125; 1.19269E-4
6070.312500; 1.19940E-4
6076.171875; 1.11249E-4
6082.031250; 1.06765E-4
6087.890625; 1.18574E-4
6093.750000; 1.18923E-4
6099.609375; 1.20470E-4
6105.468750; 1.15936E-4
6111.328125; 1.11785E-4
6117.187500; 1.07123E-4
6123.046875; 1.02706E-4
6128.906250; 1.09165E-4
6134.765625; 1.05360E-4
6140.625000; 1.04389E-4
6146.484375; 1.11354E-4
6152.343750; 1.04741E-4
6158.203125; 9.16651E-5
6164.062500; 1.03477E-4
6169.921875; 1.03292E-4
6175.781250; 1.06470E-4
6181.640625; 1.12893E-4
6187.500000; 1.10954E-4
6193.359375; 1.23446E-4
6199.218750; 1.14015E-4
6205.078125; 1.03025E-4
6210.937500; 1.09066E-4
6216.796875; 1.11171E-4
6222.656250; 1.03457E-4
6228.515625; 1.06317E-4
6234.375000; 1.16280E-4
6240.234375; 1.09775E-4
6246.093750; 1.14847E-4
6251.953125; 9.39897E-5
6257.812500; 1.04030E-4
6263.671875; 1.08013E-4
6269.531250; 1.05721E-4
6275.390625; 1.03615E-4
6281.250000; 1.07611E-4
6287.109375; 1.18932E-4
6292.968750; 1.16350E-4
6298.828125; 1.17461E-4
6304.687500; 1.23959E-4
6310.546875; 1.16470E-4
6316.406250; 1.12045E-4
6322.265625; 1.14546E-4
6328.125000; 1.09164E-4
6333.984375; 1.09685E-4
6339.843750; 1.11072E-4
6345.703125; 1.14727E-4
6351.562500; 9.39991E-5
6357.421875; 9.57963E-5
6363.281250; 1.00699E-4
6369.140625; 1.01789E-4
6375.000000; 9.91328E-5
6380.859375; 1.06132E-4
6386.718750; 1.12304E-4
6392.578125; 1.22531E-4
6398.437500; 1.20811E-4
6404.296875; 1.03957E-4
6410.156250; 9.21345E-5
6416.015625; 9.44680E-5
6421.875000; 9.99434E-5
6427.734375; 9.46957E-5
6433.593750; 1.01899E-4
6439.453125; 1.00122E-4
6445.312500; 1.03884E-4
6451.171875; 1.16316E-4
6457.031250; 9.83923E-5
6462.890625; 9.73786E-5
6468.750000; 1.11769E-4
6474.609375; 1.00730E-4
6480.468750; 9.81117E-5
6486.328125; 1.04726E-4
6492.187500; 1.16263E-4
6498.046875; 1.12853E-4
6503.906250; 1.05420E-4
6509.765625; 1.13790E-4
6515.625000; 1.05913E-4
6521.484375; 1.03837E-4
6527.343750; 9.36519E-5
6533.203125; 9.51621E-5
6539.062500; 9.38889E-5
6544.921875; 9.76615E-5
6550.781250; 1.08926E-4
6556.640625; 1.06893E-4
6562.500000; 1.07943E-4
6568.359375; 1.10288E-4
6574.218750; 1.08323E-4
6580.078125; 1.05138E-4
6585.937500; 1.07564E-4
6591.796875; 1.23586E-4
6597.656250; 1.25638E-4
6603.515625; 1.08437E-4
6609.375000; 1.02468E-4
6615.234375; 9.68123E-5
6621.093750; 1.00644E-4
6626.953125; 1.06804E-4
6632.812500; 1.09131E-4
6638.671875; 1.04019E-4
6644.531250; 1.20365E-4
6650.390625; 1.13555E-4
6656.250000; 1.10690E-4
6662.109375; 1.08255E-4
6667.968750; 9.98676E-5
6673.828125; 9.93617E-5
6679.687500; 9.78720E-5
6685.546875; 9.55621E-5
6691.406250; 1.00745E-4
6697.265625; 1.11034E-4
6703.125000; 1.21708E-4
6708.984375; 1.17018E-4
6714.843750; 9.90185E-5
6720.703125; 9.64318E-5
6726.562500; 9.40966E-5
6732.421875; 9.91250E-5
6738.281250; 1.02016E-4
6744.140625; 1.00247E-4
6750.000000; 1.00353E-4
6755.859375; 1.11961E-4
6761.718750; 1.09073E-4
6767.578125; 9.88492E-5
6773.437500; 1.05836E-4
6779.296875; 1.10821E-4
6785.156250; 1.10765E-4
6791.015625; 1.12892E-4
6796.875000; 1.09938E-4
6802.734375; 1.04607E-4
6808.593750; 1.12237E-4
6814.453125; 1.10071E-4
6820.312500; 1.08788E-4
6826.171875; 9.95684E-5
6832.031250; 9.59222E-5
6837.890625; 1.05735E-4
6843.750000; 1.06026E-4
6849.609375; 1.10949E-4
6855.468750; 1.20538E-4
6861.328125; 1.01388E-4
6867.187500; 1.01278E-4
6873.046875; 1.07131E-4
6878.906250; 1.15317E-4
6884.765625; 1.16891E-4
6890.625000; 1.15157E-4
6896.484375; 1.08860E-4
6902.343750; 1.12526E-4
6908.203125; 1.10973E-4
6914.062500; 1.07020E-4
6919.921875; 1.04767E-4
6925.781250; 1.10816E-4
6931.640625; 1.03354E-4
6937.500000; 1.17224E-4
6943.359375; 1.14857E-4
6949.218750; 1.03288E-4
6955.078125; 9.38895E-5
6960.937500; 9.98807E-5
6966.796875; 1.13988E-4
6972.656250; 1.16607E-4
6978.515625; 1.12131E-4
6984.375000; 1.08807E-4
6990.234375; 9.52920E-5
6996.093750; 1.12261E-4
7001.953125; 1.18572E-4
7007.812500; 1.11112E-4
7013.671875; 1.15354E-4
7019.531250; 1.11053E-4
7025.390625; 1.12167E-4
7031.250000; 1.01256E-4
7037.109375; 1.00595E-4
7042.968750; 1.07477E-4
7048.828125; 1.08350E-4
7054.687500; 9.79660E-5
7060.546875; 9.79923E-5
7066.406250; 1.04915E-4
7072.265625; 1.03346E-4
7078.125000; 1.11414E-4
7083.984375; 9.60374E-5
7089.843750; 9.96787E-5
7095.703125; 1.09992E-4
7101.562500; 1.01606E-4
7107.421875; 1.04136E-4
7113.281250; 1.04037E-4
7119.140625; 1.00826E-4
7125.000000; 1.04206E-4
7130.859375; 9.82834E-5
7136.718750; 9.99723E-5
7142.578125; 1.07211E-4
7148.437500; 1.13537E-4
7154.296875; 1.10092E-4
7160.156250; 1.09609E-4
7166.015625; 1.08030E-4
7171.875000; 1.18366E-4
7177.734375; 1.13714E-4
7183.593750; 1.16750E-4
7189.453125; 1.16679E-4
7195.312500; 1.10598E-4
7201.171875; 1.05068E-4
7207.031250; 1.12511E-4
7212.890625; 1.18255E-4
7218.750000; 1.09730E-4
7224.609375; 9.46297E-5
7230.468750; 1.07506E-4
7236.328125; 1.23847E-4
7242.187500; 1.18805E-4
7248.046875; 1.09166E-4
7253.906250; 1.17806E-4
7259.765625; 1.15868E-4
7265.625000; 1.07055E-4
7271.484375; 1.01456E-4
7277.343750; 1.05408E-4
7283.203125; 1.10802E-4
7289.062500; 1.04052E-4
7294.921875; 1.06830E-4
7300.781250; 1.00938E-4
7306.640625; 1.04472E-4
7312.500000; 1.05878E-4
7318.359375; 1.04892E-4
7324.218750; 1.10230E-4
7330.078125; 1.05704E-4
7335.937500; 1.12931E-4
7341.796875; 1.26021E-4
7347.656250; 1.25612E-4
7353.515625; 1.09266E-4
7359.375000; 1.06776E-4
7365.234375; 1.08455E-4
7371.093750; 1.13765E-4
7376.953125; 1.14610E-4
7382.812500; 1.19189E-4
7388.671875; 1.14287E-4
7394.531250; 1.12581E-4
7400.390625; 1.14585E-4
7406.250000; 1.12358E-4
7412.109375; 1.15186E-4
7417.968750; 1.14006E-4
7423.828125; 1.03492E-4
7429.687500; 1.05727E-4
7435.546875; 9.71257E-5
7441.406250; 9.01018E-5
7447.265625; 1.00428E-4
7453.125000; 1.04172E-4
7458.984375; 1.12432E-4
7464.843750; 1.08893E-4
7470.703125; 1.05809E-4
7476.562500; 1.06087E-4
7482.421875; 1.19399E-4
7488.281250; 1.25769E-4
7494.140625; 1.03755E-4
7500.000000; 1.04584E-4
7505.859375; 1.10349E-4
7511.718750; 1.11133E-4
7517.578125; 1.10167E-4
7523.437500; 1.02463E-4
7529.296875; 1.04125E-4
7535.156250; 9.78639E-5
7541.015625; 1.02245E-4
7546.875000; 9.30489E-5
7552.734375; 1.00417E-4
7558.593750; 1.06031E-4
7564.453125; 9.28757E-5
7570.312500; 9.65825E-5
7576.171875; 1.06049E-4
7582.031250; 1.11122E-4
7587.890625; 1.11681E-4
7593.750000; 1.07882E-4
7599.609375; 1.12348E-4
7605.468750; 1.04445E-4
7611.328125; 1.05153E-4
7617.187500; 1.08301E-4
7623.046875; 1.18190E-4
7628.906250; 1.22595E-4
7634.765625; 1.16895E-4
7640.625000; 1.17791E-4
7646.484375; 1.15184E-4
7652.343750; 1.09034E-4
7658.203125; 1.20606E-4
7664.062500; 1.24574E-4
7669.921875; 1.09298E-4
7675.781250; 1.05116E-4
7681.640625; 1.01064E-4
7687.500000; 1.08581E-4
7693.359375; 1.12695E-4
7699.218750; 1.03625E-4
7705.078125; 1.00515E-4
7710.937500; 1.00396E-4
7716.796875; 1.05204E-4
7722.656250; 9.90536E-5
7728.515625; 9.92223E-5
7734.375000; 1.17600E-4
7740.234375; 1.09294E-4
7746.093750; 1.05352E-4
7751.953125; 9.80151E-5
7757.812500; 1.05267E-4
7763.671875; 1.15072E-4
7769.531250; 1.14312E-4
7775.390625; 1.09775E-4
7781.250000; 1.21093E-4
7787.109375; 1.16226E-4
7792.968750; 1.10155E-4
7798.828125; 1.22583E-4
7804.687500; 1.15947E-4
7810.546875; 9.56326E-5
7816.406250; 1.03590E-4
7822.265625; 1.03444E-4
7828.125000; 1.04911E-4
7833.984375; 1.03612E-4
7839.843750; 9.63791E-5
7845.703125; 1.04148E-4
7851.562500; 1.11383E-4
7857.421875; 1.13139E-4
7863.281250; 1.01101E-4
7869.140625; 1.00724E-4
7875.000000; 1.02492E-4
7880.859375; 1.03579E-4
7886.718750; 1.24414E-4
7892.578125; 1.13218E-4
7898.437500; 1.10885E-4
7904.296875; 1.14635E-4
7910.156250; 1.16889E-4
7916.015625; 9.74741E-5
7921.875000; 1.05320E-4
7927.734375; 1.18543E-4
7933.593750; 1.23570E-4
7939.453125; 1.12677E-4
7945.312500; 1.08902E-4
7951.171875; 1.04118E-4
7957.031250; 1.06479E-4
7962.890625; 1.06402E-4
7968.750000; 1.05882E-4
7974.609375; 1.14713E-4
7980.468750; 1.11524E-4
7986.328125; 1.11518E-4
7992.187500; 1.05116E-4
7998.046875; 1.00207E-4
8003.906250; 1.11326E-4
8009.765625; 1.07086E-4
8015.625000; 1.02498E-4
8021.484375; 1.07050E-4
8027.343750; 1.10122E-4
8033.203125; 1.16887E-4
8039.062500; 1.08712E-4
8044.921875; 1.13474E-4
8050.781250; 1.08783E-4
8056.640625; 9.23165E-5
8062.500000; 1.05490E-4
8068.359375; 1.10450E-4
8074.218750; 1.12978E-4
8080.078125; 1.05387E-4
8085.937500; 9.66550E-5
8091.796875; 1.13108E-4
8097.656250; 1.13929E-4
8103.515625; 1.17943E-4
8109.375000; 1.06115E-4
8115.234375; 9.94400E-5
8121.093750; 9.65603E-5
8126.953125; 1.02622E-4
8132.812500; 1.01983E-4
8138.671875; 1.13659E-4
8144.531250; 1.17713E-4
8150.390625; 1.16034E-4
8156.250000; 1.03287E-4
8162.109375; 9.90322E-5
8167.968750; 9.47077E-5
8173.828125; 1.01503E-4
8179.687500; 1.12776E-4
8185.546875; 1.14652E-4
8191.406250; 1.14252E-4
8197.265625; 1.16910E-4
8203.125000; 1.16778E-4
8208.984375; 9.96368E-5
8214.843750; 9.69206E-5
8220.703125; 1.04213E-4
8226.562500; 1.05603E-4
8232.421875; 1.07731E-4
8238.281250; 1.05976E-4
8244.140625; 1.07510E-4
8250.000000; 1.00444E-4
8255.859375; 1.10400E-4
8261.718750; 1.15562E-4
8267.578125; 1.07986E-4
8273.437500; 1.03653E-4
8279.296875; 1.14000E-4
8285.156250; 1.19393E-4
8291.015625; 1.09913E-4
8296.875000; 1.02648E-4
8302.734375; 1.09978E-4
8308.593750; 9.95782E-5
8314.453125; 1.02796E-4
8320.312500; 1.03747E-4
8326.171875; 1.10577E-4
8332.031250; 1.08059E-4
8337.890625; 1.02500E-4
8343.750000; 9.65825E-5
8349.609375; 1.00404E-4
8355.468750; 1.07976E-4
8361.328125; 1.14101E-4
8367.187500; 1.13536E-4
8373.046875; 9.94553E-5
8378.906250; 1.06102E-4
8384.765625; 1.07140E-4
8390.625000; 1.11863E-4
8396.484375; 1.08811E-4
8402.343750; 1.08909E-4
8408.203125; 1.07029E-4
8414.062500; 1.10183E-4
8419.921875; 1.06845E-4
8425.781250; 1.06300E-4
8431.640625; 1.07965E-4
8437.500000; 1.05752E-4
8443.359375; 1.05715E-4
8449.218750; 1.03679E-4
8455.078125; 1.01362E-4
8460.937500; 1.03853E-4
8466.796875; 1.03579E-4
8472.656250; 1.03901E-4
8478.515625; 1.01865E-4
8484.375000; 1.11874E-4
8490.234375; 1.16719E-4
8496.093750; 1.07111E-4
8501.953125; 9.34566E-5
8507.812500; 1.05378E-4
8513.671875; 1.07160E-4
8519.531250; 1.07103E-4
8525.390625; 1.07741E-4
8531.250000; 1.01984E-4
8537.109375; 9.73578E-5
8542.968750; 1.12791E-4
8548.828125; 1.12522E-4
8554.687500; 1.01201E-4
8560.546875; 1.08630E-4
8566.406250; 1.21765E-4
8572.265625; 1.18010E-4
8578.125000; 9.67958E-5
8583.984375; 9.93109E-5
8589.843750; 9.62639E-5
8595.703125; 1.13361E-4
8601.562500; 1.09806E-4
8607.421875; 1.16132E-4
8613.281250; 1.08905E-4
8619.140625; 1.10874E-4
8625.000000; 1.10046E-4
8630.859375; 1.02797E-4
8636.718750; 1.04694E-4
8642.578125; 1.12901E-4
8648.437500; 1.08195E-4
8654.296875; 1.17401E-4
8660.156250; 1.11569E-4
8666.015625; 1.13419E-4
8671.875000; 1.13118E-4
8677.734375; 9.91892E-5
8683.593750; 1.01578E-4
8689.453125; 1.06231E-4
8695.312500; 1.06763E-4
8701.171875; 1.01613E-4
8707.031250; 1.03139E-4
8712.890625; 1.08795E-4
8718.750000; 1.12195E-4
8724.609375; 1.13379E-4
8730.468750; 1.09925E-4
8736.328125; 1.08201E-4
8742.187500; 1.01865E-4
8748.046875; 1.09261E-4
8753.906250; 1.10995E-4
8759.765625; 1.02527E-4
8765.625000; 9.97373E-5
8771.484375; 1.05937E-4
8777.343750; 1.13466E-4
8783.203125; 1.12088E-4
8789.062500; 1.12456E-4
8794.921875; 1.08751E-4
8800.781250; 1.15633E-4
8806.640625; 1.09994E-4
8812.500000; 9.81703E-5
8818.359375; 1.03838E-4
8824.218750; 9.60717E-5
8830.078125; 9.97094E-5
8835.937500; 1.01932E-4
8841.796875; 1.04448E-4
8847.656250; 1.06347E-4
8853.515625; 1.00549E-4
8859.375000; 1.14319E-4
8865.234375; 1.08835E-4
8871.093750; 1.12081E-4
8876.953125; 1.17188E-4
8882.812500; 9.87983E-5
8888.671875; 1.01096E-4
8894.531250; 9.82392E-5
8900.390625; 1.05739E-4
8906.250000; 1.16061E-4
8912.109375; 1.20969E-4
8917.968750; 1.17972E-4
8923.828125; 1.08408E-4
8929.687500; 1.11205E-4
8935.546875; 1.06844E-4
8941.406250; 1.04223E-4
8947.265625; 9.52200E-5
8953.125000; 9.06705E-5
8958.984375; 9.36854E-5
8964.843750; 9.98983E-5
8970.703125; 1.15358E-4
8976.562500; 1.18047E-4
8982.421875; 1.11128E-4
8988.281250; 1.06073E-4
8994.140625; 1.08572E-4
9000.000000; 1.20936E-4
9005.859375; 1.06828E-4
9011.718750; 1.16297E-4
9017.578125; 1.15869E-4
9023.437500; 1.04939E-4
9029.296875; 1.10850E-4
9035.156250; 1.11963E-4
9041.015625; 1.11011E-4
9046.875000; 1.14745E-4
9052.734375; 1.00894E-4
9058.593750; 1.01768E-4
9064.453125; 1.16093E-4
9070.312500; 1.14416E-4
9076.171875; 1.13961E-4
9082.031250; 1.14605E-4
9087.890625; 1.10667E-4
9093.750000; 1.08320E-4
9099.609375; 1.12371E-4
9105.468750; 1.03940E-4
9111.328125; 8.65767E-5
9117.187500; 9.34057E-5
9123.046875; 1.07054E-4
9128.906250; 1.17611E-4
9134.765625; 1.18520E-4
9140.625000; 1.01850E-4
9146.484375; 1.10745E-4
9152.343750; 1.05916E-4
9158.203125; 1.17143E-4
9164.062500; 1.18090E-4
9169.921875; 1.20121E-4
9175.781250; 1.06997E-4
9181.640625; 1.09088E-4
9187.500000; 9.52491E-5
9193.359375; 9.80973E-5
9199.218750; 1.03146E-4
9205.078125; 1.02511E-4
9210.937500; 1.03660E-4
9216.796875; 1.15349E-4
9222.656250; 1.07080E-4
9228.515625; 1.04506E-4
9234.375000; 1.12996E-4
9240.234375; 1.08372E-4
9246.093750; 1.25937E-4
9251.953125; 1.22307E-4
9257.812500; 1.13795E-4
9263.671875; 1.05698E-4
9269.531250; 1.08494E-4
9275.390625; 1.15902E-4
9281.250000; 1.09169E-4
9287.109375; 1.03757E-4
9292.968750; 9.38859E-5
9298.828125; 1.00619E-4
9304.687500; 1.07457E-4
9310.546875; 1.01104E-4
9316.406250; 9.10817E-5
9322.265625; 1.04129E-4
9328.125000; 1.12527E-4
9333.984375; 1.11275E-4
9339.843750; 1.03902E-4
9345.703125; 1.11692E-4
9351.562500; 1.13515E-4
9357.421875; 1.08056E-4
9363.281250; 1.04781E-4
9369.140625; 1.05538E-4
9375.000000; 1.02930E-4
9380.859375; 1.11356E-4
9386.718750; 1.07246E-4
9392.578125; 1.17329E-4
9398.437500; 1.14558E-4
9404.296875; 1.07806E-4
9410.156250; 9.92931E-5
9416.015625; 1.13530E-4
9421.875000; 1.09273E-4
9427.734375; 9.09117E-5
9433.593750; 9.90447E-5
9439.453125; 1.09639E-4
9445.312500; 1.06771E-4
9451.171875; 1.05186E-4
9457.031250; 1.06143E-4
9462.890625; 1.06190E-4
9468.750000; 1.11724E-4
9474.609375; 1.04095E-4
9480.468750; 9.78599E-5
9486.328125; 1.08750E-4
9492.187500; 1.00010E-4
9498.046875; 9.82151E-5
9503.906250; 1.02110E-4
9509.765625; 1.02597E-4
9515.625000; 1.09832E-4
9521.484375; 1.04471E-4
9527.343750; 1.09136E-4
9533.203125; 1.24072E-4
9539.062500; 1.13923E-4
9544.921875; 1.08019E-4
9550.781250; 1.15941E-4
9556.640625; 1.13140E-4
9562.500000; 1.14938E-4
9568.359375; 1.06379E-4
9574.218750; 1.14816E-4
9580.078125; 1.13312E-4
9585.937500; 1.09000E-4
9591.796875; 1.11926E-4
9597.656250; 9.56306E-5
9603.515625; 9.87980E-5
9609.375000; 1.13844E-4
9615.234375; 1.11280E-4
9621.093750; 1.09190E-4
9626.953125; 1.22718E-4
9632.812500; 1.12106E-4
9638.671875; 1.01655E-4
9644.531250; 1.01146E-4
9650.390625; 9.48220E-5
9656.250000; 1.07763E-4
9662.109375; 1.08240E-4
9667.968750; 1.24998E-4
9673.828125; 1.24826E-4
9679.687500; 1.07544E-4
9685.546875; 9.76499E-5
9691.406250; 9.64302E-5
9697.265625; 9.84914E-5
9703.125000; 9.88239E-5
9708.984375; 1.04996E-4
9714.843750; 1.12275E-4
9720.703125; 1.09994E-4
9726.562500; 9.84666E-5
9732.421875; 1.20546E-4
9738.281250; 1.15793E-4
9744.140625; 1.16115E-4
9750.000000; 1.11150E-4
9755.859375; 1.14318E-4
9761.718750; 1.20008E-4
9767.578125; 1.22933E-4
9773.437500; 1.17045E-4
9779.296875; 1.14878E-4
9785.156250; 1.18959E-4
9791.015625; 1.04701E-4
9796.875000; 9.81929E-5
9802.734375; 9.91145E-5
9808.593750; 1.05101E-4
9814.453125; 1.03047E-4
9820.312500; 1.04788E-4
9826.171875; 1.00082E-4
9832.031250; 9.68613E-5
9837.890625; 9.89654E-5
9843.750000; 1.12607E-4
9849.609375; 1.17383E-4
9855.468750; 1.15225E-4
9861.328125; 1.09423E-4
9867.187500; 1.10893E-4
9873.046875; 1.11293E-4
9878.906250; 1.17892E-4
9884.765625; 1.05566E-4
9890.625000; 1.03506E-4
9896.484375; 1.11283E-4
9902.343750; 1.02533E-4
9908.203125; 1.11126E-4
9914.062500; 1.12360E-4
9919.921875; 1.03313E-4
9925.781250; 9.59642E-5
9931.640625; 8.63930E-5
9937.500000; 9.26592E-5
9943.359375; 1.06345E-4
9949.218750; 1.19461E-4
9955.078125; 1.19642E-4
9960.937500; 1.13607E-4
9966.796875; 1.18808E-4
9972.656250; 1.16182E-4
9978.515625; 1.23261E-4
9984.375000; 1.05609E-4
9990.234375; 1.10838E-4
9996.093750; 1.08443E-4
10001.953125; 1.01424E-4
10007.812500; 1.03062E-4
10013.671875; 1.06863E-4
10019.531250; 1.03210E-4
10025.390625; 1.15838E-4
10031.250000; 1.13322E-4
10037.109375; 1.15627E-4
10042.968750; 1.14800E-4
10048.828125; 1.12839E-4
10054.687500; 1.10779E-4
10060.546875; 1.10384E-4
10066.406250; 9.77070E-5
10072.265625; 9.08394E-5
10078.125000; 1.01519E-4
10083.984375; 1.10332E-4
10089.843750; 1.07074E-4
10095.703125; 1.01112E-4
10101.562500; 1.12403E-4
10107.421875; 1.03778E-4
10113.281250; 1.01602E-4
10119.140625; 1.02802E-4
10125.000000; 1.05687E-4
10130.859375; 1.11042E-4
10136.718750; 1.15772E-4
10142.578125; 1.07740E-4
10148.437500; 1.06374E-4
10154.296875; 1.02192E-4
10160.156250; 1.03360E-4
10166.015625; 1.10475E-4
10171.875000; 1.04247E-4
10177.734375; 1.04449E-4
10183.593750; 1.03295E-4
10189.453125; 1.03102E-4
10195.312500; 1.02131E-4
10201.171875; 1.01130E-4
10207.031250; 1.04317E-4
10212.890625; 1.03319E-4
10218.750000; 1.10694E-4
10224.609375; 1.15226E-4
10230.468750; 1.10321E-4
10236.328125; 1.15233E-4
10242.187500; 1.12080E-4
10248.046875; 1.06221E-4
10253.906250; 1.10509E-4
10259.765625; 1.03783E-4
10265.625000; 9.70959E-5
10271.484375; 9.78560E-5
10277.343750; 1.09112E-4
10283.203125; 1.16128E-4
10289.062500; 1.16801E-4
10294.921875; 1.06733E-4
10300.781250; 9.77949E-5
10306.640625; 1.01962E-4
10312.500000; 1.11470E-4
10318.359375; 1.13908E-4
10324.218750; 1.04287E-4
10330.078125; 1.12902E-4
10335.937500; 1.00968E-4
10341.796875; 1.10512E-4
10347.656250; 1.03494E-4
10353.515625; 9.77208E-5
10359.375000; 9.83019E-5
10365.234375; 1.02661E-4
10371.093750; 1.02469E-4
10376.953125; 1.02732E-4
10382.812500; 9.70521E-5
10388.671875; 1.00438E-4
10394.531250; 1.04392E-4
10400.390625; 9.67820E-5
10406.250000; 9.67101E-5
10412.109375; 9.79639E-5
10417.968750; 1.00591E-4
10423.828125; 1.11513E-4
10429.687500; 1.05224E-4
10435.546875; 9.93892E-5
10441.406250; 1.08083E-4
10447.265625; 1.09710E-4
10453.125000; 9.45120E-5
10458.984375; 1.04614E-4
10464.843750; 1.03163E-4
10470.703125; 1.03896E-4
10476.562500; 1.11994E-4
10482.421875; 1.05940E-4
10488.281250; 9.63246E-5
10494.140625; 9.87176E-5
10500.000000; 1.16410E-4
10505.859375; 1.04612E-4
10511.718750; 9.73224E-5
10517.578125; 1.11295E-4
10523.437500; 1.02443E-4
10529.296875; 1.14222E-4
10535.156250; 1.20130E-4
10541.015625; 1.20704E-4
10546.875000; 1.16169E-4
10552.734375; 1.16560E-4
10558.593750; 1.04153E-4
10564.453125; 1.11755E-4
10570.312500; 1.10100E-4
10576.171875; 1.04032E-4
10582.031250; 1.12080E-4
10587.890625; 1.12910E-4
10593.750000; 1.17278E-4
10599.609375; 9.66689E-5
10605.468750; 9.79138E-5
10611.328125; 9.31715E-5
10617.187500; 1.05875E-4
10623.046875; 1.11430E-4
10628.906250; 1.05528E-4
10634.765625; 1.08673E-4
10640.625000; 1.18272E-4
10646.484375; 1.08999E-4
10652.343750; 9.51719E-5
10658.203125; 9.48872E-5
10664.062500; 1.08552E-4
10669.921875; 1.08654E-4
10675.781250; 1.09782E-4
10681.640625; 1.02541E-4
10687.500000; 1.13699E-4
10693.359375; 1.07969E-4
10699.218750; 1.11234E-4
10705.078125; 1.17475E-4
10710.937500; 1.13142E-4
10716.796875; 1.16620E-4
10722.656250; 1.20248E-4
10728.515625; 1.20939E-4
10734.375000; 1.20046E-4
10740.234375; 1.05486E-4
10746.093750; 9.94832E-5
10751.953125; 1.06113E-4
10757.812500; 1.16708E-4
10763.671875; 1.13913E-4
10769.531250; 1.09725E-4
10775.390625; 1.12007E-4
10781.250000; 1.10601E-4
10787.109375; 1.03981E-4
10792.968750; 1.03298E-4
10798.828125; 1.04389E-4
10804.687500; 9.77626E-5
10810.546875; 1.05016E-4
10816.406250; 1.07555E-4
10822.265625; 1.03174E-4
10828.125000; 9.74890E-5
10833.984375; 9.41453E-5
10839.843750; 9.59825E-5
10845.703125; 1.01655E-4
10851.562500; 1.02848E-4
10857.421875; 1.10168E-4
10863.281250; 1.10175E-4
10869.140625; 1.07457E-4
10875.000000; 9.22276E-5
10880.859375; 9.63016E-5
10886.718750; 9.75293E-5
10892.578125; 1.11051E-4
10898.437500; 1.18927E-4
10904.296875; 9.94806E-5
10910.156250; 9.95080E-5
10916.015625; 1.03368E-4
10921.875000; 1.00857E-4
10927.734375; 1.17327E-4
10933.593750; 1.19348E-4
10939.453125; 1.04705E-4
10945.312500; 8.99659E-5
10951.171875; 9.33391E-5
10957.031250; 1.11233E-4
10962.890625; 1.07649E-4
10968.750000; 1.04992E-4
10974.609375; 1.10457E-4
10980.468750; 1.02468E-4
10986.328125; 9.29384E-5
10992.187500; 9.99514E-5
10998.046875; 1.00087E-4
11003.906250; 9.52777E-5
11009.765625; 9.31041E-5
11015.625000; 1.03421E-4
11021.484375; 1.02586E-4
11027.343750; 1.00478E-4
11033.203125; 9.75666E-5
11039.062500; 1.07926E-4
11044.921875; 1.08267E-4
11050.781250; 9.80391E-5
11056.640625; 9.76603E-5
11062.500000; 1.09910E-4
11068.359375; 1.15749E-4
11074.218750; 1.08574E-4
11080.078125; 1.04520E-4
11085.937500; 9.99068E-5
11091.796875; 9.83825E-5
11097.656250; 1.01952E-4
11103.515625; 1.10428E-4
11109.375000; 1.05737E-4
11115.234375; 1.04839E-4
11121.093750; 1.11512E-4
11126.953125; 1.09302E-4
11132.812500; 1.09875E-4
11138.671875; 1.14371E-4
11144.531250; 1.21164E-4
11150.390625; 1.14347E-4
11156.250000; 1.14599E-4
11162.109375; 1.09497E-4
11167.968750; 1.12701E-4
11173.828125; 1.06023E-4
11179.687500; 1.14264E-4
11185.546875; 1.15386E-4
11191.406250; 1.06795E-4
11197.265625; 1.10175E-4
11203.125000; 1.06666E-4
11208.984375; 1.17496E-4
11214.843750; 1.15569E-4
11220.703125; 1.10193E-4
11226.562500; 1.07313E-4
11232.421875; 1.14863E-4
11238.281250; 1.10558E-4
11244.140625; 1.13768E-4
11250.000000; 1.18949E-4
11255.859375; 1.22258E-4
11261.718750; 1.14916E-4
11267.578125; 1.17307E-4
11273.437500; 1.13175E-4
11279.296875; 1.07062E-4
11285.156250; 9.97291E-5
11291.015625; 1.11948E-4
11296.875000; 1.04804E-4
11302.734375; 9.65115E-5
11308.593750; 1.03361E-4
11314.453125; 9.91535E-5
11320.312500; 1.03235E-4
11326.171875; 1.05460E-4
11332.031250; 9.60457E-5
11337.890625; 1.08449E-4
11343.750000; 1.15543E-4
11349.609375; 1.24773E-4
11355.468750; 1.15158E-4
11361.328125; 1.07722E-4
11367.187500; 1.00356E-4
11373.046875; 1.03399E-4
11378.906250; 1.01609E-4
11384.765625; 1.04978E-4
11390.625000; 1.02536E-4
11396.484375; 1.03214E-4
11402.343750; 1.18088E-4
11408.203125; 1.18041E-4
11414.062500; 1.11512E-4
11419.921875; 1.04779E-4
11425.781250; 1.13113E-4
11431.640625; 1.15380E-4
11437.500000; 1.06635E-4
11443.359375; 1.08931E-4
11449.218750; 1.11198E-4
11455.078125; 1.10012E-4
11460.937500; 1.10705E-4
11466.796875; 1.08387E-4
11472.656250; 1.15380E-4
11478.515625; 1.12205E-4
11484.375000; 1.03376E-4
11490.234375; 9.99953E-5
11496.093750; 9.94128E-5
11501.953125; 1.09849E-4
11507.812500; 9.98251E-5
11513.671875; 1.01158E-4
11519.531250; 1.08893E-4
11525.390625; 1.11798E-4
11531.250000; 9.69070E-5
11537.109375; 1.01602E-4
11542.968750; 9.65253E-5
11548.828125; 9.99175E-5
11554.687500; 1.09289E-4
11560.546875; 1.22222E-4
11566.406250; 1.15784E-4
11572.265625; 1.09335E-4
11578.125000; 1.11236E-4
11583.984375; 9.60031E-5
11589.843750; 1.00563E-4
11595.703125; 1.10096E-4
11601.562500; 9.62795E-5
11607.421875; 1.05102E-4
11613.281250; 1.12779E-4
11619.140625; 1.13202E-4
11625.000000; 1.16675E-4
11630.859375; 1.23353E-4
11636.718750; 1.12559E-4
11642.578125; 1.02398E-4
11648.437500; 1.03265E-4
11654.296875; 1.06561E-4
11660.156250; 1.18655E-4
11666.015625; 1.18050E-4
11671.875000; 1.06990E-4
11677.734375; 1.04734E-4
11683.593750; 1.10089E-4
11689.453125; 1.11308E-4
11695.312500; 1.06685E-4
11701.171875; 1.06521E-4
11707.031250; 1.06776E-4
11712.890625; 1.12138E-4
11718.750000; 1.10658E-4
11724.609375; 1.05615E-4
11730.468750; 1.06312E-4
11736.328125; 1.11445E-4
11742.187500; 1.01426E-4
11748.046875; 1.09589E-4
11753.906250; 1.19854E-4
11759.765625; 9.97954E-5
11765.625000; 9.49768E-5
11771.484375; 1.00807E-4
11777.343750; 9.94479E-5
11783.203125; 9.60276E-5
11789.062500; 1.06487E-4
11794.921875; 1.13452E-4
11800.781250; 1.07842E-4
11806.640625; 9.89586E-5
11812.500000; 9.26311E-5
11818.359375; 1.11732E-4
11824.218750; 1.19510E-4
11830.078125; 1.12015E-4
11835.937500; 9.12456E-5
11841.796875; 9.39424E-5
11847.656250; 9.89229E-5
11853.515625; 1.03760E-4
11859.375000; 1.09557E-4
11865.234375; 1.15014E-4
11871.093750; 1.20169E-4
11876.953125; 9.63215E-5
11882.812500; 1.10250E-4
11888.671875; 1.18005E-4
11894.531250; 1.01369E-4
11900.390625; 1.11666E-4
11906.250000; 1.11096E-4
11912.109375; 1.08846E-4
11917.968750; 1.16709E-4
11923.828125; 1.10782E-4
11929.687500; 1.11859E-4
11935.546875; 9.70266E-5
11941.406250; 1.03569E-4
11947.265625; 1.09934E-4
11953.125000; 1.09690E-4
11958.984375; 1.24405E-4
11964.843750; 1.15628E-4
11970.703125; 9.71752E-5
11976.562500; 1.02065E-4
11982.421875; 1.20262E-4
11988.281250; 1.15311E-4
11994.140625; 1.05566E-4
12000.000000; 1.03365E-4
12005.859375; 1.03190E-4
12011.718750; 1.07877E-4
12017.578125; 1.01237E-4
12023.437500; 1.02572E-4
12029.296875; 1.14119E-4
12035.156250; 1.06241E-4
12041.015625; 1.07307E-4
12046.875000; 1.18308E-4
12052.734375; 1.13401E-4
12058.593750; 9.82110E-5
12064.453125; 9.40228E-5
12070.312500; 1.03938E-4
12076.171875; 1.03053E-4
12082.031250; 1.09301E-4
12087.890625; 1.12701E-4
12093.750000; 1.01852E-4
12099.609375; 9.54497E-5
12105.468750; 1.07809E-4
12111.328125; 1.08308E-4
12117.187500; 1.09791E-4
12123.046875; 1.04380E-4
12128.906250; 1.01260E-4
12134.765625; 1.05619E-4
12140.625000; 1.00499E-4
12146.484375; 1.06951E-4
12152.343750; 9.69488E-5
12158.203125; 9.88830E-5
12164.062500; 1.01971E-4
12169.921875; 1.06684E-4
12175.781250; 1.12204E-4
12181.640625; 1.05041E-4
12187.500000; 1.01021E-4
12193.359375; 1.10204E-4
12199.218750; 1.07628E-4
12205.078125; 8.81965E-5
12210.937500; 8.58327E-5
12216.796875; 9.56063E-5
12222.656250; 9.99845E-5
12228.515625; 9.52876E-5
12234.375000; 1.11867E-4
12240.234375; 1.06158E-4
12246.093750; 1.10993E-4
12251.953125; 1.13658E-4
12257.812500; 1.09252E-4
12263.671875; 1.16157E-4
12269.531250; 1.08642E-4
12275.390625; 1.06352E-4
12281.250000; 1.06210E-4
12287.109375; 9.84882E-5
12292.968750; 1.05813E-4
12298.828125; 1.04592E-4
12304.687500; 1.05790E-4
12310.546875; 1.06714E-4
12316.406250; 9.78110E-5
12322.265625; 1.05235E-4
12328.125000; 1.06182E-4
12333.984375; 9.97563E-5
12339.843750; 1.01224E-4
12345.703125; 1.04943E-4
12351.562500; 1.07927E-4
12357.421875; 1.08868E-4
12363.281250; 1.06382E-4
12369.140625; 9.98485E-5
12375.000000; 1.07425E-4
12380.859375; 1.11955E-4
12386.718750; 9.77698E-5
12392.578125; 1.07160E-4
12398.437500; 1.12038E-4
12404.296875; 1.07266E-4
12410.156250; 9.31192E-5
12416.015625; 9.18123E-5
12421.875000; 1.02403E-4
12427.734375; 1.18038E-4
12433.593750; 1.17577E-4
12439.453125; 1.06960E-4
12445.312500; 1.13389E-4
12451.171875; 1.22832E-4
12457.031250; 1.19152E-4
12462.890625; 1.10028E-4
12468.750000; 1.14574E-4
12474.609375; 1.07218E-4
12480.468750; 1.04294E-4
12486.328125; 1.08660E-4
12492.187500; 1.07424E-4
12498.046875; 1.17328E-4
12503.906250; 1.03727E-4
12509.765625; 1.09737E-4
12515.625000; 1.05859E-4
12521.484375; 9.73572E-5
12527.343750; 9.40862E-5
12533.203125; 9.61787E-5
12539.062500; 1.00081E-4
12544.921875; 1.12418E-4
12550.781250; 1.02881E-4
12556.640625; 1.12034E-4
12562.500000; 1.15891E-4
12568.359375; 1.14495E-4
12574.218750; 1.06326E-4
12580.078125; 1.01974E-4
12585.937500; 1.15089E-4
12591.796875; 1.05057E-4
12597.656250; 9.74580E-5
12603.515625; 1.15499E-4
12609.375000; 1.09443E-4
12615.234375; 1.02145E-4
12621.093750; 1.06098E-4
12626.953125; 9.87506E-5
12632.812500; 1.05778E-4
12638.671875; 9.92498E-5
12644.531250; 9.41985E-5
12650.390625; 9.23149E-5
12656.250000; 9.96295E-5
12662.109375; 9.40707E-5
12667.968750; 1.06133E-4
12673.828125; 1.09939E-4
12679.687500; 1.07232E-4
12685.546875; 1.14851E-4
12691.406250; 1.01109E-4
12697.265625; 1.01426E-4
12703.125000; 1.04907E-4
12708.984375; 9.80181E-5
12714.843750; 9.39949E-5
12720.703125; 1.05619E-4
12726.562500; 1.14801E-4
12732.421875; 1.05799E-4
12738.281250; 9.19910E-5
12744.140625; 9.32554E-5
12750.000000; 1.01066E-4
12755.859375; 9.71550E-5
12761.718750; 1.01537E-4
12767.578125; 1.08175E-4
12773.437500; 1.02348E-4
12779.296875; 1.04999E-4
12785.156250; 1.14393E-4
12791.015625; 1.06380E-4
12796.875000; 1.10268E-4
12802.734375; 1.14595E-4
12808.593750; 1.18348E-4
12814.453125; 1.23818E-4
12820.312500; 1.18713E-4
12826.171875; 1.12822E-4
12832.031250; 1.04299E-4
12837.890625; 1.02497E-4
12843.750000; 9.74317E-5
12849.609375; 1.00849E-4
12855.468750; 1.02801E-4
12861.328125; 1.08173E-4
12867.187500; 1.13635E-4
12873.046875; 1.01581E-4
12878.906250; 9.68922E-5
12884.765625; 1.05167E-4
12890.625000; 9.66752E-5
12896.484375; 1.05232E-4
12902.343750; 1.15456E-4
12908.203125; 1.20118E-4
12914.062500; 1.19710E-4
12919.921875; 1.18726E-4
12925.781250; 1.06158E-4
12931.640625; 1.08579E-4
12937.500000; 1.06420E-4
12943.359375; 1.05105E-4
12949.218750; 9.97458E-5
12955.078125; 1.08430E-4
12960.937500; 1.19003E-4
12966.796875; 1.17358E-4
12972.656250; 9.52616E-5
12978.515625; 9.15039E-5
12984.375000; 9.27124E-5
12990.234375; 1.04159E-4
12996.093750; 1.05798E-4
13001.953125; 1.06440E-4
13007.812500; 1.03761E-4
13013.671875; 1.04731E-4
13019.531250; 1.11755E-4
13025.390625; 1.03034E-4
13031.250000; 1.04226E-4
13037.109375; 1.22551E-4
13042.968750; 1.20004E-4
13048.828125; 1.11575E-4
13054.687500; 1.14873E-4
13060.546875; 1.09836E-4
13066.406250; 1.04632E-4
13072.265625; 1.09127E-4
13078.125000; 1.02423E-4
13083.984375; 1.08755E-4
13089.843750; 1.19606E-4
13095.703125; 1.17124E-4
13101.562500; 1.10246E-4
13107.421875; 1.02975E-4
13113.281250; 1.05443E-4
13119.140625; 9.58668E-5
13125.000000; 9.10255E-5
13130.859375; 9.87976E-5
13136.718750; 1.04700E-4
13142.578125; 1.00199E-4
13148.437500; 9.83032E-5
13154.296875; 9.71707E-5
13160.156250; 1.03046E-4
13166.015625; 1.05039E-4
13171.875000; 1.02599E-4
13177.734375; 1.02727E-4
13183.593750; 1.02674E-4
13189.453125; 9.67428E-5
13195.312500; 1.03243E-4
13201.171875; 1.15399E-4
13207.031250; 1.07498E-4
13212.890625; 9.44285E-5
13218.750000; 1.01761E-4
13224.609375; 1.08412E-4
13230.468750; 1.14455E-4
13236.328125; 1.05656E-4
13242.187500; 1.02472E-4
13248.046875; 1.01121E-4
13253.906250; 1.02553E-4
13259.765625; 1.09875E-4
13265.625000; 9.83551E-5
13271.484375; 9.86681E-5
13277.343750; 1.15007E-4
13283.203125; 1.08010E-4
13289.062500; 1.04874E-4
13294.921875; 1.02203E-4
13300.781250; 1.07995E-4
13306.640625; 1.05666E-4
13312.500000; 9.82072E-5
13318.359375; 9.73094E-5
13324.218750; 1.09532E-4
13330.078125; 1.09522E-4
13335.937500; 1.05577E-4
13341.796875; 1.15012E-4
13347.656250; 1.07519E-4
13353.515625; 9.72114E-5
13359.375000; 1.05642E-4
13365.234375; 1.09461E-4
13371.093750; 1.00237E-4
13376.953125; 9.96932E-5
13382.812500; 1.13096E-4
13388.671875; 1.05248E-4
13394.531250; 1.05696E-4
13400.390625; 1.12335E-4
13406.250000; 1.22980E-4
13412.109375; 1.21923E-4
13417.968750; 9.98224E-5
13423.828125; 9.31459E-5
13429.687500; 1.07859E-4
13435.546875; 1.09716E-4
13441.406250; 1.13856E-4
13447.265625; 1.18656E-4
13453.125000; 1.13632E-4
13458.984375; 1.08092E-4
13464.843750; 1.12581E-4
13470.703125; 1.15453E-4
13476.562500; 1.06086E-4
13482.421875; 1.10560E-4
13488.281250; 1.14962E-4
13494.140625; 1.19882E-4
13500.000000; 1.21939E-4
13505.859375; 1.13376E-4
13511.718750; 1.07185E-4
13517.578125; 1.02997E-4
13523.437500; 1.08333E-4
13529.296875; 1.05054E-4
13535.156250; 1.05661E-4
13541.015625; 1.09130E-4
13546.875000; 1.10260E-4
13552.734375; 1.01305E-4
13558.593750; 9.49044E-5
13564.453125; 9.36631E-5
13570.312500; 9.99646E-5
13576.171875; 1.12353E-4
13582.031250; 1.20720E-4
13587.890625; 1.06274E-4
13593.750000; 9.98320E-5
13599.609375; 1.05088E-4
13605.468750; 1.06602E-4
13611.328125; 1.05832E-4
13617.187500; 9.53634E-5
13623.046875; 9.99543E-5
13628.906250; 1.12214E-4
13634.765625; 1.08831E-4
13640.625000; 9.78688E-5
13646.484375; 1.04211E-4
13652.343750; 9.83411E-5
13658.203125; 1.18751E-4
13664.062500; 1.18284E-4
13669.921875; 1.17512E-4
13675.781250; 1.14783E-4
13681.640625; 1.08346E-4
13687.500000; 9.33473E-5
13693.359375; 1.00334E-4
13699.218750; 1.16202E-4
13705.078125; 1.06116E-4
13710.937500; 1.11048E-4
13716.796875; 1.16021E-4
13722.656250; 1.12110E-4
13728.515625; 1.17753E-4
13734.375000; 1.08956E-4
13740.234375; 1.08166E-4
13746.093750; 1.10802E-4
13751.953125; 1.07210E-4
13757.812500; 1.02451E-4
13763.671875; 9.38403E-5
13769.531250; 9.59748E-5
13775.390625; 9.22054E-5
13781.250000; 9.19179E-5
13787.109375; 1.18602E-4
13792.968750; 1.14957E-4
13798.828125; 1.04445E-4
13804.687500; 1.06220E-4
13810.546875; 1.14256E-4
13816.406250; 1.19533E-4
13822.265625; 1.11421E-4
13828.125000; 1.02248E-4
13833.984375; 9.99526E-5
13839.843750; 9.40434E-5
13845.703125; 9.55417E-5
13851.562500; 1.08564E-4
13857.421875; 1.12185E-4
13863.281250; 1.05071E-4
13869.140625; 1.06702E-4
13875.000000; 1.02835E-4
13880.859375; 9.50808E-5
13886.718750; 1.00634E-4
13892.578125; 1.02473E-4
13898.437500; 1.10110E-4
13904.296875; 1.05473E-4
13910.156250; 1.11571E-4
13916.015625; 1.00447E-4
13921.875000; 1.13234E-4
13927.734375; 1.09501E-4
13933.593750; 1.01798E-4
13939.453125; 1.00220E-4
13945.312500; 9.82270E-5
13951.171875; 9.90365E-5
13957.031250; 1.07578E-4
13962.890625; 9.71718E-5
13968.750000; 8.97447E-5
13974.609375; 9.84959E-5
13980.468750; 8.72899E-5
13986.328125; 8.88442E-5
13992.187500; 9.95027E-5
13998.046875; 1.04159E-4
14003.906250; 1.13480E-4
14009.765625; 1.07930E-4
14015.625000; 9.86161E-5
14021.484375; 1.13599E-4
14027.343750; 1.20182E-4
14033.203125; 1.12242E-4
14039.062500; 9.49977E-5
14044.921875; 1.01944E-4
14050.781250; 1.14771E-4
14056.640625; 1.06769E-4
14062.500000; 1.11902E-4
14068.359375; 9.41925E-5
14074.218750; 9.85928E-5
14080.078125; 1.11705E-4
14085.937500; 1.14565E-4
14091.796875; 1.10074E-4
14097.656250; 1.13178E-4
14103.515625; 1.01014E-4
14109.375000; 9.55177E-5
14115.234375; 1.05766E-4
14121.093750; 1.10087E-4
14126.953125; 1.02978E-4
14132.812500; 1.11349E-4
14138.671875; 1.16232E-4
14144.531250; 1.12622E-4
14150.390625; 1.18414E-4
14156.250000; 1.18349E-4
14162.109375; 1.16026E-4
14167.968750; 1.22164E-4
14173.828125; 1.22683E-4
14179.687500; 1.16207E-4
14185.546875; 1.10673E-4
14191.406250; 1.07218E-4
14197.265625; 1.05838E-4
14203.125000; 1.12478E-4
14208.984375; 1.23726E-4
14214.843750; 1.06393E-4
14220.703125; 1.00093E-4
14226.562500; 1.11062E-4
14232.421875; 1.14663E-4
14238.281250; 1.09022E-4
14244.140625; 1.18131E-4
14250.000000; 1.14085E-4
14255.859375; 1.02094E-4
14261.718750; 9.59687E-5
14267.578125; 1.01116E-4
14273.437500; 9.35139E-5
14279.296875; 9.82760E-5
14285.156250; 1.06258E-4
14291.015625; 9.77396E-5
14296.875000; 1.15464E-4
14302.734375; 1.17048E-4
14308.593750; 1.01755E-4
14314.453125; 9.66602E-5
14320.312500; 1.04865E-4
14326.171875; 1.09078E-4
14332.031250; 1.14011E-4
14337.890625; 1.05204E-4
14343.750000; 9.87173E-5
14349.609375; 1.10695E-4
14355.468750; 1.09412E-4
14361.328125; 1.10088E-4
14367.187500; 1.07617E-4
14373.046875; 9.90278E-5
14378.906250; 9.97389E-5
14384.765625; 1.01770E-4
14390.625000; 1.08746E-4
14396.484375; 1.10983E-4
14402.343750; 1.07391E-4
14408.203125; 1.02583E-4
14414.062500; 1.15144E-4
14419.921875; 1.25449E-4
14425.781250; 1.02461E-4
14431.640625; 1.03317E-4
14437.500000; 1.12159E-4
14443.359375; 1.15268E-4
14449.218750; 1.03141E-4
14455.078125; 9.83351E-5
14460.937500; 1.03161E-4
14466.796875; 9.86374E-5
14472.656250; 1.02300E-4
14478.515625; 1.13528E-4
14484.375000; 1.11490E-4
14490.234375; 1.10883E-4
14496.093750; 1.00425E-4
14501.953125; 9.68162E-5
14507.812500; 1.01218E-4
14513.671875; 9.78261E-5
14519.531250; 9.83685E-5
14525.390625; 1.02021E-4
14531.250000; 9.32982E-5
14537.109375; 1.05789E-4
14542.968750; 1.04747E-4
14548.828125; 9.71684E-5
14554.687500; 9.05014E-5
14560.546875; 9.73926E-5
14566.406250; 1.05377E-4
14572.265625; 1.06812E-4
14578.125000; 9.88448E-5
14583.984375; 9.00668E-5
14589.843750; 9.23210E-5
14595.703125; 1.04704E-4
14601.562500; 1.00388E-4
14607.421875; 1.03480E-4
14613.281250; 1.06650E-4
14619.140625; 1.05295E-4
14625.000000; 1.07546E-4
14630.859375; 9.27187E-5
14636.718750; 8.96847E-5
14642.578125; 1.10239E-4
14648.437500; 1.17927E-4
14654.296875; 1.00643E-4
14660.156250; 1.08667E-4
14666.015625; 1.04764E-4
14671.875000; 9.28847E-5
14677.734375; 1.00918E-4
14683.593750; 9.87936E-5
14689.453125; 9.40703E-5
14695.312500; 9.77574E-5
14701.171875; 1.05748E-4
14707.031250; 1.08107E-4
14712.890625; 1.03316E-4
14718.750000; 9.96573E-5
14724.609375; 9.57983E-5
14730.468750; 1.05089E-4
14736.328125; 1.02927E-4
14742.187500; 1.10916E-4
14748.046875; 1.09082E-4
14753.906250; 1.09855E-4
14759.765625; 1.06250E-4
14765.625000; 1.00878E-4
14771.484375; 1.08252E-4
14777.343750; 9.57891E-5
14783.203125; 9.16464E-5
14789.062500; 1.07652E-4
14794.921875; 1.04059E-4
14800.781250; 1.02710E-4
14806.640625; 1.13677E-4
14812.500000; 1.06369E-4
14818.359375; 1.15263E-4
14824.218750; 1.13777E-4
14830.078125; 1.07701E-4
14835.937500; 1.02466E-4
14841.796875; 1.10602E-4
14847.656250; 1.03766E-4
14853.515625; 9.97566E-5
14859.375000; 1.09868E-4
14865.234375; 1.07131E-4
14871.093750; 1.04537E-4
14876.953125; 1.02141E-4
14882.812500; 1.04547E-4
14888.671875; 1.04784E-4
14894.531250; 1.13263E-4
14900.390625; 1.09249E-4
14906.250000; 9.64587E-5
14912.109375; 1.03079E-4
14917.968750; 1.03628E-4
14923.828125; 1.09019E-4
14929.687500; 1.04930E-4
14935.546875; 1.01168E-4
14941.406250; 1.15959E-4
14947.265625; 1.08958E-4
14953.125000; 1.05511E-4
14958.984375; 1.04614E-4
14964.843750; 1.20968E-4
14970.703125; 1.17220E-4
14976.562500; 1.02480E-4
14982.421875; 9.78708E-5
14988.281250; 9.68707E-5
14994.140625; 1.00763E-4
15000.000000; 1.09898E-4
15005.859375; 1.02912E-4
15011.718750; 9.80092E-5
15017.578125; 1.07403E-4
15023.437500; 1.11832E-4
15029.296875; 1.18680E-4
15035.156250; 1.11751E-4
15041.015625; 9.41067E-5
15046.875000; 9.94148E-5
15052.734375; 1.04318E-4
15058.593750; 9.83596E-5
15064.453125; 1.01705E-4
15070.312500; 9.67714E-5
15076.171875; 9.41641E-5
15082.031250; 9.59651E-5
15087.890625; 1.04480E-4
15093.750000; 1.14050E-4
15099.609375; 1.06856E-4
15105.468750; 9.38613E-5
15111.328125; 9.30932E-5
15117.187500; 9.73189E-5
15123.046875; 9.93891E-5
15128.906250; 1.03722E-4
15134.765625; 9.85949E-5
15140.625000; 1.05399E-4
15146.484375; 1.12802E-4
15152.343750; 9.83203E-5
15158.203125; 1.00351E-4
15164.062500; 9.70911E-5
15169.921875; 1.08106E-4
15175.781250; 9.42212E-5
15181.640625; 9.84658E-5
15187.500000; 1.11554E-4
15193.359375; 1.08018E-4
15199.218750; 1.10220E-4
15205.078125; 1.03417E-4
15210.937500; 9.30593E-5
15216.796875; 9.84680E-5
15222.656250; 1.06519E-4
15228.515625; 1.09273E-4
15234.375000; 1.02137E-4
15240.234375; 1.08061E-4
15246.093750; 1.07844E-4
15251.953125; 1.01875E-4
15257.812500; 1.08857E-4
15263.671875; 1.04877E-4
15269.531250; 1.13942E-4
15275.390625; 1.24519E-4
15281.250000; 1.18973E-4
15287.109375; 1.13157E-4
15292.968750; 1.11591E-4
15298.828125; 1.16593E-4
15304.687500; 1.12915E-4
15310.546875; 9.97801E-5
15316.406250; 1.07509E-4
15322.265625; 1.06796E-4
15328.125000; 1.10882E-4
15333.984375; 1.02646E-4
15339.843750; 9.93596E-5
15345.703125; 1.05172E-4
15351.562500; 9.93376E-5
15357.421875; 9.86145E-5
15363.281250; 1.04822E-4
15369.140625; 8.61344E-5
15375.000000; 1.06193E-4
15380.859375; 1.05564E-4
15386.718750; 1.01858E-4
15392.578125; 1.09427E-4
15398.437500; 1.10064E-4
15404.296875; 1.23784E-4
15410.156250; 1.10720E-4
15416.015625; 9.84344E-5
15421.875000; 8.76259E-5
15427.734375; 9.98558E-5
15433.593750; 1.17658E-4
15439.453125; 1.14582E-4
15445.312500; 1.07015E-4
15451.171875; 1.19880E-4
15457.031250; 1.20190E-4
15462.890625; 1.09548E-4
15468.750000; 1.08780E-4
15474.609375; 1.11468E-4
15480.468750; 1.07546E-4
15486.328125; 9.95820E-5
15492.187500; 1.06032E-4
15498.046875; 1.19115E-4
15503.906250; 1.19855E-4
15509.765625; 1.17672E-4
15515.625000; 1.00033E-4
15521.484375; 1.02521E-4
15527.343750; 1.06099E-4
15533.203125; 1.07725E-4
15539.062500; 1.20172E-4
15544.921875; 1.19982E-4
15550.781250; 1.07334E-4
15556.640625; 1.03073E-4
15562.500000; 1.08811E-4
15568.359375; 1.07382E-4
15574.218750; 1.01706E-4
15580.078125; 9.44159E-5
15585.937500; 9.51594E-5
15591.796875; 1.01415E-4
15597.656250; 1.02314E-4
15603.515625; 1.05664E-4
15609.375000; 9.57120E-5
15615.234375; 9.06399E-5
15621.093750; 1.06473E-4
15626.953125; 1.02270E-4
15632.812500; 9.90094E-5
15638.671875; 1.13238E-4
15644.531250; 1.16267E-4
15650.390625; 1.10345E-4
15656.250000; 1.01026E-4
15662.109375; 9.35814E-5
15667.968750; 9.76046E-5
15673.828125; 1.04878E-4
15679.687500; 1.11711E-4
15685.546875; 1.00254E-4
15691.406250; 1.04031E-4
15697.265625; 1.03102E-4
15703.125000; 1.09367E-4
15708.984375; 1.13840E-4
15714.843750; 1.05969E-4
15720.703125; 1.03109E-4
15726.562500; 1.02382E-4
15732.421875; 1.08738E-4
15738.281250; 1.09305E-4
15744.140625; 1.14898E-4
15750.000000; 1.12205E-4
15755.859375; 1.09852E-4
15761.718750; 1.13752E-4
15767.578125; 1.22128E-4
15773.437500; 1.14803E-4
15779.296875; 9.45060E-5
15785.156250; 9.09631E-5
15791.015625; 1.00693E-4
15796.875000; 1.04582E-4
15802.734375; 1.04754E-4
15808.593750; 1.07461E-4
15814.453125; 1.10461E-4
15820.312500; 1.01107E-4
15826.171875; 1.05419E-4
15832.031250; 1.01813E-4
15837.890625; 1.08611E-4
15843.750000; 1.12590E-4
15849.609375; 1.18326E-4
15855.468750; 1.08188E-4
15861.328125; 1.03457E-4
15867.187500; 1.08783E-4
15873.046875; 1.01754E-4
15878.906250; 1.02658E-4
15884.765625; 1.11747E-4
15890.625000; 1.07965E-4
15896.484375; 1.05196E-4
15902.343750; 1.04016E-4
15908.203125; 1.07340E-4
15914.062500; 1.05964E-4
15919.921875; 1.04701E-4
15925.781250; 1.02149E-4
15931.640625; 1.00740E-4
15937.500000; 1.01452E-4
15943.359375; 1.11232E-4
15949.218750; 1.10208E-4
15955.078125; 1.04070E-4
15960.937500; 1.07861E-4
15966.796875; 1.17887E-4
15972.656250; 1.08660E-4
15978.515625; 1.08803E-4
15984.375000; 1.04423E-4
15990.234375; 1.06591E-4
15996.093750; 9.93073E-5
16001.953125; 9.22993E-5
16007.812500; 8.65121E-5
16013.671875; 1.01090E-4
16019.531250; 1.11401E-4
16025.390625; 1.10108E-4
16031.250000; 1.13192E-4
16037.109375; 1.08007E-4
16042.968750; 1.13547E-4
16048.828125; 1.14113E-4
16054.687500; 1.11103E-4
16060.546875; 1.12341E-4
16066.406250; 1.10950E-4
16072.265625; 1.16085E-4
16078.125000; 1.14336E-4
16083.984375; 1.21107E-4
16089.843750; 1.17971E-4
16095.703125; 1.04206E-4
16101.562500; 1.00704E-4
16107.421875; 1.04842E-4
16113.281250; 1.01326E-4
16119.140625; 1.04249E-4
16125.000000; 1.13719E-4
16130.859375; 1.04412E-4
16136.718750; 1.00071E-4
16142.578125; 1.02597E-4
16148.437500; 1.05473E-4
16154.296875; 1.01946E-4
16160.156250; 9.95620E-5
16166.015625; 1.11595E-4
16171.875000; 9.93514E-5
16177.734375; 9.57983E-5
16183.593750; 1.09554E-4
16189.453125; 1.01832E-4
16195.312500; 9.71239E-5
16201.171875; 1.11405E-4
16207.031250; 1.24783E-4
16212.890625; 1.06536E-4
16218.750000; 1.00045E-4
16224.609375; 1.09184E-4
16230.468750; 1.09388E-4
16236.328125; 1.02333E-4
16242.187500; 9.68048E-5
16248.046875; 9.70514E-5
16253.906250; 1.03651E-4
16259.765625; 1.16473E-4
16265.625000; 1.10696E-4
16271.484375; 1.09109E-4
16277.343750; 1.00761E-4
16283.203125; 1.07547E-4
16289.062500; 1.14667E-4
16294.921875; 1.19354E-4
16300.781250; 1.17958E-4
16306.640625; 1.01747E-4
16312.500000; 1.09382E-4
16318.359375; 1.11079E-4
16324.218750; 1.10806E-4
16330.078125; 1.06172E-4
16335.937500; 1.13758E-4
16341.796875; 1.14258E-4
16347.656250; 1.07703E-4
16353.515625; 1.02900E-4
16359.375000; 1.01141E-4
16365.234375; 1.14005E-4
16371.093750; 1.11881E-4
16376.953125; 1.14890E-4
16382.812500; 1.05479E-4
16388.671875; 9.23437E-5
16394.531250; 1.03524E-4
16400.390625; 1.17536E-4
16406.250000; 1.11311E-4
16412.109375; 1.03275E-4
16417.968750; 1.03182E-4
16423.828125; 9.77373E-5
16429.687500; 1.15617E-4
16435.546875; 1.18747E-4
16441.406250; 1.11997E-4
16447.265625; 1.00189E-4
16453.125000; 9.94967E-5
16458.984375; 1.11048E-4
16464.843750; 1.07531E-4
16470.703125; 1.07938E-4
16476.562500; 1.16875E-4
16482.421875; 1.10348E-4
16488.281250; 1.06616E-4
16494.140625; 1.07130E-4
16500.000000; 1.01740E-4
16505.859375; 9.48539E-5
16511.718750; 1.02193E-4
16517.578125; 1.03318E-4
16523.437500; 1.06712E-4
16529.296875; 1.05786E-4
16535.156250; 1.02809E-4
16541.015625; 1.01420E-4
16546.875000; 9.61648E-5
16552.734375; 1.04319E-4
16558.593750; 1.01084E-4
16564.453125; 1.01961E-4
16570.312500; 1.02799E-4
16576.171875; 9.50987E-5
16582.031250; 1.03992E-4
16587.890625; 1.16219E-4
16593.750000; 1.16402E-4
16599.609375; 1.09139E-4
16605.468750; 1.15364E-4
16611.328125; 1.00453E-4
16617.187500; 9.70860E-5
16623.046875; 9.74314E-5
16628.906250; 1.00343E-4
16634.765625; 1.15504E-4
16640.625000; 9.61432E-5
16646.484375; 1.00123E-4
16652.343750; 1.01652E-4
16658.203125; 1.01768E-4
16664.062500; 1.00219E-4
16669.921875; 1.00049E-4
16675.781250; 1.01697E-4
16681.640625; 1.09243E-4
16687.500000; 1.10747E-4
16693.359375; 1.06682E-4
16699.218750; 1.00986E-4
16705.078125; 1.07819E-4
16710.937500; 1.02774E-4
16716.796875; 1.00217E-4
16722.656250; 1.16049E-4
16728.515625; 1.10642E-4
16734.375000; 1.01643E-4
16740.234375; 1.08411E-4
16746.093750; 1.04859E-4
16751.953125; 9.86918E-5
16757.812500; 1.07214E-4
16763.671875; 1.09532E-4
16769.531250; 1.06817E-4
16775.390625; 9.38824E-5
16781.250000; 9.01248E-5
16787.109375; 1.00218E-4
16792.968750; 1.00308E-4
16798.828125; 1.09571E-4
16804.687500; 1.12677E-4
16810.546875; 1.09472E-4
16816.406250; 1.08093E-4
16822.265625; 1.12755E-4
16828.125000; 1.09061E-4
16833.984375; 1.18020E-4
16839.843750; 1.16671E-4
16845.703125; 1.05467E-4
16851.562500; 1.05118E-4
16857.421875; 9.40583E-5
16863.281250; 9.61126E-5
16869.140625; 9.70836E-5
16875.000000; 1.02428E-4
16880.859375; 9.89943E-5
16886.718750; 9.91680E-5
16892.578125; 9.91273E-5
16898.437500; 1.09345E-4
16904.296875; 1.11335E-4
16910.156250; 1.01969E-4
16916.015625; 1.03392E-4
16921.875000; 1.03640E-4
16927.734375; 1.07440E-4
16933.593750; 1.03056E-4
16939.453125; 1.03887E-4
16945.312500; 1.01313E-4
16951.171875; 9.67394E-5
16957.031250; 1.09465E-4
16962.890625; 1.09151E-4
16968.750000; 9.97804E-5
16974.609375; 1.01373E-4
16980.468750; 1.06163E-4
16986.328125; 1.06240E-4
16992.187500; 1.06218E-4
16998.046875; 9.00870E-5
17003.906250; 8.70614E-5
17009.765625; 9.81548E-5
17015.625000; 9.42166E-5
17021.484375; 9.05298E-5
17027.343750; 9.39528E-5
17033.203125; 1.09775E-4
17039.062500; 1.11039E-4
17044.921875; 1.04744E-4
17050.781250; 9.71573E-5
17056.640625; 9.30888E-5
17062.500000; 1.09197E-4
17068.359375; 1.08216E-4
17074.218750; 9.84819E-5
17080.078125; 9.99080E-5
17085.937500; 1.00705E-4
17091.796875; 1.06957E-4
17097.656250; 1.05644E-4
17103.515625; 1.11486E-4
17109.375000; 1.22180E-4
17115.234375; 1.17313E-4
17121.093750; 1.06058E-4
17126.953125; 1.06099E-4
17132.812500; 9.99417E-5
17138.671875; 1.01093E-4
17144.531250; 1.01512E-4
17150.390625; 9.29748E-5
17156.250000; 9.91934E-5
17162.109375; 1.08873E-4
17167.968750; 1.09934E-4
17173.828125; 1.09882E-4
17179.687500; 1.11659E-4
17185.546875; 1.10731E-4
17191.406250; 9.90102E-5
17197.265625; 9.09157E-5
17203.125000; 9.50009E-5
17208.984375; 9.57204E-5
17214.843750; 9.34002E-5
17220.703125; 1.07334E-4
17226.562500; 1.12272E-4
17232.421875; 1.11546E-4
17238.281250; 9.71580E-5
17244.140625; 9.60995E-5
17250.000000; 1.12130E-4
17255.859375; 1.06034E-4
17261.718750; 1.00593E-4
17267.578125; 1.09723E-4
17273.437500; 1.08657E-4
17279.296875; 1.11253E-4
17285.156250; 1.10245E-4
17291.015625; 1.08638E-4
17296.875000; 9.06853E-5
17302.734375; 9.39429E-5
17308.593750; 9.94351E-5
17314.453125; 9.97497E-5
17320.312500; 9.45989E-5
17326.171875; 9.60915E-5
17332.031250; 9.98978E-5
17337.890625; 1.00657E-4
17343.750000; 1.00700E-4
17349.609375; 1.06510E-4
17355.468750; 1.05051E-4
17361.328125; 1.13980E-4
17367.187500; 9.90058E-5
17373.046875; 1.05471E-4
17378.906250; 1.09383E-4
17384.765625; 9.99494E-5
17390.625000; 1.03180E-4
17396.484375; 1.16855E-4
17402.343750; 1.26070E-4
17408.203125; 1.06044E-4
17414.062500; 9.92446E-5
17419.921875; 1.01280E-4
17425.781250; 1.04808E-4
17431.640625; 1.04560E-4
17437.500000; 9.44708E-5
17443.359375; 1.00708E-4
17449.218750; 1.01274E-4
17455.078125; 9.15114E-5
17460.937500; 8.76982E-5
17466.796875; 9.17416E-5
17472.656250; 1.06196E-4
17478.515625; 1.19100E-4
17484.375000; 1.06793E-4
17490.234375; 9.74101E-5
17496.093750; 1.04008E-4
17501.953125; 1.11149E-4
17507.812500; 1.02807E-4
17513.671875; 1.05557E-4
17519.531250; 9.43628E-5
17525.390625; 9.71225E-5
17531.250000; 1.04233E-4
17537.109375; 1.09547E-4
17542.968750; 1.15341E-4
17548.828125; 1.01693E-4
17554.687500; 9.16422E-5
17560.546875; 1.06125E-4
17566.406250; 1.10799E-4
17572.265625; 1.14681E-4
17578.125000; 1.20168E-4
17583.984375; 1.00057E-4
17589.843750; 9.30642E-5
17595.703125; 9.39299E-5
17601.562500; 1.10154E-4
17607.421875; 1.14179E-4
17613.281250; 1.07348E-4
17619.140625; 1.08662E-4
17625.000000; 1.08886E-4
17630.859375; 1.05950E-4
17636.718750; 1.02949E-4
17642.578125; 1.00620E-4
17648.437500; 9.45826E-5
17654.296875; 1.03777E-4
17660.156250; 1.05751E-4
17666.015625; 1.01158E-4
17671.875000; 9.30288E-5
17677.734375; 9.24891E-5
17683.593750; 1.08459E-4
17689.453125; 1.08676E-4
17695.312500; 1.02375E-4
17701.171875; 1.12587E-4
17707.031250; 1.10679E-4
17712.890625; 1.11332E-4
17718.750000; 1.06852E-4
17724.609375; 1.04583E-4
17730.468750; 1.09848E-4
17736.328125; 1.01820E-4
17742.187500; 1.09939E-4
17748.046875; 1.05044E-4
17753.906250; 1.13005E-4
17759.765625; 9.52334E-5
17765.625000; 9.70916E-5
17771.484375; 1.07683E-4
17777.343750; 1.05506E-4
17783.203125; 9.59150E-5
17789.062500; 1.02205E-4
17794.921875; 1.09379E-4
17800.781250; 9.61654E-5
17806.640625; 1.02472E-4
17812.500000; 1.10343E-4
17818.359375; 1.01247E-4
17824.218750; 1.00032E-4
17830.078125; 1.08192E-4
17835.937500; 9.63390E-5
17841.796875; 9.26280E-5
17847.656250; 9.72683E-5
17853.515625; 1.05701E-4
17859.375000; 1.10719E-4
17865.234375; 9.88526E-5
17871.093750; 1.00066E-4
17876.953125; 9.83204E-5
17882.812500; 9.69688E-5
17888.671875; 9.96078E-5
17894.531250; 1.06698E-4
17900.390625; 1.04112E-4
17906.250000; 1.01619E-4
17912.109375; 9.99238E-5
17917.968750; 9.71877E-5
17923.828125; 1.04838E-4
17929.687500; 1.03521E-4
17935.546875; 1.11814E-4
17941.406250; 1.15390E-4
17947.265625; 1.08855E-4
17953.125000; 9.57298E-5
17958.984375; 1.02507E-4
17964.843750; 1.06540E-4
17970.703125; 1.08173E-4
17976.562500; 1.08328E-4
17982.421875; 1.07009E-4
17988.281250; 1.02918E-4
17994.140625; 1.00461E-4
18000.000000; 1.02940E-4
18005.859375; 1.05247E-4
18011.718750; 9.84069E-5
18017.578125; 1.03210E-4
18023.437500; 1.03294E-4
18029.296875; 9.73459E-5
18035.156250; 9.77418E-5
18041.015625; 1.03939E-4
18046.875000; 9.90456E-5
18052.734375; 9.92542E-5
18058.593750; 1.06110E-4
18064.453125; 1.14185E-4
18070.312500; 1.10553E-4
18076.171875; 1.01936E-4
18082.031250; 8.87787E-5
18087.890625; 1.05826E-4
18093.750000; 1.04795E-4
18099.609375; 1.01133E-4
18105.468750; 1.06447E-4
18111.328125; 1.04324E-4
18117.187500; 1.04127E-4
18123.046875; 1.04892E-4
18128.906250; 1.02421E-4
18134.765625; 1.14344E-4
18140.625000; 1.15621E-4
18146.484375; 1.05217E-4
18152.343750; 1.08544E-4
18158.203125; 1.06714E-4
18164.062500; 1.08856E-4
18169.921875; 1.05547E-4
18175.781250; 9.96806E-5
18181.640625; 9.80535E-5
18187.500000; 1.10189E-4
18193.359375; 1.17497E-4
18199.218750; 1.08444E-4
18205.078125; 1.01662E-4
18210.937500; 1.03361E-4
18216.796875; 9.63862E-5
18222.656250; 1.00036E-4
18228.515625; 1.06723E-4
18234.375000; 1.15711E-4
18240.234375; 1.10071E-4
18246.093750; 1.03248E-4
18251.953125; 9.91303E-5
18257.812500; 8.79105E-5
18263.671875; 8.95365E-5
18269.531250; 1.04317E-4
18275.390625; 1.12762E-4
18281.250000; 1.13612E-4
18287.109375; 1.05519E-4
18292.968750; 1.10463E-4
18298.828125; 1.11240E-4
18304.687500; 9.50060E-5
18310.546875; 9.81759E-5
18316.406250; 9.75689E-5
18322.265625; 9.54981E-5
18328.125000; 9.33336E-5
18333.984375; 1.04507E-4
18339.843750; 9.53387E-5
18345.703125; 9.74068E-5
18351.562500; 1.06745E-4
18357.421875; 9.85908E-5
18363.281250; 1.04318E-4
18369.140625; 1.00670E-4
18375.000000; 9.69486E-5
18380.859375; 1.04415E-4
18386.718750; 1.13323E-4
18392.578125; 9.81867E-5
18398.437500; 9.79530E-5
18404.296875; 9.97860E-5
18410.156250; 9.72502E-5
18416.015625; 1.12052E-4
18421.875000; 1.18723E-4
18427.734375; 9.75034E-5
18433.593750; 1.07367E-4
18439.453125; 1.12107E-4
18445.312500; 1.03904E-4
18451.171875; 9.68155E-5
18457.031250; 9.60667E-5
18462.890625; 9.81770E-5
18468.750000; 1.00349E-4
18474.609375; 1.11121E-4
18480.468750; 1.06105E-4
18486.328125; 1.05068E-4
18492.187500; 1.01905E-4
18498.046875; 1.01097E-4
18503.906250; 9.80427E-5
18509.765625; 1.03833E-4
18515.625000; 1.11880E-4
18521.484375; 1.08691E-4
18527.343750; 1.02680E-4
18533.203125; 1.05342E-4
18539.062500; 9.55558E-5
18544.921875; 8.80113E-5
18550.781250; 8.63602E-5
18556.640625; 1.04640E-4
18562.500000; 9.86514E-5
18568.359375; 1.00993E-4
18574.218750; 1.08119E-4
18580.078125; 1.05571E-4
18585.937500; 9.15453E-5
18591.796875; 8.67118E-5
18597.656250; 9.74345E-5
18603.515625; 9.72307E-5
18609.375000; 8.61313E-5
18615.234375; 1.05803E-4
18621.093750; 1.12394E-4
18626.953125; 1.07183E-4
18632.812500; 1.10923E-4
18638.671875; 1.11821E-4
18644.531250; 1.08286E-4
18650.390625; 1.20356E-4
18656.250000; 1.21233E-4
18662.109375; 1.20706E-4
18667.968750; 1.14188E-4
18673.828125; 1.06381E-4
18679.687500; 9.77234E-5
18685.546875; 9.44381E-5
18691.406250; 1.07307E-4
18697.265625; 1.18936E-4
18703.125000; 1.04311E-4
18708.984375; 1.03874E-4
18714.843750; 9.64665E-5
18720.703125; 1.01445E-4
18726.562500; 1.18581E-4
18732.421875; 1.06901E-4
18738.281250; 1.03025E-4
18744.140625; 1.04555E-4
18750.000000; 1.03752E-4
18755.859375; 1.03566E-4
18761.718750; 1.02851E-4
18767.578125; 1.02870E-4
18773.437500; 1.13145E-4
18779.296875; 1.10427E-4
18785.156250; 9.50290E-5
18791.015625; 9.01117E-5
18796.875000; 1.11443E-4
18802.734375; 1.19581E-4
18808.593750; 1.08327E-4
18814.453125; 9.55659E-5
18820.312500; 1.02412E-4
18826.171875; 1.05996E-4
18832.031250; 1.06026E-4
18837.890625; 1.18664E-4
18843.750000; 9.92996E-5
18849.609375; 1.09869E-4
18855.468750; 1.17594E-4
18861.328125; 1.20457E-4
18867.187500; 1.17071E-4
18873.046875; 1.14506E-4
18878.906250; 1.04746E-4
18884.765625; 1.00374E-4
18890.625000; 9.47486E-5
18896.484375; 9.56051E-5
18902.343750; 1.14447E-4
18908.203125; 1.01625E-4
18914.062500; 1.03126E-4
18919.921875; 1.10611E-4
18925.781250; 1.09935E-4
18931.640625; 1.08031E-4
18937.500000; 1.11208E-4
18943.359375; 9.94368E-5
18949.218750; 1.05511E-4
18955.078125; 1.12839E-4
18960.937500; 1.16853E-4
18966.796875; 1.08701E-4
18972.656250; 1.02677E-4
18978.515625; 1.07593E-4
18984.375000; 1.11593E-4
18990.234375; 1.09887E-4
18996.093750; 1.10094E-4
19001.953125; 1.17588E-4
19007.812500; 1.15250E-4
19013.671875; 1.11540E-4
19019.531250; 9.94758E-5
19025.390625; 9.61148E-5
19031.250000; 9.53598E-5
19037.109375; 1.00912E-4
19042.968750; 1.06661E-4
19048.828125; 1.06000E-4
19054.687500; 1.06895E-4
19060.546875; 1.02881E-4
19066.406250; 1.07727E-4
19072.265625; 1.14428E-4
19078.125000; 1.13108E-4
19083.984375; 1.00872E-4
19089.843750; 9.34327E-5
19095.703125; 1.00056E-4
19101.562500; 9.73916E-5
19107.421875; 9.82918E-5
19113.281250; 9.06818E-5
19119.140625; 9.83635E-5
19125.000000; 1.09155E-4
19130.859375; 1.14556E-4
19136.718750; 9.64209E-5
19142.578125; 1.01337E-4
19148.437500; 9.85300E-5
19154.296875; 1.04691E-4
19160.156250; 1.12470E-4
19166.015625; 1.10158E-4
19171.875000; 1.02888E-4
19177.734375; 1.10111E-4
19183.593750; 1.03331E-4
19189.453125; 9.38436E-5
19195.312500; 9.49636E-5
19201.171875; 1.05638E-4
19207.031250; 1.11514E-4
19212.890625; 1.04093E-4
19218.750000; 1.16379E-4
19224.609375; 1.13293E-4
19230.468750; 1.07883E-4
19236.328125; 9.78239E-5
19242.187500; 9.99889E-5
19248.046875; 1.09220E-4
19253.906250; 1.01775E-4
19259.765625; 9.72640E-5
19265.625000; 9.65155E-5
19271.484375; 1.02384E-4
19277.343750; 1.06769E-4
19283.203125; 1.11083E-4
19289.062500; 1.09099E-4
19294.921875; 1.04950E-4
19300.781250; 9.71022E-5
19306.640625; 9.26036E-5
19312.500000; 9.15833E-5
19318.359375; 9.59070E-5
19324.218750; 9.20659E-5
19330.078125; 1.00565E-4
19335.937500; 1.09408E-4
19341.796875; 1.13919E-4
19347.656250; 1.09889E-4
19353.515625; 1.09964E-4
19359.375000; 1.01508E-4
19365.234375; 1.07843E-4
19371.093750; 1.07225E-4
19376.953125; 1.06742E-4
19382.812500; 1.09041E-4
19388.671875; 1.13290E-4
19394.531250; 1.01188E-4
19400.390625; 8.92926E-5
19406.250000; 9.79864E-5
19412.109375; 9.57294E-5
19417.968750; 1.05470E-4
19423.828125; 1.11336E-4
19429.687500; 1.04771E-4
19435.546875; 9.53656E-5
19441.406250; 1.02886E-4
19447.265625; 1.02388E-4
19453.125000; 1.11322E-4
19458.984375; 1.14143E-4
19464.843750; 1.04634E-4
19470.703125; 1.01854E-4
19476.562500; 9.07480E-5
19482.421875; 8.87015E-5
19488.281250; 9.91579E-5
19494.140625; 1.07608E-4
19500.000000; 1.17929E-4
19505.859375; 1.13437E-4
19511.718750; 9.35120E-5
19517.578125; 1.02660E-4
19523.437500; 9.90177E-5
19529.296875; 9.83685E-5
19535.156250; 9.63892E-5
19541.015625; 9.79026E-5
19546.875000; 1.17256E-4
19552.734375; 1.10071E-4
19558.593750; 9.93527E-5
19564.453125; 9.68009E-5
19570.312500; 1.03609E-4
19576.171875; 1.04308E-4
19582.031250; 9.28969E-5
19587.890625; 9.50190E-5
19593.750000; 1.01742E-4
19599.609375; 9.60536E-5
19605.468750; 9.86424E-5
19611.328125; 1.01854E-4
19617.187500; 9.50822E-5
19623.046875; 9.44166E-5
19628.906250; 9.69674E-5
19634.765625; 9.34327E-5
19640.625000; 9.33607E-5
19646.484375; 1.01970E-4
19652.343750; 9.93631E-5
19658.203125; 9.45231E-5
19664.062500; 1.07646E-4
19669.921875; 1.13904E-4
19675.781250; 1.13701E-4
19681.640625; 1.09555E-4
19687.500000; 1.08795E-4
19693.359375; 1.04485E-4
19699.218750; 1.02352E-4
19705.078125; 1.04784E-4
19710.937500; 1.01363E-4
19716.796875; 9.64313E-5
19722.656250; 1.06434E-4
19728.515625; 1.18769E-4
19734.375000; 9.74733E-5
19740.234375; 9.32401E-5
19746.093750; 9.27098E-5
19751.953125; 1.02354E-4
19757.812500; 1.07336E-4
19763.671875; 1.07746E-4
19769.531250; 1.03916E-4
19775.390625; 1.04139E-4
19781.250000; 1.02080E-4
19787.109375; 9.25022E-5
19792.968750; 9.85535E-5
19798.828125; 1.16371E-4
19804.687500; 1.09089E-4
19810.546875; 1.05123E-4
19816.406250; 1.06687E-4
19822.265625; 1.03410E-4
19828.125000; 9.81680E-5
19833.984375; 1.02400E-4
19839.843750; 9.66382E-5
19845.703125; 1.01058E-4
19851.562500; 1.08326E-4
19857.421875; 1.01464E-4
19863.281250; 1.00242E-4
19869.140625; 1.06668E-4
19875.000000; 1.02693E-4
19880.859375; 1.05738E-4
19886.718750; 1.06931E-4
19892.578125; 9.81547E-5
19898.437500; 1.00987E-4
19904.296875; 9.42492E-5
19910.156250; 9.95905E-5
19916.015625; 1.03996E-4
19921.875000; 1.10953E-4
19927.734375; 1.07627E-4
19933.593750; 9.42504E-5
19939.453125; 8.99796E-5
19945.312500; 1.08444E-4
19951.171875; 1.12764E-4
19957.031250; 9.63943E-5
19962.890625; 9.77488E-5
19968.750000; 9.51204E-5
19974.609375; 9.95852E-5
19980.468750; 1.01065E-4
19986.328125; 9.63018E-5
19992.187500; 9.56672E-5
19998.046875; 1.10483E-4
20003.906250; 1.04169E-4
20009.765625; 1.12320E-4
20015.625000; 9.91492E-5
20021.484375; 1.08447E-4
20027.343750; 1.05380E-4
20033.203125; 1.11736E-4
20039.062500; 1.14059E-4
20044.921875; 1.02932E-4
20050.781250; 1.00255E-4
20056.640625; 9.57744E-5
20062.500000; 9.66728E-5
20068.359375; 9.69892E-5
20074.218750; 9.93894E-5
20080.078125; 1.02015E-4
20085.937500; 1.07219E-4
20091.796875; 1.03571E-4
20097.656250; 9.83781E-5
20103.515625; 1.05012E-4
20109.375000; 1.04149E-4
20115.234375; 1.07013E-4
20121.093750; 1.13321E-4
20126.953125; 1.01804E-4
20132.812500; 1.00958E-4
20138.671875; 9.60680E-5
20144.531250; 1.01034E-4
20150.390625; 1.08565E-4
20156.250000; 1.12055E-4
20162.109375; 1.09607E-4
20167.968750; 9.50170E-5
20173.828125; 9.70540E-5
20179.687500; 1.07752E-4
20185.546875; 1.04454E-4
20191.406250; 1.06977E-4
20197.265625; 1.10417E-4
20203.125000; 1.11650E-4
20208.984375; 1.02443E-4
20214.843750; 1.03902E-4
20220.703125; 1.11342E-4
20226.562500; 1.03266E-4
20232.421875; 1.05936E-4
20238.281250; 1.00358E-4
20244.140625; 9.70417E-5
20250.000000; 1.05147E-4
20255.859375; 1.01233E-4
20261.718750; 1.04994E-4
20267.578125; 1.02449E-4
20273.437500; 1.09977E-4
20279.296875; 1.03807E-4
20285.156250; 9.98276E-5
20291.015625; 1.04507E-4
20296.875000; 1.10636E-4
20302.734375; 1.03693E-4
20308.593750; 1.00831E-4
20314.453125; 1.00973E-4
20320.312500; 9.98242E-5
20326.171875; 1.03341E-4
20332.031250; 1.03458E-4
20337.890625; 1.02700E-4
20343.750000; 1.00115E-4
20349.609375; 9.55331E-5
20355.468750; 1.00084E-4
20361.328125; 9.72190E-5
20367.187500; 9.99977E-5
20373.046875; 1.03501E-4
20378.906250; 1.13329E-4
20384.765625; 1.12261E-4
20390.625000; 1.07338E-4
20396.484375; 9.96290E-5
20402.343750; 1.07331E-4
20408.203125; 1.02474E-4
20414.062500; 1.03469E-4
20419.921875; 9.27618E-5
20425.781250; 8.89416E-5
20431.640625; 9.13786E-5
20437.500000; 9.94617E-5
20443.359375; 9.59048E-5
20449.218750; 9.97353E-5
20455.078125; 1.12350E-4
20460.937500; 1.02885E-4
20466.796875; 1.00349E-4
20472.656250; 1.00616E-4
20478.515625; 1.13216E-4
20484.375000; 1.05795E-4
20490.234375; 9.74248E-5
20496.093750; 9.97305E-5
20501.953125; 1.05492E-4
20507.812500; 1.14880E-4
20513.671875; 9.37338E-5
20519.531250; 9.84814E-5
20525.390625; 1.02605E-4
20531.250000; 1.05912E-4
20537.109375; 1.08560E-4
20542.968750; 1.16813E-4
20548.828125; 1.12923E-4
20554.687500; 1.01215E-4
20560.546875; 1.04532E-4
20566.406250; 1.02474E-4
20572.265625; 1.06664E-4
20578.125000; 1.07513E-4
20583.984375; 1.04671E-4
20589.843750; 1.06699E-4
20595.703125; 1.17983E-4
20601.562500; 1.22451E-4
20607.421875; 1.22479E-4
20613.281250; 1.16842E-4
20619.140625; 1.10558E-4
20625.000000; 1.11708E-4
20630.859375; 1.09349E-4
20636.718750; 1.09411E-4
20642.578125; 9.23916E-5
20648.437500; 1.04719E-4
20654.296875; 1.03500E-4
20660.156250; 1.06275E-4
20666.015625; 1.03750E-4
20671.875000; 9.08588E-5
20677.734375; 9.26117E-5
20683.593750; 1.03026E-4
20689.453125; 1.00511E-4
20695.312500; 9.50514E-5
20701.171875; 1.01030E-4
20707.031250; 9.71659E-5
20712.890625; 9.85263E-5
20718.750000; 9.49967E-5
20724.609375; 1.11155E-4
20730.468750; 1.14345E-4
20736.328125; 1.02763E-4
20742.187500; 1.02413E-4
20748.046875; 1.02797E-4
20753.906250; 1.07001E-4
20759.765625; 9.84747E-5
20765.625000; 1.04621E-4
20771.484375; 1.06140E-4
20777.343750; 1.14739E-4
20783.203125; 1.15682E-4
20789.062500; 1.03269E-4
20794.921875; 9.70577E-5
20800.781250; 9.86189E-5
20806.640625; 1.01165E-4
20812.500000; 9.64620E-5
20818.359375; 8.98314E-5
20824.218750; 1.06616E-4
20830.078125; 1.16719E-4
20835.937500; 1.08318E-4
20841.796875; 8.72133E-5
20847.656250; 9.38368E-5
20853.515625; 9.03657E-5
20859.375000; 1.10404E-4
20865.234375; 1.05957E-4
20871.093750; 9.85185E-5
20876.953125; 9.48561E-5
20882.812500; 9.56153E-5
20888.671875; 9.95849E-5
20894.531250; 1.05812E-4
20900.390625; 1.05932E-4
20906.250000; 9.81014E-5
20912.109375; 9.30378E-5
20917.968750; 9.93866E-5
20923.828125; 1.07706E-4
20929.687500; 1.08678E-4
20935.546875; 1.12095E-4
20941.406250; 1.07298E-4
20947.265625; 9.63574E-5
20953.125000; 1.02051E-4
20958.984375; 1.03153E-4
20964.843750; 1.08684E-4
20970.703125; 1.04906E-4
20976.562500; 9.90095E-5
20982.421875; 9.81170E-5
20988.281250; 1.00790E-4
20994.140625; 9.75793E-5
21000.000000; 1.03727E-4
21005.859375; 1.12054E-4
21011.718750; 1.09926E-4
21017.578125; 1.00430E-4
21023.437500; 1.02416E-4
21029.296875; 1.04328E-4
21035.156250; 1.08478E-4
21041.015625; 1.05758E-4
21046.875000; 9.61248E-5
21052.734375; 1.05829E-4
21058.593750; 1.01422E-4
21064.453125; 1.05056E-4
21070.312500; 1.03296E-4
21076.171875; 1.05104E-4
21082.031250; 1.01040E-4
21087.890625; 1.05179E-4
21093.750000; 1.20504E-4
21099.609375; 1.05069E-4
21105.468750; 1.00077E-4
21111.328125; 9.62862E-5
21117.187500; 1.03851E-4
21123.046875; 1.08512E-4
21128.906250; 9.67442E-5
21134.765625; 9.66646E-5
21140.625000; 1.06088E-4
21146.484375; 1.05446E-4
21152.343750; 1.09050E-4
21158.203125; 1.15552E-4
21164.062500; 1.11895E-4
21169.921875; 1.11029E-4
21175.781250; 1.06737E-4
21181.640625; 9.79838E-5
21187.500000; 9.24611E-5
21193.359375; 9.98749E-5
21199.218750; 1.11495E-4
21205.078125; 1.01044E-4
21210.937500; 1.08299E-4
21216.796875; 1.20414E-4
21222.656250; 1.09043E-4
21228.515625; 1.03575E-4
21234.375000; 1.01228E-4
21240.234375; 1.05621E-4
21246.093750; 9.56869E-5
21251.953125; 9.83429E-5
21257.812500; 1.03066E-4
21263.671875; 1.06753E-4
21269.531250; 1.08672E-4
21275.390625; 1.18746E-4
21281.250000; 1.10147E-4
21287.109375; 1.02807E-4
21292.968750; 1.07140E-4
21298.828125; 9.62761E-5
21304.687500; 1.01489E-4
21310.546875; 1.10143E-4
21316.406250; 9.70225E-5
21322.265625; 1.05353E-4
21328.125000; 1.04115E-4
21333.984375; 1.07759E-4
21339.843750; 1.16386E-4
21345.703125; 9.87095E-5
21351.562500; 9.43147E-5
21357.421875; 9.17556E-5
21363.281250; 9.76857E-5
21369.140625; 9.02471E-5
21375.000000; 1.04773E-4
21380.859375; 1.08912E-4
21386.718750; 1.04197E-4
21392.578125; 9.84526E-5
21398.437500; 1.06362E-4
21404.296875; 1.05055E-4
21410.156250; 1.04073E-4
21416.015625; 9.22197E-5
21421.875000; 1.00602E-4
21427.734375; 1.04522E-4
21433.593750; 9.98126E-5
21439.453125; 9.50808E-5
21445.312500; 1.10919E-4
21451.171875; 1.12334E-4
21457.031250; 1.01180E-4
21462.890625; 8.25469E-5
21468.750000; 9.22813E-5
21474.609375; 1.03725E-4
21480.468750; 1.04951E-4
21486.328125; 1.01404E-4
21492.187500; 1.07705E-4
21498.046875; 1.08710E-4
21503.906250; 1.08022E-4
21509.765625; 9.62853E-5
21515.625000; 8.97343E-5
21521.484375; 9.50390E-5
21527.343750; 1.02904E-4
21533.203125; 1.16215E-4
21539.062500; 1.20938E-4
21544.921875; 1.10856E-4
21550.781250; 9.83424E-5
21556.640625; 1.00083E-4
21562.500000; 1.00896E-4
21568.359375; 1.06429E-4
21574.218750; 1.00838E-4
21580.078125; 9.84837E-5
21585.937500; 1.01109E-4
21591.796875; 9.69749E-5
21597.656250; 1.03070E-4
21603.515625; 1.09352E-4
21609.375000; 1.19303E-4
21615.234375; 1.05156E-4
21621.093750; 1.06161E-4
21626.953125; 1.06760E-4
21632.812500; 1.00159E-4
21638.671875; 1.00941E-4
21644.531250; 1.09378E-4
21650.390625; 1.12263E-4
21656.250000; 1.06586E-4
21662.109375; 9.72570E-5
21667.968750; 9.42070E-5
21673.828125; 9.29326E-5
21679.687500; 9.63363E-5
21685.546875; 1.06975E-4
21691.406250; 1.09621E-4
21697.265625; 1.08003E-4
21703.125000; 1.17081E-4
21708.984375; 1.16239E-4
21714.843750; 1.00996E-4
21720.703125; 9.99137E-5
21726.562500; 8.82104E-5
21732.421875; 9.15409E-5
21738.281250; 1.04960E-4
21744.140625; 1.07008E-4
21750.000000; 1.04925E-4
21755.859375; 1.04784E-4
21761.718750; 9.75738E-5
21767.578125; 1.05876E-4
21773.437500; 1.08115E-4
21779.296875; 9.84435E-5
21785.156250; 1.01713E-4
21791.015625; 1.12001E-4
21796.875000; 1.05228E-4
21802.734375; 9.41653E-5
21808.593750; 8.94081E-5
21814.453125; 9.28738E-5
21820.312500; 9.05952E-5
21826.171875; 1.01126E-4
21832.031250; 1.04055E-4
21837.890625; 1.08643E-4
21843.750000; 1.03900E-4
21849.609375; 1.01195E-4
21855.468750; 1.07460E-4
21861.328125; 9.60979E-5
21867.187500; 1.00385E-4
21873.046875; 1.04360E-4
21878.906250; 1.00521E-4
21884.765625; 9.49650E-5
21890.625000; 9.67683E-5
21896.484375; 9.35840E-5
21902.343750; 9.56448E-5
21908.203125; 1.03083E-4
21914.062500; 9.45551E-5
21919.921875; 1.00662E-4
21925.781250; 1.10091E-4
21931.640625; 9.88191E-5
21937.500000; 9.77514E-5
21943.359375; 1.08044E-4
21949.218750; 1.04346E-4
21955.078125; 1.10146E-4
21960.937500; 1.04327E-4
21966.796875; 1.03638E-4
21972.656250; 1.05879E-4
21978.515625; 1.06189E-4
21984.375000; 1.01200E-4
21990.234375; 8.42950E-5
21996.093750; 8.92066E-5
22001.953125; 9.40267E-5
22007.812500; 1.04146E-4
22013.671875; 1.03095E-4
22019.531250; 9.66724E-5
22025.390625; 1.01460E-4
22031.250000; 1.06978E-4
22037.109375; 1.01255E-4
22042.968750; 1.00751E-4
22048.828125; 1.15416E-4
22054.687500; 1.15176E-4
22060.546875; 9.94990E-5
22066.406250; 9.27045E-5
22072.265625; 1.07084E-4
22078.125000; 9.66461E-5
22083.984375; 9.55193E-5
22089.843750; 1.03289E-4
22095.703125; 9.52728E-5
22101.562500; 9.36535E-5
22107.421875; 9.50473E-5
22113.281250; 9.98030E-5
22119.140625; 8.80649E-5
22125.000000; 1.11012E-4
22130.859375; 1.09990E-4
22136.718750; 1.02515E-4
22142.578125; 1.07461E-4
22148.437500; 9.73962E-5
22154.296875; 9.04490E-5
22160.156250; 9.96262E-5
22166.015625; 8.93221E-5
22171.875000; 9.44900E-5
22177.734375; 1.05212E-4
22183.593750; 1.07129E-4
22189.453125; 1.10258E-4
22195.312500; 1.11482E-4
22201.171875; 1.09951E-4
22207.031250; 9.97103E-5
22212.890625; 8.64662E-5
22218.750000; 9.69567E-5
22224.609375; 1.05772E-4
22230.468750; 9.87188E-5
22236.328125; 1.00961E-4
22242.187500; 9.86188E-5
22248.046875; 9.33031E-5
22253.906250; 1.01326E-4
22259.765625; 1.03477E-4
22265.625000; 9.64132E-5
22271.484375; 1.00516E-4
22277.343750; 1.04607E-4
22283.203125; 9.90654E-5
22289.062500; 9.33468E-5
22294.921875; 8.91023E-5
22300.781250; 9.33590E-5
22306.640625; 8.84232E-5
22312.500000; 9.23581E-5
22318.359375; 1.06943E-4
22324.218750; 9.86367E-5
22330.078125; 9.63582E-5
22335.937500; 8.61723E-5
22341.796875; 8.23394E-5
22347.656250; 9.32556E-5
22353.515625; 1.06450E-4
22359.375000; 9.96981E-5
22365.234375; 1.02645E-4
22371.093750; 9.83256E-5
22376.953125; 8.92243E-5
22382.812500; 9.56909E-5
22388.671875; 1.03757E-4
22394.531250; 1.07334E-4
22400.390625; 1.03856E-4
22406.250000; 1.04147E-4
22412.109375; 1.00079E-4
22417.968750; 9.32787E-5
22423.828125; 8.54775E-5
22429.687500; 9.76430E-5
22435.546875; 1.02936E-4
22441.406250; 9.56650E-5
22447.265625; 1.00472E-4
22453.125000; 1.02012E-4
22458.984375; 9.47583E-5
22464.843750; 9.75424E-5
22470.703125; 9.70245E-5
22476.562500; 1.03664E-4
22482.421875; 8.75202E-5
22488.281250; 9.72409E-5
22494.140625; 9.78151E-5
22500.000000; 9.76681E-5
22505.859375; 1.00485E-4
22511.718750; 9.32608E-5
22517.578125; 1.02496E-4
22523.437500; 9.45665E-5
22529.296875; 8.62121E-5
22535.156250; 8.13584E-5
22541.015625; 8.74897E-5
22546.875000; 9.16510E-5
22552.734375; 1.00823E-4
22558.593750; 9.81423E-5
22564.453125; 9.88997E-5
22570.312500; 8.43544E-5
22576.171875; 9.06629E-5
22582.031250; 9.10713E-5
22587.890625; 8.83520E-5
22593.750000; 8.43733E-5
22599.609375; 9.30724E-5
22605.468750; 9.13170E-5
22611.328125; 9.03249E-5
22617.187500; 9.88373E-5
22623.046875; 9.99608E-5
22628.906250; 1.00709E-4
22634.765625; 1.03158E-4
22640.625000; 1.02364E-4
22646.484375; 1.00649E-4
22652.343750; 1.00259E-4
22658.203125; 9.54959E-5
22664.062500; 9.29984E-5
22669.921875; 9.41426E-5
22675.781250; 9.47312E-5
22681.640625; 8.65131E-5
22687.500000; 8.99301E-5
22693.359375; 8.24929E-5
22699.218750; 8.45563E-5
22705.078125; 8.80791E-5
22710.937500; 8.89871E-5
22716.796875; 9.42504E-5
22722.656250; 9.11633E-5
22728.515625; 8.31761E-5
22734.375000; 8.06859E-5
22740.234375; 8.17650E-5
22746.093750; 8.91872E-5
22751.953125; 8.35440E-5
22757.812500; 7.91199E-5
22763.671875; 8.67981E-5
22769.531250; 8.91507E-5
22775.390625; 9.08657E-5
22781.250000; 8.29133E-5
22787.109375; 7.67868E-5
22792.968750; 7.68765E-5
22798.828125; 8.05952E-5
22804.687500; 8.96186E-5
22810.546875; 8.97290E-5
22816.406250; 8.73455E-5
22822.265625; 8.70822E-5
22828.125000; 9.37377E-5
22833.984375; 8.94210E-5
22839.843750; 8.66765E-5
22845.703125; 8.87810E-5
22851.562500; 8.44123E-5
22857.421875; 7.99516E-5
22863.281250; 8.18684E-5
22869.140625; 8.49567E-5
22875.000000; 8.40023E-5
22880.859375; 7.94215E-5
22886.718750; 7.84688E-5
22892.578125; 8.22567E-5
22898.437500; 8.32371E-5
22904.296875; 8.96884E-5
22910.156250; 8.64235E-5
22916.015625; 7.04155E-5
22921.875000; 6.64566E-5
22927.734375; 7.25941E-5
22933.593750; 7.44467E-5
22939.453125; 8.18851E-5
22945.312500; 7.25314E-5
22951.171875; 7.44892E-5
22957.031250; 8.20117E-5
22962.890625; 8.23285E-5
22968.750000; 7.78172E-5
22974.609375; 7.43511E-5
22980.468750; 8.73221E-5
22986.328125; 8.45128E-5
22992.187500; 8.39987E-5
22998.046875; 8.50820E-5
23003.906250; 7.96845E-5
23009.765625; 7.48881E-5
23015.625000; 7.45315E-5
23021.484375; 8.77693E-5
23027.343750; 8.09328E-5
23033.203125; 7.49942E-5
23039.062500; 6.96575E-5
23044.921875; 7.44828E-5
23050.781250; 7.52134E-5
23056.640625; 7.84230E-5
23062.500000; 7.68098E-5
23068.359375; 7.68644E-5
23074.218750; 7.10294E-5
23080.078125; 7.24698E-5
23085.937500; 7.18454E-5
23091.796875; 7.10570E-5
23097.656250; 6.94136E-5
23103.515625; 7.09775E-5
23109.375000; 7.50122E-5
23115.234375; 7.23369E-5
23121.093750; 6.81516E-5
23126.953125; 6.27505E-5
23132.812500; 6.22239E-5
23138.671875; 7.16916E-5
23144.531250; 7.96551E-5
23150.390625; 7.20819E-5
23156.250000; 6.63096E-5
23162.109375; 6.67967E-5
23167.968750; 6.32103E-5
23173.828125; 6.68542E-5
23179.687500; 6.71680E-5
23185.546875; 7.08880E-5
23191.406250; 7.18010E-5
23197.265625; 7.19773E-5
23203.125000; 6.92226E-5
23208.984375; 7.07334E-5
23214.843750; 6.20065E-5
23220.703125; 6.25601E-5
23226.562500; 6.30347E-5
23232.421875; 7.01408E-5
23238.281250; 7.42049E-5
23244.140625; 6.91450E-5
23250.000000; 5.83918E-5
23255.859375; 6.07189E-5
23261.718750; 6.38523E-5
23267.578125; 6.00164E-5
23273.437500; 6.30574E-5
23279.296875; 6.47932E-5
23285.156250; 6.01222E-5
23291.015625; 6.30100E-5
23296.875000; 6.34588E-5
23302.734375; 5.87591E-5
23308.593750; 5.67012E-5
23314.453125; 5.57579E-5
23320.312500; 5.23768E-5
23326.171875; 5.88804E-5
23332.031250; 6.07136E-5
23337.890625; 5.93183E-5
23343.750000; 6.57630E-5
23349.609375; 6.40125E-5
23355.468750; 6.43715E-5
23361.328125; 6.63348E-5
23367.187500; 6.33682E-5
23373.046875; 5.41304E-5
23378.906250; 5.49538E-5
23384.765625; 5.86048E-5
23390.625000; 5.97134E-5
23396.484375; 5.82070E-5
23402.343750; 5.43764E-5
23408.203125; 5.67914E-5
23414.062500; 5.92960E-5
23419.921875; 6.23076E-5
23425.781250; 5.88842E-5
23431.640625; 5.33569E-5
23437.500000; 5.28391E-5
23443.359375; 5.52868E-5
23449.218750; 5.52515E-5
23455.078125; 5.28147E-5
23460.937500; 4.86891E-5
23466.796875; 4.85783E-5
23472.656250; 4.98776E-5
23478.515625; 5.01448E-5
23484.375000; 4.79688E-5
23490.234375; 5.08166E-5
23496.093750; 4.93993E-5
23501.953125; 4.85573E-5
23507.812500; 5.20789E-5
23513.671875; 4.37396E-5
23519.531250; 4.68156E-5
23525.390625; 4.97910E-5
23531.250000; 5.11695E-5
23537.109375; 4.62311E-5
23542.968750; 4.30801E-5
23548.828125; 4.76639E-5
23554.687500; 4.80334E-5
23560.546875; 5.09093E-5
23566.406250; 5.01506E-5
23572.265625; 5.33753E-5
23578.125000; 5.23163E-5
23583.984375; 4.95823E-5
23589.843750; 4.54927E-5
23595.703125; 4.33879E-5
23601.562500; 4.78444E-5
23607.421875; 4.76685E-5
23613.281250; 4.69688E-5
23619.140625; 4.97965E-5
23625.000000; 4.54838E-5
23630.859375; 4.88609E-5
23636.718750; 4.48674E-5
23642.578125; 4.10447E-5
23648.437500; 3.87983E-5
23654.296875; 3.91414E-5
23660.156250; 4.17060E-5
23666.015625; 3.85614E-5
23671.875000; 4.42069E-5
23677.734375; 4.47564E-5
23683.593750; 3.85535E-5
23689.453125; 4.42434E-5
23695.312500; 4.21714E-5
23701.171875; 3.92816E-5
23707.031250; 4.08558E-5
23712.890625; 4.38826E-5
23718.750000; 3.95515E-5
23724.609375; 3.46647E-5
23730.468750; 3.68860E-5
23736.328125; 4.27081E-5
23742.187500; 4.40438E-5
23748.046875; 4.09695E-5
23753.906250; 4.06754E-5
23759.765625; 3.60703E-5
23765.625000; 3.99048E-5
23771.484375; 3.89232E-5
23777.343750; 3.28737E-5
23783.203125; 3.54272E-5
23789.062500; 3.88734E-5
23794.921875; 3.90639E-5
23800.781250; 3.93315E-5
23806.640625; 4.38070E-5
23812.500000; 4.34435E-5
23818.359375; 3.62051E-5
23824.218750; 3.73193E-5
23830.078125; 3.44226E-5
23835.937500; 3.09843E-5
23841.796875; 3.56145E-5
23847.656250; 3.86144E-5
23853.515625; 3.53320E-5
23859.375000; 3.64518E-5
23865.234375; 3.71317E-5
23871.093750; 3.74869E-5
23876.953125; 3.55873E-5
23882.812500; 3.90243E-5
23888.671875; 3.85855E-5
23894.531250; 3.80889E-5
23900.390625; 3.94834E-5
23906.250000; 3.92224E-5
23912.109375; 3.81834E-5
23917.968750; 3.45905E-5
23923.828125; 3.44201E-5
23929.687500; 3.96333E-5
23935.546875; 3.70669E-5
23941.406250; 3.38628E-5
23947.265625; 3.70502E-5
23953.125000; 3.64401E-5
23958.984375; 3.78017E-5
23964.843750; 3.67189E-5
23970.703125; 3.84693E-5
23976.562500; 3.69168E-5
23982.421875; 3.44612E-5
23988.281250; 3.53450E-5
23994.140625; 3.58925E-5
