* Measurement data measured by REW V5.31.3
* Source: PCM: default, no input selected, 2, volume: no control
* Format: 8192-point spectrum using Hann window and exponential averaging 0.97 
* Dated: Mar 9, 2025 1:09:28 PM
* REW Settings:
*  C-weighting compensation: Off
*  Target level: 75.0 dB
* Note: OSDEHA MU-OUTPUT; 8192-point spectrum using Hann window and exponential averaging 0.97  Input RMS 1.001 V 1.000 VC, 1.000 VA 1.001 V 22 - 22k UNW 949.8 uV >22k Distortion at 1,000.0 Hz, -40.00 dBFS: Gain: 29.68 dB THD: 0.050 % based on 21 harmonics  [0..22800 Hz] HHD: 0.039 %  [10 .. 22] N: 1.43 %  [0..22800 Hz] N+D: 4.438 mV A THD+N: 1.43 %  [0..22800 Hz] SNR: 36.9 dB ENOB: 13.0 bits 2nd harmonic 0.012 % 128 deg 3rd harmonic 0.012 % 145 deg 4th harmonic 0.011 % -49 deg 5th harmonic 0.011 % -76 deg 6th harmonic 0.011 % -51 deg 7th harmonic 0.011 % -5 deg 8th harmonic 0.011 % -36 deg 9th harmonic 0.011 % 55 deg 
* Measurement: OSDEHA MU-OUT 1.0V
* Smoothing: None
* Frequency Step: 5.859375 Hz
* Start Frequency: 5.859375 Hz
*
* Freq(Hz); V(V)
5.859375; 4.05164E-4
11.718750; 6.70516E-4
17.578125; 6.96926E-4
23.437500; 6.23826E-4
29.296875; 6.36138E-4
35.156250; 5.52060E-4
41.015625; 5.55125E-4
46.875000; 6.24914E-4
52.734375; 5.59131E-4
58.593750; 4.50438E-4
64.453125; 4.53861E-4
70.312500; 4.64758E-4
76.171875; 4.25192E-4
82.031250; 4.34733E-4
87.890625; 4.65309E-4
93.750000; 5.86210E-3
99.609375; 1.29161E-2
105.468750; 7.10058E-3
111.328125; 3.30853E-4
117.187500; 2.40025E-4
123.046875; 2.69613E-4
128.906250; 2.71441E-4
134.765625; 2.84186E-4
140.625000; 2.42280E-4
146.484375; 2.31220E-4
152.343750; 2.53160E-4
158.203125; 2.15225E-4
164.062500; 2.22364E-4
169.921875; 2.52028E-4
175.781250; 2.25984E-4
181.640625; 1.98525E-4
187.500000; 2.02403E-4
193.359375; 6.28874E-4
199.218750; 1.37976E-3
205.078125; 8.02390E-4
210.937500; 1.71998E-4
216.796875; 2.05947E-4
222.656250; 1.91323E-4
228.515625; 1.88091E-4
234.375000; 2.03029E-4
240.234375; 1.75690E-4
246.093750; 1.77994E-4
251.953125; 1.88627E-4
257.812500; 1.83568E-4
263.671875; 1.92110E-4
269.531250; 1.88988E-4
275.390625; 1.65851E-4
281.250000; 1.77596E-4
287.109375; 1.90891E-4
292.968750; 2.02565E-4
298.828125; 3.36560E-4
304.687500; 2.47836E-4
310.546875; 1.80251E-4
316.406250; 1.81615E-4
322.265625; 1.68111E-4
328.125000; 1.57377E-4
333.984375; 1.64728E-4
339.843750; 1.70859E-4
345.703125; 1.82093E-4
351.562500; 1.72921E-4
357.421875; 1.62823E-4
363.281250; 1.91102E-4
369.140625; 1.65966E-4
375.000000; 1.36829E-4
380.859375; 1.42662E-4
386.718750; 1.57658E-4
392.578125; 1.81291E-4
398.437500; 2.86310E-4
404.296875; 2.14118E-4
410.156250; 1.42049E-4
416.015625; 1.44198E-4
421.875000; 1.42683E-4
427.734375; 1.49792E-4
433.593750; 1.47497E-4
439.453125; 1.53005E-4
445.312500; 1.52773E-4
451.171875; 1.63312E-4
457.031250; 1.69824E-4
462.890625; 1.51901E-4
468.750000; 1.51542E-4
474.609375; 1.50484E-4
480.468750; 1.46798E-4
486.328125; 1.32427E-4
492.187500; 1.49587E-4
498.046875; 1.62614E-4
503.906250; 1.31181E-4
509.765625; 1.41423E-4
515.625000; 1.41152E-4
521.484375; 1.26284E-4
527.343750; 1.26262E-4
533.203125; 1.20200E-4
539.062500; 1.38491E-4
544.921875; 1.49727E-4
550.781250; 1.39485E-4
556.640625; 1.32101E-4
562.500000; 1.54796E-4
568.359375; 1.51455E-4
574.218750; 1.34079E-4
580.078125; 1.22860E-4
585.937500; 1.20939E-4
591.796875; 1.44703E-4
597.656250; 1.44651E-4
603.515625; 1.36589E-4
609.375000; 1.36007E-4
615.234375; 1.30629E-4
621.093750; 1.37118E-4
626.953125; 1.33848E-4
632.812500; 1.31478E-4
638.671875; 1.37253E-4
644.531250; 1.39049E-4
650.390625; 1.38454E-4
656.250000; 1.34417E-4
662.109375; 1.23975E-4
667.968750; 1.37279E-4
673.828125; 1.47724E-4
679.687500; 1.37022E-4
685.546875; 1.17121E-4
691.406250; 1.34892E-4
697.265625; 1.71159E-4
703.125000; 1.52507E-4
708.984375; 1.27993E-4
714.843750; 1.33612E-4
720.703125; 1.31711E-4
726.562500; 1.29459E-4
732.421875; 1.10740E-4
738.281250; 1.21607E-4
744.140625; 1.29747E-4
750.000000; 1.35162E-4
755.859375; 1.45181E-4
761.718750; 1.22251E-4
767.578125; 1.38885E-4
773.437500; 1.49290E-4
779.296875; 1.32729E-4
785.156250; 1.15771E-4
791.015625; 1.21706E-4
796.875000; 1.35686E-4
802.734375; 1.38914E-4
808.593750; 1.29271E-4
814.453125; 1.40358E-4
820.312500; 1.33363E-4
826.171875; 1.26267E-4
832.031250; 1.19762E-4
837.890625; 1.17678E-4
843.750000; 1.27801E-4
849.609375; 1.26416E-4
855.468750; 1.39895E-4
861.328125; 1.32675E-4
867.187500; 1.06292E-4
873.046875; 1.31921E-4
878.906250; 1.28729E-4
884.765625; 1.40138E-4
890.625000; 1.26789E-4
896.484375; 1.29558E-4
902.343750; 1.31477E-4
908.203125; 1.37145E-4
914.062500; 1.55932E-4
919.921875; 1.77920E-4
925.781250; 1.64838E-4
931.640625; 2.17929E-4
937.500000; 2.63994E-4
943.359375; 3.18079E-4
949.218750; 4.68588E-4
955.078125; 6.24645E-4
960.937500; 9.44274E-4
966.796875; 1.59688E-3
972.656250; 2.83210E-3
978.515625; 6.03386E-3
984.375000; 1.69511E-2
990.234375; 9.30479E-2
996.093750; 7.44601E-1
1001.953125; 9.30754E-1
1007.812500; 2.65907E-1
1013.671875; 2.66135E-2
1019.531250; 8.17155E-3
1025.390625; 3.60072E-3
1031.250000; 1.86015E-3
1037.109375; 1.13806E-3
1042.968750; 7.22789E-4
1048.828125; 4.85659E-4
1054.687500; 3.69821E-4
1060.546875; 2.87401E-4
1066.406250; 2.36309E-4
1072.265625; 1.80293E-4
1078.125000; 1.79968E-4
1083.984375; 1.57714E-4
1089.843750; 1.42716E-4
1095.703125; 1.21405E-4
1101.562500; 1.27187E-4
1107.421875; 1.20024E-4
1113.281250; 1.27605E-4
1119.140625; 1.08222E-4
1125.000000; 1.14591E-4
1130.859375; 1.14316E-4
1136.718750; 1.07512E-4
1142.578125; 1.18894E-4
1148.437500; 1.31004E-4
1154.296875; 1.18903E-4
1160.156250; 1.13410E-4
1166.015625; 1.20409E-4
1171.875000; 1.17109E-4
1177.734375; 1.29477E-4
1183.593750; 1.29062E-4
1189.453125; 1.13429E-4
1195.312500; 1.08402E-4
1201.171875; 1.12673E-4
1207.031250; 1.14848E-4
1212.890625; 1.22843E-4
1218.750000; 1.16883E-4
1224.609375; 1.18715E-4
1230.468750; 1.13241E-4
1236.328125; 9.74356E-5
1242.187500; 1.15044E-4
1248.046875; 1.12541E-4
1253.906250; 1.06681E-4
1259.765625; 1.07052E-4
1265.625000; 1.22181E-4
1271.484375; 1.12312E-4
1277.343750; 1.16258E-4
1283.203125; 1.14982E-4
1289.062500; 1.18535E-4
1294.921875; 1.28802E-4
1300.781250; 1.18776E-4
1306.640625; 1.20641E-4
1312.500000; 1.36688E-4
1318.359375; 1.30168E-4
1324.218750; 1.17937E-4
1330.078125; 1.19528E-4
1335.937500; 1.16931E-4
1341.796875; 1.18636E-4
1347.656250; 1.31812E-4
1353.515625; 1.23530E-4
1359.375000; 1.23314E-4
1365.234375; 1.29302E-4
1371.093750; 1.23237E-4
1376.953125; 1.22698E-4
1382.812500; 1.37741E-4
1388.671875; 1.22667E-4
1394.531250; 1.15084E-4
1400.390625; 1.15020E-4
1406.250000; 1.14159E-4
1412.109375; 1.30914E-4
1417.968750; 1.20931E-4
1423.828125; 1.00674E-4
1429.687500; 9.54997E-5
1435.546875; 9.49245E-5
1441.406250; 1.18136E-4
1447.265625; 1.29475E-4
1453.125000; 1.14901E-4
1458.984375; 1.11343E-4
1464.843750; 1.11549E-4
1470.703125; 1.26362E-4
1476.562500; 1.32021E-4
1482.421875; 1.23724E-4
1488.281250; 1.21090E-4
1494.140625; 1.14922E-4
1500.000000; 1.10122E-4
1505.859375; 1.19249E-4
1511.718750; 1.18570E-4
1517.578125; 1.09299E-4
1523.437500; 1.14581E-4
1529.296875; 1.10759E-4
1535.156250; 1.16423E-4
1541.015625; 1.24296E-4
1546.875000; 1.10525E-4
1552.734375; 1.17803E-4
1558.593750; 1.22775E-4
1564.453125; 1.14010E-4
1570.312500; 1.07673E-4
1576.171875; 9.90852E-5
1582.031250; 1.16545E-4
1587.890625; 1.31309E-4
1593.750000; 1.15391E-4
1599.609375; 1.12029E-4
1605.468750; 1.26769E-4
1611.328125; 1.23378E-4
1617.187500; 1.25223E-4
1623.046875; 1.24100E-4
1628.906250; 1.15526E-4
1634.765625; 1.19279E-4
1640.625000; 1.12681E-4
1646.484375; 1.07669E-4
1652.343750; 1.16515E-4
1658.203125; 1.32919E-4
1664.062500; 1.19843E-4
1669.921875; 1.16112E-4
1675.781250; 1.03226E-4
1681.640625; 1.08370E-4
1687.500000; 1.07363E-4
1693.359375; 1.09043E-4
1699.218750; 1.13101E-4
1705.078125; 1.14261E-4
1710.937500; 1.31012E-4
1716.796875; 1.15953E-4
1722.656250; 1.14163E-4
1728.515625; 1.19111E-4
1734.375000; 1.14804E-4
1740.234375; 1.19110E-4
1746.093750; 1.12674E-4
1751.953125; 1.15906E-4
1757.812500; 1.08083E-4
1763.671875; 1.19743E-4
1769.531250; 1.17650E-4
1775.390625; 1.29638E-4
1781.250000; 1.42015E-4
1787.109375; 1.27599E-4
1792.968750; 1.10324E-4
1798.828125; 1.10602E-4
1804.687500; 1.21760E-4
1810.546875; 1.41704E-4
1816.406250; 1.21375E-4
1822.265625; 1.06447E-4
1828.125000; 1.06525E-4
1833.984375; 1.13559E-4
1839.843750; 9.82983E-5
1845.703125; 1.07087E-4
1851.562500; 1.07663E-4
1857.421875; 1.00944E-4
1863.281250; 9.59129E-5
1869.140625; 1.03165E-4
1875.000000; 1.19897E-4
1880.859375; 1.13703E-4
1886.718750; 1.09745E-4
1892.578125; 1.15627E-4
1898.437500; 1.16498E-4
1904.296875; 1.19846E-4
1910.156250; 1.09431E-4
1916.015625; 9.97856E-5
1921.875000; 1.16556E-4
1927.734375; 1.28212E-4
1933.593750; 1.25823E-4
1939.453125; 1.33030E-4
1945.312500; 1.35363E-4
1951.171875; 1.25967E-4
1957.031250; 1.06515E-4
1962.890625; 1.13129E-4
1968.750000; 1.22022E-4
1974.609375; 1.14097E-4
1980.468750; 1.14896E-4
1986.328125; 1.19971E-4
1992.187500; 1.08924E-4
1998.046875; 1.18721E-4
2003.906250; 1.07792E-4
2009.765625; 1.11756E-4
2015.625000; 1.14349E-4
2021.484375; 1.23244E-4
2027.343750; 1.04887E-4
2033.203125; 1.06147E-4
2039.062500; 1.04980E-4
2044.921875; 1.10493E-4
2050.781250; 1.10827E-4
2056.640625; 9.39150E-5
2062.500000; 1.04336E-4
2068.359375; 1.00568E-4
2074.218750; 1.06275E-4
2080.078125; 1.09127E-4
2085.937500; 1.01985E-4
2091.796875; 9.43023E-5
2097.656250; 9.46692E-5
2103.515625; 1.10515E-4
2109.375000; 1.00491E-4
2115.234375; 1.06645E-4
2121.093750; 1.03400E-4
2126.953125; 1.15739E-4
2132.812500; 1.23279E-4
2138.671875; 1.07670E-4
2144.531250; 1.06612E-4
2150.390625; 1.22079E-4
2156.250000; 1.33350E-4
2162.109375; 1.20862E-4
2167.968750; 1.25336E-4
2173.828125; 1.20289E-4
2179.687500; 1.04073E-4
2185.546875; 1.21366E-4
2191.406250; 1.26571E-4
2197.265625; 1.23923E-4
2203.125000; 1.14781E-4
2208.984375; 1.06066E-4
2214.843750; 1.03336E-4
2220.703125; 1.09007E-4
2226.562500; 1.13987E-4
2232.421875; 1.07527E-4
2238.281250; 1.14833E-4
2244.140625; 1.12883E-4
2250.000000; 9.44816E-5
2255.859375; 9.27003E-5
2261.718750; 9.81039E-5
2267.578125; 1.15971E-4
2273.437500; 1.08267E-4
2279.296875; 1.02419E-4
2285.156250; 1.13225E-4
2291.015625; 1.21983E-4
2296.875000; 1.25859E-4
2302.734375; 1.26923E-4
2308.593750; 1.16911E-4
2314.453125; 1.11289E-4
2320.312500; 1.07929E-4
2326.171875; 1.13249E-4
2332.031250; 1.10246E-4
2337.890625; 1.05066E-4
2343.750000; 1.06559E-4
2349.609375; 1.10807E-4
2355.468750; 1.10230E-4
2361.328125; 1.23593E-4
2367.187500; 1.14735E-4
2373.046875; 1.13939E-4
2378.906250; 1.06856E-4
2384.765625; 1.06330E-4
2390.625000; 1.16338E-4
2396.484375; 1.06988E-4
2402.343750; 1.13745E-4
2408.203125; 1.04516E-4
2414.062500; 1.05706E-4
2419.921875; 1.07831E-4
2425.781250; 1.29032E-4
2431.640625; 1.35601E-4
2437.500000; 1.06275E-4
2443.359375; 1.23193E-4
2449.218750; 1.23170E-4
2455.078125; 1.23951E-4
2460.937500; 1.07670E-4
2466.796875; 1.07336E-4
2472.656250; 1.21618E-4
2478.515625; 1.11962E-4
2484.375000; 1.04703E-4
2490.234375; 1.10696E-4
2496.093750; 1.11419E-4
2501.953125; 1.03395E-4
2507.812500; 1.01485E-4
2513.671875; 1.12111E-4
2519.531250; 1.14820E-4
2525.390625; 1.08968E-4
2531.250000; 1.05750E-4
2537.109375; 1.11328E-4
2542.968750; 1.09430E-4
2548.828125; 1.05934E-4
2554.687500; 1.14799E-4
2560.546875; 1.00866E-4
2566.406250; 9.62689E-5
2572.265625; 1.09514E-4
2578.125000; 1.08097E-4
2583.984375; 9.78488E-5
2589.843750; 1.01504E-4
2595.703125; 1.08569E-4
2601.562500; 1.15059E-4
2607.421875; 1.18034E-4
2613.281250; 1.14531E-4
2619.140625; 1.12151E-4
2625.000000; 1.14039E-4
2630.859375; 1.07819E-4
2636.718750; 1.13381E-4
2642.578125; 1.13672E-4
2648.437500; 9.47843E-5
2654.296875; 1.07934E-4
2660.156250; 1.23840E-4
2666.015625; 1.17890E-4
2671.875000; 1.17167E-4
2677.734375; 1.14978E-4
2683.593750; 1.12129E-4
2689.453125; 1.30206E-4
2695.312500; 1.36573E-4
2701.171875; 1.37519E-4
2707.031250; 1.10448E-4
2712.890625; 1.00965E-4
2718.750000; 1.04123E-4
2724.609375; 1.15312E-4
2730.468750; 1.21154E-4
2736.328125; 9.68862E-5
2742.187500; 1.02406E-4
2748.046875; 1.22749E-4
2753.906250; 1.22230E-4
2759.765625; 1.02945E-4
2765.625000; 1.18632E-4
2771.484375; 1.21378E-4
2777.343750; 1.10842E-4
2783.203125; 1.10319E-4
2789.062500; 1.16943E-4
2794.921875; 1.15663E-4
2800.781250; 1.04925E-4
2806.640625; 1.12805E-4
2812.500000; 1.06482E-4
2818.359375; 1.04344E-4
2824.218750; 1.17939E-4
2830.078125; 1.22414E-4
2835.937500; 1.20282E-4
2841.796875; 1.12889E-4
2847.656250; 1.14642E-4
2853.515625; 1.17116E-4
2859.375000; 1.06313E-4
2865.234375; 1.00502E-4
2871.093750; 1.06455E-4
2876.953125; 1.03709E-4
2882.812500; 9.56755E-5
2888.671875; 1.09236E-4
2894.531250; 1.29770E-4
2900.390625; 1.34051E-4
2906.250000; 1.27837E-4
2912.109375; 1.09739E-4
2917.968750; 1.02772E-4
2923.828125; 1.10751E-4
2929.687500; 1.21614E-4
2935.546875; 1.24838E-4
2941.406250; 1.26359E-4
2947.265625; 1.21779E-4
2953.125000; 9.94808E-5
2958.984375; 1.03107E-4
2964.843750; 1.07067E-4
2970.703125; 1.04000E-4
2976.562500; 1.12989E-4
2982.421875; 1.16868E-4
2988.281250; 1.15409E-4
2994.140625; 1.17813E-4
3000.000000; 1.16831E-4
3005.859375; 1.12180E-4
3011.718750; 1.11339E-4
3017.578125; 1.15615E-4
3023.437500; 1.15365E-4
3029.296875; 1.07952E-4
3035.156250; 1.08218E-4
3041.015625; 1.28366E-4
3046.875000; 1.26282E-4
3052.734375; 9.95469E-5
3058.593750; 1.05139E-4
3064.453125; 1.13537E-4
3070.312500; 9.62145E-5
3076.171875; 1.05556E-4
3082.031250; 1.06485E-4
3087.890625; 1.03168E-4
3093.750000; 1.06751E-4
3099.609375; 1.21348E-4
3105.468750; 1.22400E-4
3111.328125; 1.23852E-4
3117.187500; 1.10939E-4
3123.046875; 1.06038E-4
3128.906250; 1.04057E-4
3134.765625; 1.03171E-4
3140.625000; 1.13708E-4
3146.484375; 1.15228E-4
3152.343750; 1.18008E-4
3158.203125; 1.19997E-4
3164.062500; 1.16994E-4
3169.921875; 1.18435E-4
3175.781250; 1.11098E-4
3181.640625; 1.17773E-4
3187.500000; 1.21967E-4
3193.359375; 1.10815E-4
3199.218750; 1.07968E-4
3205.078125; 1.08811E-4
3210.937500; 1.08124E-4
3216.796875; 1.09535E-4
3222.656250; 1.26823E-4
3228.515625; 1.16250E-4
3234.375000; 9.00049E-5
3240.234375; 9.99716E-5
3246.093750; 1.04325E-4
3251.953125; 1.11577E-4
3257.812500; 1.09497E-4
3263.671875; 1.19624E-4
3269.531250; 1.10577E-4
3275.390625; 1.09756E-4
3281.250000; 9.98043E-5
3287.109375; 1.06211E-4
3292.968750; 1.18758E-4
3298.828125; 1.10341E-4
3304.687500; 1.05176E-4
3310.546875; 9.95579E-5
3316.406250; 1.12765E-4
3322.265625; 1.12559E-4
3328.125000; 1.07997E-4
3333.984375; 9.59588E-5
3339.843750; 1.12581E-4
3345.703125; 1.32252E-4
3351.562500; 1.29178E-4
3357.421875; 1.03109E-4
3363.281250; 9.97870E-5
3369.140625; 1.12972E-4
3375.000000; 1.02057E-4
3380.859375; 1.01186E-4
3386.718750; 9.69587E-5
3392.578125; 1.06587E-4
3398.437500; 1.11282E-4
3404.296875; 1.11620E-4
3410.156250; 1.06126E-4
3416.015625; 1.07636E-4
3421.875000; 1.08574E-4
3427.734375; 1.05804E-4
3433.593750; 1.23826E-4
3439.453125; 1.30088E-4
3445.312500; 1.18448E-4
3451.171875; 9.68594E-5
3457.031250; 1.24417E-4
3462.890625; 1.30544E-4
3468.750000; 1.08519E-4
3474.609375; 1.11842E-4
3480.468750; 1.07615E-4
3486.328125; 1.16055E-4
3492.187500; 1.21219E-4
3498.046875; 1.14739E-4
3503.906250; 1.07985E-4
3509.765625; 9.90680E-5
3515.625000; 8.81494E-5
3521.484375; 9.86899E-5
3527.343750; 1.07738E-4
3533.203125; 9.75346E-5
3539.062500; 1.05855E-4
3544.921875; 1.09943E-4
3550.781250; 1.06504E-4
3556.640625; 1.03972E-4
3562.500000; 1.12509E-4
3568.359375; 1.04463E-4
3574.218750; 1.09423E-4
3580.078125; 1.10991E-4
3585.937500; 9.67387E-5
3591.796875; 1.04292E-4
3597.656250; 1.01325E-4
3603.515625; 1.06478E-4
3609.375000; 1.18519E-4
3615.234375; 1.20220E-4
3621.093750; 1.13327E-4
3626.953125; 1.04440E-4
3632.812500; 1.05074E-4
3638.671875; 1.00092E-4
3644.531250; 1.03628E-4
3650.390625; 1.20648E-4
3656.250000; 1.17024E-4
3662.109375; 1.27523E-4
3667.968750; 1.25878E-4
3673.828125; 1.11708E-4
3679.687500; 1.12479E-4
3685.546875; 1.14079E-4
3691.406250; 1.28332E-4
3697.265625; 1.11204E-4
3703.125000; 1.04055E-4
3708.984375; 1.00177E-4
3714.843750; 1.05042E-4
3720.703125; 1.10569E-4
3726.562500; 1.09743E-4
3732.421875; 1.06618E-4
3738.281250; 1.10927E-4
3744.140625; 1.11287E-4
3750.000000; 1.10967E-4
3755.859375; 1.10023E-4
3761.718750; 1.06253E-4
3767.578125; 9.70475E-5
3773.437500; 1.05945E-4
3779.296875; 1.12870E-4
3785.156250; 1.12290E-4
3791.015625; 1.06931E-4
3796.875000; 1.04952E-4
3802.734375; 1.12168E-4
3808.593750; 9.97833E-5
3814.453125; 1.07601E-4
3820.312500; 1.19196E-4
3826.171875; 1.19829E-4
3832.031250; 1.16281E-4
3837.890625; 1.18899E-4
3843.750000; 1.04682E-4
3849.609375; 1.19299E-4
3855.468750; 1.11663E-4
3861.328125; 1.04085E-4
3867.187500; 9.84229E-5
3873.046875; 9.06361E-5
3878.906250; 9.71183E-5
3884.765625; 1.03593E-4
3890.625000; 1.15051E-4
3896.484375; 1.07213E-4
3902.343750; 1.19607E-4
3908.203125; 1.26236E-4
3914.062500; 9.98268E-5
3919.921875; 1.00225E-4
3925.781250; 1.05426E-4
3931.640625; 1.00439E-4
3937.500000; 9.71954E-5
3943.359375; 1.12397E-4
3949.218750; 1.19950E-4
3955.078125; 1.03540E-4
3960.937500; 1.09998E-4
3966.796875; 1.16483E-4
3972.656250; 1.02954E-4
3978.515625; 1.34347E-4
3984.375000; 1.18019E-4
3990.234375; 1.21574E-4
3996.093750; 1.24688E-4
4001.953125; 1.02989E-4
4007.812500; 9.17436E-5
4013.671875; 9.60351E-5
4019.531250; 1.10990E-4
4025.390625; 1.11827E-4
4031.250000; 1.16201E-4
4037.109375; 1.07189E-4
4042.968750; 1.01535E-4
4048.828125; 1.08667E-4
4054.687500; 1.09958E-4
4060.546875; 1.30912E-4
4066.406250; 1.32704E-4
4072.265625; 1.29029E-4
4078.125000; 1.07571E-4
4083.984375; 1.13490E-4
4089.843750; 1.37797E-4
4095.703125; 1.16764E-4
4101.562500; 9.69243E-5
4107.421875; 1.06915E-4
4113.281250; 1.17931E-4
4119.140625; 1.06617E-4
4125.000000; 1.07305E-4
4130.859375; 1.03805E-4
4136.718750; 1.12645E-4
4142.578125; 1.06128E-4
4148.437500; 1.15455E-4
4154.296875; 1.07872E-4
4160.156250; 1.11553E-4
4166.015625; 1.11324E-4
4171.875000; 1.14754E-4
4177.734375; 1.04032E-4
4183.593750; 1.00011E-4
4189.453125; 1.07182E-4
4195.312500; 9.84654E-5
4201.171875; 9.60109E-5
4207.031250; 9.48552E-5
4212.890625; 1.04254E-4
4218.750000; 1.19395E-4
4224.609375; 1.07906E-4
4230.468750; 1.15754E-4
4236.328125; 1.17090E-4
4242.187500; 1.23971E-4
4248.046875; 1.07270E-4
4253.906250; 1.08799E-4
4259.765625; 1.06148E-4
4265.625000; 1.09807E-4
4271.484375; 1.01549E-4
4277.343750; 9.77938E-5
4283.203125; 1.02004E-4
4289.062500; 1.07050E-4
4294.921875; 1.21198E-4
4300.781250; 1.30925E-4
4306.640625; 9.86758E-5
4312.500000; 9.50009E-5
4318.359375; 1.13237E-4
4324.218750; 1.10491E-4
4330.078125; 1.23936E-4
4335.937500; 1.14114E-4
4341.796875; 1.06647E-4
4347.656250; 1.12536E-4
4353.515625; 1.16972E-4
4359.375000; 1.14016E-4
4365.234375; 1.12106E-4
4371.093750; 1.23358E-4
4376.953125; 1.16876E-4
4382.812500; 1.12475E-4
4388.671875; 1.07833E-4
4394.531250; 1.19304E-4
4400.390625; 1.24969E-4
4406.250000; 1.07848E-4
4412.109375; 1.03484E-4
4417.968750; 1.02205E-4
4423.828125; 1.00722E-4
4429.687500; 9.71003E-5
4435.546875; 9.23172E-5
4441.406250; 9.37373E-5
4447.265625; 1.07866E-4
4453.125000; 1.14510E-4
4458.984375; 1.21782E-4
4464.843750; 1.13939E-4
4470.703125; 1.10215E-4
4476.562500; 1.30593E-4
4482.421875; 1.29258E-4
4488.281250; 1.25924E-4
4494.140625; 1.01988E-4
4500.000000; 9.76570E-5
4505.859375; 1.11248E-4
4511.718750; 1.14153E-4
4517.578125; 1.09173E-4
4523.437500; 8.86618E-5
4529.296875; 9.79956E-5
4535.156250; 1.03779E-4
4541.015625; 1.12940E-4
4546.875000; 1.12003E-4
4552.734375; 1.09455E-4
4558.593750; 1.20969E-4
4564.453125; 1.14736E-4
4570.312500; 1.17403E-4
4576.171875; 1.12315E-4
4582.031250; 1.02896E-4
4587.890625; 1.09388E-4
4593.750000; 1.13094E-4
4599.609375; 1.19306E-4
4605.468750; 1.11341E-4
4611.328125; 9.97557E-5
4617.187500; 1.07155E-4
4623.046875; 9.39146E-5
4628.906250; 1.18399E-4
4634.765625; 1.15453E-4
4640.625000; 1.17497E-4
4646.484375; 1.12472E-4
4652.343750; 1.15285E-4
4658.203125; 1.11105E-4
4664.062500; 1.04046E-4
4669.921875; 9.62115E-5
4675.781250; 1.07541E-4
4681.640625; 1.06611E-4
4687.500000; 1.03631E-4
4693.359375; 9.94861E-5
4699.218750; 9.94969E-5
4705.078125; 1.02415E-4
4710.937500; 1.10279E-4
4716.796875; 1.11710E-4
4722.656250; 1.11820E-4
4728.515625; 1.03952E-4
4734.375000; 9.69396E-5
4740.234375; 1.03253E-4
4746.093750; 1.02864E-4
4751.953125; 1.03328E-4
4757.812500; 1.04074E-4
4763.671875; 1.27691E-4
4769.531250; 1.20490E-4
4775.390625; 1.12768E-4
4781.250000; 1.10788E-4
4787.109375; 9.57743E-5
4792.968750; 1.06248E-4
4798.828125; 1.05006E-4
4804.687500; 9.97513E-5
4810.546875; 9.77444E-5
4816.406250; 1.04296E-4
4822.265625; 1.11014E-4
4828.125000; 1.11308E-4
4833.984375; 1.22316E-4
4839.843750; 9.62099E-5
4845.703125; 1.02527E-4
4851.562500; 1.17212E-4
4857.421875; 1.12318E-4
4863.281250; 1.12433E-4
4869.140625; 1.10903E-4
4875.000000; 1.14741E-4
4880.859375; 1.15049E-4
4886.718750; 1.14645E-4
4892.578125; 1.21824E-4
4898.437500; 1.00856E-4
4904.296875; 1.01939E-4
4910.156250; 1.07399E-4
4916.015625; 1.15459E-4
4921.875000; 1.20524E-4
4927.734375; 1.04676E-4
4933.593750; 8.56490E-5
4939.453125; 1.02546E-4
4945.312500; 1.02269E-4
4951.171875; 1.10237E-4
4957.031250; 1.13356E-4
4962.890625; 1.14564E-4
4968.750000; 1.15212E-4
4974.609375; 1.04292E-4
4980.468750; 1.19109E-4
4986.328125; 1.20711E-4
4992.187500; 1.22564E-4
4998.046875; 1.04018E-4
5003.906250; 9.79852E-5
5009.765625; 1.10136E-4
5015.625000; 1.22127E-4
5021.484375; 1.29387E-4
5027.343750; 1.15419E-4
5033.203125; 9.36949E-5
5039.062500; 1.00717E-4
5044.921875; 1.04606E-4
5050.781250; 9.98704E-5
5056.640625; 1.08805E-4
5062.500000; 1.09022E-4
5068.359375; 1.15221E-4
5074.218750; 1.10359E-4
5080.078125; 1.08890E-4
5085.937500; 1.07750E-4
5091.796875; 1.01499E-4
5097.656250; 1.14831E-4
5103.515625; 1.11539E-4
5109.375000; 1.10219E-4
5115.234375; 1.28884E-4
5121.093750; 1.27372E-4
5126.953125; 1.08881E-4
5132.812500; 1.19518E-4
5138.671875; 1.21640E-4
5144.531250; 1.16677E-4
5150.390625; 1.10938E-4
5156.250000; 1.09524E-4
5162.109375; 1.26697E-4
5167.968750; 1.36435E-4
5173.828125; 1.19466E-4
5179.687500; 9.28211E-5
5185.546875; 9.18989E-5
5191.406250; 9.82690E-5
5197.265625; 1.10505E-4
5203.125000; 1.07274E-4
5208.984375; 1.02572E-4
5214.843750; 1.11745E-4
5220.703125; 1.19200E-4
5226.562500; 1.11958E-4
5232.421875; 1.05414E-4
5238.281250; 1.00392E-4
5244.140625; 1.16829E-4
5250.000000; 1.15698E-4
5255.859375; 9.95583E-5
5261.718750; 1.02194E-4
5267.578125; 1.10111E-4
5273.437500; 1.09604E-4
5279.296875; 1.07690E-4
5285.156250; 9.30020E-5
5291.015625; 1.10973E-4
5296.875000; 1.10539E-4
5302.734375; 1.02484E-4
5308.593750; 1.10809E-4
5314.453125; 1.12456E-4
5320.312500; 1.10735E-4
5326.171875; 1.03603E-4
5332.031250; 1.14607E-4
5337.890625; 1.20705E-4
5343.750000; 1.19640E-4
5349.609375; 1.03085E-4
5355.468750; 1.09323E-4
5361.328125; 9.70777E-5
5367.187500; 8.71106E-5
5373.046875; 9.85110E-5
5378.906250; 1.22754E-4
5384.765625; 1.28486E-4
5390.625000; 1.04366E-4
5396.484375; 1.02249E-4
5402.343750; 1.02474E-4
5408.203125; 9.86846E-5
5414.062500; 9.25088E-5
5419.921875; 1.03294E-4
5425.781250; 1.10302E-4
5431.640625; 1.13128E-4
5437.500000; 1.05494E-4
5443.359375; 9.43967E-5
5449.218750; 1.20028E-4
5455.078125; 1.13250E-4
5460.937500; 1.07485E-4
5466.796875; 9.12055E-5
5472.656250; 9.66083E-5
5478.515625; 9.01753E-5
5484.375000; 9.96590E-5
5490.234375; 1.10788E-4
5496.093750; 1.13992E-4
5501.953125; 1.08568E-4
5507.812500; 1.08677E-4
5513.671875; 1.11361E-4
5519.531250; 1.04697E-4
5525.390625; 1.07604E-4
5531.250000; 1.06703E-4
5537.109375; 1.09579E-4
5542.968750; 1.11083E-4
5548.828125; 1.19725E-4
5554.687500; 1.19096E-4
5560.546875; 1.13435E-4
5566.406250; 1.09753E-4
5572.265625; 8.93704E-5
5578.125000; 9.54272E-5
5583.984375; 1.13070E-4
5589.843750; 1.18904E-4
5595.703125; 1.08798E-4
5601.562500; 8.00699E-5
5607.421875; 1.01162E-4
5613.281250; 1.04835E-4
5619.140625; 1.00637E-4
5625.000000; 9.59078E-5
5630.859375; 9.69592E-5
5636.718750; 1.03844E-4
5642.578125; 1.04420E-4
5648.437500; 1.25492E-4
5654.296875; 1.21530E-4
5660.156250; 1.13964E-4
5666.015625; 1.21940E-4
5671.875000; 1.26788E-4
5677.734375; 1.27983E-4
5683.593750; 1.20284E-4
5689.453125; 1.20894E-4
5695.312500; 1.10866E-4
5701.171875; 1.08350E-4
5707.031250; 9.32408E-5
5712.890625; 9.39093E-5
5718.750000; 9.78854E-5
5724.609375; 1.07000E-4
5730.468750; 9.92836E-5
5736.328125; 1.04222E-4
5742.187500; 9.16970E-5
5748.046875; 9.78041E-5
5753.906250; 1.11201E-4
5759.765625; 9.41312E-5
5765.625000; 1.01313E-4
5771.484375; 1.07532E-4
5777.343750; 9.93036E-5
5783.203125; 1.03821E-4
5789.062500; 1.02032E-4
5794.921875; 1.08138E-4
5800.781250; 1.09884E-4
5806.640625; 1.07185E-4
5812.500000; 9.20323E-5
5818.359375; 9.53397E-5
5824.218750; 9.91952E-5
5830.078125; 1.09065E-4
5835.937500; 1.11702E-4
5841.796875; 1.09554E-4
5847.656250; 1.08126E-4
5853.515625; 1.17919E-4
5859.375000; 1.06974E-4
5865.234375; 1.15829E-4
5871.093750; 1.31520E-4
5876.953125; 1.11960E-4
5882.812500; 1.06446E-4
5888.671875; 9.66879E-5
5894.531250; 9.25365E-5
5900.390625; 9.93955E-5
5906.250000; 1.02140E-4
5912.109375; 9.87591E-5
5917.968750; 1.06369E-4
5923.828125; 1.03571E-4
5929.687500; 9.42951E-5
5935.546875; 1.07093E-4
5941.406250; 1.12257E-4
5947.265625; 9.58333E-5
5953.125000; 9.64667E-5
5958.984375; 9.96033E-5
5964.843750; 1.18185E-4
5970.703125; 1.28848E-4
5976.562500; 1.25190E-4
5982.421875; 1.13897E-4
5988.281250; 1.04796E-4
5994.140625; 9.10469E-5
6000.000000; 1.06051E-4
6005.859375; 1.12630E-4
6011.718750; 9.84643E-5
6017.578125; 1.19587E-4
6023.437500; 1.18183E-4
6029.296875; 1.10584E-4
6035.156250; 1.06108E-4
6041.015625; 1.02153E-4
6046.875000; 1.13702E-4
6052.734375; 1.12962E-4
6058.593750; 1.15792E-4
6064.453125; 1.08807E-4
6070.312500; 1.19586E-4
6076.171875; 1.18197E-4
6082.031250; 1.05239E-4
6087.890625; 1.28255E-4
6093.750000; 1.26617E-4
6099.609375; 1.08788E-4
6105.468750; 1.10415E-4
6111.328125; 1.17635E-4
6117.187500; 1.08801E-4
6123.046875; 1.18406E-4
6128.906250; 1.22688E-4
6134.765625; 1.05702E-4
6140.625000; 1.05068E-4
6146.484375; 9.89067E-5
6152.343750; 1.03886E-4
6158.203125; 1.08320E-4
6164.062500; 1.04260E-4
6169.921875; 9.39707E-5
6175.781250; 1.04912E-4
6181.640625; 1.20959E-4
6187.500000; 1.18164E-4
6193.359375; 1.14968E-4
6199.218750; 1.08420E-4
6205.078125; 1.15855E-4
6210.937500; 1.20664E-4
6216.796875; 1.12791E-4
6222.656250; 1.07496E-4
6228.515625; 9.94780E-5
6234.375000; 1.06270E-4
6240.234375; 1.07970E-4
6246.093750; 1.05357E-4
6251.953125; 9.53564E-5
6257.812500; 1.14880E-4
6263.671875; 1.03501E-4
6269.531250; 1.02874E-4
6275.390625; 1.11573E-4
6281.250000; 1.11506E-4
6287.109375; 1.13707E-4
6292.968750; 1.16154E-4
6298.828125; 1.05247E-4
6304.687500; 9.82388E-5
6310.546875; 1.06674E-4
6316.406250; 1.11812E-4
6322.265625; 1.00579E-4
6328.125000; 9.33072E-5
6333.984375; 1.04526E-4
6339.843750; 1.06325E-4
6345.703125; 1.01906E-4
6351.562500; 9.33016E-5
6357.421875; 9.78041E-5
6363.281250; 1.08528E-4
6369.140625; 1.12786E-4
6375.000000; 1.15932E-4
6380.859375; 1.14222E-4
6386.718750; 1.02906E-4
6392.578125; 1.06232E-4
6398.437500; 1.07435E-4
6404.296875; 1.10432E-4
6410.156250; 1.18150E-4
6416.015625; 1.13156E-4
6421.875000; 1.09175E-4
6427.734375; 1.07176E-4
6433.593750; 1.01035E-4
6439.453125; 1.00328E-4
6445.312500; 9.38382E-5
6451.171875; 1.11682E-4
6457.031250; 1.13354E-4
6462.890625; 1.13705E-4
6468.750000; 1.16248E-4
6474.609375; 1.09986E-4
6480.468750; 1.16098E-4
6486.328125; 1.11506E-4
6492.187500; 1.15611E-4
6498.046875; 1.18609E-4
6503.906250; 1.08622E-4
6509.765625; 1.11105E-4
6515.625000; 1.16628E-4
6521.484375; 1.19820E-4
6527.343750; 1.21882E-4
6533.203125; 1.22755E-4
6539.062500; 1.02085E-4
6544.921875; 9.84422E-5
6550.781250; 1.17224E-4
6556.640625; 1.28819E-4
6562.500000; 1.11808E-4
6568.359375; 1.11906E-4
6574.218750; 1.03921E-4
6580.078125; 1.05915E-4
6585.937500; 1.02614E-4
6591.796875; 1.02682E-4
6597.656250; 1.15278E-4
6603.515625; 1.12113E-4
6609.375000; 1.18114E-4
6615.234375; 1.07791E-4
6621.093750; 9.59926E-5
6626.953125; 9.97133E-5
6632.812500; 1.06793E-4
6638.671875; 1.09370E-4
6644.531250; 1.21208E-4
6650.390625; 1.20293E-4
6656.250000; 1.13363E-4
6662.109375; 1.15312E-4
6667.968750; 1.17896E-4
6673.828125; 9.92930E-5
6679.687500; 1.00125E-4
6685.546875; 1.09449E-4
6691.406250; 1.19324E-4
6697.265625; 1.14019E-4
6703.125000; 1.15907E-4
6708.984375; 1.22488E-4
6714.843750; 1.13650E-4
6720.703125; 1.19924E-4
6726.562500; 1.19081E-4
6732.421875; 1.17062E-4
6738.281250; 1.05381E-4
6744.140625; 9.93255E-5
6750.000000; 9.90414E-5
6755.859375; 1.09182E-4
6761.718750; 1.09889E-4
6767.578125; 1.16026E-4
6773.437500; 1.01247E-4
6779.296875; 9.81319E-5
6785.156250; 1.03668E-4
6791.015625; 9.51393E-5
6796.875000; 9.04556E-5
6802.734375; 9.60297E-5
6808.593750; 1.11237E-4
6814.453125; 1.12704E-4
6820.312500; 1.05851E-4
6826.171875; 9.99435E-5
6832.031250; 1.11731E-4
6837.890625; 1.15786E-4
6843.750000; 1.12014E-4
6849.609375; 1.08772E-4
6855.468750; 1.02090E-4
6861.328125; 1.03727E-4
6867.187500; 9.54675E-5
6873.046875; 1.03969E-4
6878.906250; 1.02735E-4
6884.765625; 1.02344E-4
6890.625000; 1.10807E-4
6896.484375; 1.06798E-4
6902.343750; 1.11781E-4
6908.203125; 1.00123E-4
6914.062500; 1.17308E-4
6919.921875; 1.14218E-4
6925.781250; 1.09254E-4
6931.640625; 1.11396E-4
6937.500000; 1.01895E-4
6943.359375; 8.09508E-5
6949.218750; 1.08621E-4
6955.078125; 9.86569E-5
6960.937500; 1.04047E-4
6966.796875; 1.04329E-4
6972.656250; 9.68122E-5
6978.515625; 1.03141E-4
6984.375000; 1.01253E-4
6990.234375; 1.14649E-4
6996.093750; 1.13189E-4
7001.953125; 1.17325E-4
7007.812500; 1.09828E-4
7013.671875; 1.06142E-4
7019.531250; 1.01193E-4
7025.390625; 1.07652E-4
7031.250000; 1.11964E-4
7037.109375; 1.21627E-4
7042.968750; 1.23053E-4
7048.828125; 1.20037E-4
7054.687500; 9.93811E-5
7060.546875; 9.76996E-5
7066.406250; 1.10852E-4
7072.265625; 1.26119E-4
7078.125000; 1.23400E-4
7083.984375; 1.12275E-4
7089.843750; 1.20517E-4
7095.703125; 9.74669E-5
7101.562500; 9.10835E-5
7107.421875; 1.06034E-4
7113.281250; 1.08094E-4
7119.140625; 1.04095E-4
7125.000000; 9.93062E-5
7130.859375; 8.75395E-5
7136.718750; 1.01578E-4
7142.578125; 1.07202E-4
7148.437500; 1.00180E-4
7154.296875; 1.02167E-4
7160.156250; 1.02330E-4
7166.015625; 1.04144E-4
7171.875000; 1.10187E-4
7177.734375; 1.00445E-4
7183.593750; 1.07615E-4
7189.453125; 9.53308E-5
7195.312500; 1.03142E-4
7201.171875; 1.07485E-4
7207.031250; 8.90463E-5
7212.890625; 8.89671E-5
7218.750000; 1.06458E-4
7224.609375; 1.12528E-4
7230.468750; 1.07682E-4
7236.328125; 1.23287E-4
7242.187500; 1.20925E-4
7248.046875; 1.01479E-4
7253.906250; 1.04870E-4
7259.765625; 1.18396E-4
7265.625000; 1.20122E-4
7271.484375; 1.08937E-4
7277.343750; 9.60646E-5
7283.203125; 1.02716E-4
7289.062500; 1.15064E-4
7294.921875; 1.19744E-4
7300.781250; 1.18292E-4
7306.640625; 1.06044E-4
7312.500000; 1.05284E-4
7318.359375; 1.10003E-4
7324.218750; 1.01994E-4
7330.078125; 1.06817E-4
7335.937500; 1.12666E-4
7341.796875; 1.10475E-4
7347.656250; 1.04058E-4
7353.515625; 9.85821E-5
7359.375000; 1.02942E-4
7365.234375; 1.08795E-4
7371.093750; 1.15958E-4
7376.953125; 1.12786E-4
7382.812500; 1.09759E-4
7388.671875; 1.19981E-4
7394.531250; 1.03124E-4
7400.390625; 1.04524E-4
7406.250000; 9.19759E-5
7412.109375; 9.18803E-5
7417.968750; 1.01828E-4
7423.828125; 9.56369E-5
7429.687500; 1.08335E-4
7435.546875; 1.13851E-4
7441.406250; 1.23412E-4
7447.265625; 1.10914E-4
7453.125000; 9.07825E-5
7458.984375; 1.12576E-4
7464.843750; 1.15569E-4
7470.703125; 1.05916E-4
7476.562500; 9.38035E-5
7482.421875; 1.21673E-4
7488.281250; 1.17409E-4
7494.140625; 1.13532E-4
7500.000000; 1.20566E-4
7505.859375; 1.16713E-4
7511.718750; 1.20860E-4
7517.578125; 1.17545E-4
7523.437500; 1.06467E-4
7529.296875; 1.00212E-4
7535.156250; 1.06759E-4
7541.015625; 1.01246E-4
7546.875000; 9.80027E-5
7552.734375; 1.02864E-4
7558.593750; 1.12054E-4
7564.453125; 9.90846E-5
7570.312500; 9.62120E-5
7576.171875; 1.06546E-4
7582.031250; 1.12860E-4
7587.890625; 1.22073E-4
7593.750000; 1.11386E-4
7599.609375; 1.19427E-4
7605.468750; 1.13975E-4
7611.328125; 9.64900E-5
7617.187500; 1.13446E-4
7623.046875; 1.18577E-4
7628.906250; 1.13991E-4
7634.765625; 1.11184E-4
7640.625000; 1.08352E-4
7646.484375; 1.12176E-4
7652.343750; 1.10779E-4
7658.203125; 1.07692E-4
7664.062500; 9.96585E-5
7669.921875; 1.05534E-4
7675.781250; 1.07922E-4
7681.640625; 1.10836E-4
7687.500000; 1.14106E-4
7693.359375; 1.13108E-4
7699.218750; 1.10847E-4
7705.078125; 1.07369E-4
7710.937500; 1.18817E-4
7716.796875; 1.11683E-4
7722.656250; 1.11854E-4
7728.515625; 1.08720E-4
7734.375000; 1.12643E-4
7740.234375; 1.19011E-4
7746.093750; 1.02055E-4
7751.953125; 1.03483E-4
7757.812500; 1.12726E-4
7763.671875; 1.06064E-4
7769.531250; 9.72576E-5
7775.390625; 1.04188E-4
7781.250000; 1.01333E-4
7787.109375; 1.04637E-4
7792.968750; 1.17832E-4
7798.828125; 1.20139E-4
7804.687500; 1.07121E-4
7810.546875; 1.04386E-4
7816.406250; 1.14805E-4
7822.265625; 1.16815E-4
7828.125000; 1.26378E-4
7833.984375; 1.22358E-4
7839.843750; 1.13268E-4
7845.703125; 1.11213E-4
7851.562500; 1.30420E-4
7857.421875; 1.29201E-4
7863.281250; 1.04340E-4
7869.140625; 9.80437E-5
7875.000000; 1.07066E-4
7880.859375; 1.10374E-4
7886.718750; 1.05331E-4
7892.578125; 9.83191E-5
7898.437500; 1.13323E-4
7904.296875; 1.20302E-4
7910.156250; 1.00471E-4
7916.015625; 9.16866E-5
7921.875000; 1.02271E-4
7927.734375; 1.06143E-4
7933.593750; 1.17786E-4
7939.453125; 1.13026E-4
7945.312500; 1.07209E-4
7951.171875; 1.05523E-4
7957.031250; 9.81015E-5
7962.890625; 9.52726E-5
7968.750000; 1.05264E-4
7974.609375; 1.04484E-4
7980.468750; 1.18775E-4
7986.328125; 1.04481E-4
7992.187500; 1.11046E-4
7998.046875; 1.21636E-4
8003.906250; 1.21059E-4
8009.765625; 1.15307E-4
8015.625000; 1.04666E-4
8021.484375; 1.07623E-4
8027.343750; 9.92767E-5
8033.203125; 9.92061E-5
8039.062500; 1.04746E-4
8044.921875; 1.08020E-4
8050.781250; 1.01573E-4
8056.640625; 1.12736E-4
8062.500000; 1.01140E-4
8068.359375; 1.13664E-4
8074.218750; 1.13185E-4
8080.078125; 1.06840E-4
8085.937500; 1.05158E-4
8091.796875; 1.27670E-4
8097.656250; 1.20971E-4
8103.515625; 1.16593E-4
8109.375000; 1.26191E-4
8115.234375; 1.22010E-4
8121.093750; 1.17884E-4
8126.953125; 1.10519E-4
8132.812500; 1.11893E-4
8138.671875; 1.09591E-4
8144.531250; 1.12919E-4
8150.390625; 1.05922E-4
8156.250000; 1.09494E-4
8162.109375; 1.00196E-4
8167.968750; 1.00647E-4
8173.828125; 1.11437E-4
8179.687500; 1.22913E-4
8185.546875; 1.08295E-4
8191.406250; 1.07176E-4
8197.265625; 1.26417E-4
8203.125000; 1.12865E-4
8208.984375; 8.97925E-5
8214.843750; 8.75622E-5
8220.703125; 1.00176E-4
8226.562500; 1.07483E-4
8232.421875; 1.11327E-4
8238.281250; 1.02504E-4
8244.140625; 1.12045E-4
8250.000000; 1.13680E-4
8255.859375; 1.28833E-4
8261.718750; 1.09387E-4
8267.578125; 8.97966E-5
8273.437500; 9.59665E-5
8279.296875; 1.05666E-4
8285.156250; 1.13657E-4
8291.015625; 1.14533E-4
8296.875000; 1.02850E-4
8302.734375; 9.99219E-5
8308.593750; 1.07818E-4
8314.453125; 1.21003E-4
8320.312500; 1.13793E-4
8326.171875; 1.04946E-4
8332.031250; 1.06436E-4
8337.890625; 1.04274E-4
8343.750000; 1.00186E-4
8349.609375; 1.12713E-4
8355.468750; 1.10734E-4
8361.328125; 1.07661E-4
8367.187500; 1.06732E-4
8373.046875; 1.09776E-4
8378.906250; 1.10598E-4
8384.765625; 1.02178E-4
8390.625000; 1.09505E-4
8396.484375; 1.06142E-4
8402.343750; 1.22016E-4
8408.203125; 1.16658E-4
8414.062500; 1.09307E-4
8419.921875; 1.05384E-4
8425.781250; 1.08362E-4
8431.640625; 1.13838E-4
8437.500000; 1.21528E-4
8443.359375; 1.15401E-4
8449.218750; 1.31172E-4
8455.078125; 1.26128E-4
8460.937500; 9.96893E-5
8466.796875; 1.01988E-4
8472.656250; 1.10594E-4
8478.515625; 1.11428E-4
8484.375000; 1.19028E-4
8490.234375; 1.04099E-4
8496.093750; 1.15703E-4
8501.953125; 1.21013E-4
8507.812500; 1.08440E-4
8513.671875; 9.47486E-5
8519.531250; 8.94194E-5
8525.390625; 8.94434E-5
8531.250000; 1.01937E-4
8537.109375; 1.16562E-4
8542.968750; 1.10172E-4
8548.828125; 1.01068E-4
8554.687500; 1.06681E-4
8560.546875; 9.84826E-5
8566.406250; 9.90755E-5
8572.265625; 1.02238E-4
8578.125000; 9.83168E-5
8583.984375; 1.07061E-4
8589.843750; 9.73879E-5
8595.703125; 1.05492E-4
8601.562500; 1.11877E-4
8607.421875; 1.12483E-4
8613.281250; 1.05598E-4
8619.140625; 1.02013E-4
8625.000000; 1.01533E-4
8630.859375; 9.52224E-5
8636.718750; 9.09285E-5
8642.578125; 8.18471E-5
8648.437500; 9.53316E-5
8654.296875; 1.03062E-4
8660.156250; 9.70339E-5
8666.015625; 9.84612E-5
8671.875000; 9.84042E-5
8677.734375; 1.05939E-4
8683.593750; 1.11744E-4
8689.453125; 1.22710E-4
8695.312500; 1.16330E-4
8701.171875; 1.27417E-4
8707.031250; 1.20157E-4
8712.890625; 9.20957E-5
8718.750000; 1.01065E-4
8724.609375; 1.15031E-4
8730.468750; 1.18290E-4
8736.328125; 1.12879E-4
8742.187500; 1.00719E-4
8748.046875; 9.94915E-5
8753.906250; 1.05731E-4
8759.765625; 1.05862E-4
8765.625000; 1.08522E-4
8771.484375; 1.10472E-4
8777.343750; 1.04507E-4
8783.203125; 1.06991E-4
8789.062500; 1.05093E-4
8794.921875; 1.08332E-4
8800.781250; 1.08843E-4
8806.640625; 9.74034E-5
8812.500000; 1.03043E-4
8818.359375; 1.13866E-4
8824.218750; 1.14095E-4
8830.078125; 1.00851E-4
8835.937500; 1.09001E-4
8841.796875; 1.16082E-4
8847.656250; 1.10792E-4
8853.515625; 9.76843E-5
8859.375000; 1.12120E-4
8865.234375; 1.01027E-4
8871.093750; 1.01397E-4
8876.953125; 1.14968E-4
8882.812500; 1.12038E-4
8888.671875; 1.03971E-4
8894.531250; 1.08026E-4
8900.390625; 1.04782E-4
8906.250000; 1.14895E-4
8912.109375; 1.11423E-4
8917.968750; 1.06772E-4
8923.828125; 9.77748E-5
8929.687500; 9.78741E-5
8935.546875; 1.15840E-4
8941.406250; 1.20572E-4
8947.265625; 1.26904E-4
8953.125000; 1.20591E-4
8958.984375; 1.12838E-4
8964.843750; 1.09238E-4
8970.703125; 9.91319E-5
8976.562500; 1.11197E-4
8982.421875; 1.06818E-4
8988.281250; 1.05812E-4
8994.140625; 1.11718E-4
9000.000000; 1.09224E-4
9005.859375; 9.62656E-5
9011.718750; 1.07334E-4
9017.578125; 1.00905E-4
9023.437500; 9.79239E-5
9029.296875; 1.11353E-4
9035.156250; 1.12712E-4
9041.015625; 1.01516E-4
9046.875000; 9.01520E-5
9052.734375; 1.17303E-4
9058.593750; 1.21984E-4
9064.453125; 1.09214E-4
9070.312500; 9.76501E-5
9076.171875; 9.25706E-5
9082.031250; 8.85755E-5
9087.890625; 1.05661E-4
9093.750000; 1.17424E-4
9099.609375; 1.39015E-4
9105.468750; 1.28471E-4
9111.328125; 1.22466E-4
9117.187500; 1.14012E-4
9123.046875; 1.05693E-4
9128.906250; 1.05688E-4
9134.765625; 1.08357E-4
9140.625000; 1.27268E-4
9146.484375; 1.11395E-4
9152.343750; 1.06478E-4
9158.203125; 1.21530E-4
9164.062500; 1.20401E-4
9169.921875; 9.43172E-5
9175.781250; 8.80853E-5
9181.640625; 1.06252E-4
9187.500000; 1.24299E-4
9193.359375; 1.12266E-4
9199.218750; 9.70717E-5
9205.078125; 1.04519E-4
9210.937500; 1.16334E-4
9216.796875; 1.04647E-4
9222.656250; 1.00481E-4
9228.515625; 1.06138E-4
9234.375000; 8.62454E-5
9240.234375; 9.09938E-5
9246.093750; 1.00308E-4
9251.953125; 9.70169E-5
9257.812500; 1.09463E-4
9263.671875; 1.16512E-4
9269.531250; 1.11984E-4
9275.390625; 1.06666E-4
9281.250000; 1.13474E-4
9287.109375; 1.05093E-4
9292.968750; 1.14148E-4
9298.828125; 1.16946E-4
9304.687500; 1.05999E-4
9310.546875; 9.13582E-5
9316.406250; 1.12593E-4
9322.265625; 1.13738E-4
9328.125000; 9.90803E-5
9333.984375; 1.04977E-4
9339.843750; 1.01813E-4
9345.703125; 1.12035E-4
9351.562500; 1.03041E-4
9357.421875; 1.09319E-4
9363.281250; 1.15311E-4
9369.140625; 1.17837E-4
9375.000000; 1.13274E-4
9380.859375; 1.05209E-4
9386.718750; 1.05767E-4
9392.578125; 1.06692E-4
9398.437500; 1.21686E-4
9404.296875; 1.16616E-4
9410.156250; 1.11332E-4
9416.015625; 1.07237E-4
9421.875000; 1.00232E-4
9427.734375; 1.03623E-4
9433.593750; 1.07358E-4
9439.453125; 1.18282E-4
9445.312500; 1.05011E-4
9451.171875; 9.03664E-5
9457.031250; 1.12714E-4
9462.890625; 1.20942E-4
9468.750000; 8.93053E-5
9474.609375; 1.03537E-4
9480.468750; 1.07047E-4
9486.328125; 9.59153E-5
9492.187500; 1.04333E-4
9498.046875; 1.01198E-4
9503.906250; 9.95175E-5
9509.765625; 1.00409E-4
9515.625000; 1.07738E-4
9521.484375; 1.19917E-4
9527.343750; 1.06441E-4
9533.203125; 1.13060E-4
9539.062500; 1.06162E-4
9544.921875; 1.02182E-4
9550.781250; 1.05720E-4
9556.640625; 1.05868E-4
9562.500000; 1.07398E-4
9568.359375; 1.04682E-4
9574.218750; 1.19103E-4
9580.078125; 9.14555E-5
9585.937500; 1.02085E-4
9591.796875; 9.68633E-5
9597.656250; 9.08427E-5
9603.515625; 9.11842E-5
9609.375000; 8.91225E-5
9615.234375; 1.01697E-4
9621.093750; 1.21337E-4
9626.953125; 1.07090E-4
9632.812500; 9.38553E-5
9638.671875; 1.07478E-4
9644.531250; 1.04838E-4
9650.390625; 1.12277E-4
9656.250000; 1.15229E-4
9662.109375; 1.05836E-4
9667.968750; 1.15977E-4
9673.828125; 9.99567E-5
9679.687500; 1.01485E-4
9685.546875; 1.12056E-4
9691.406250; 9.51554E-5
9697.265625; 1.06249E-4
9703.125000; 1.00935E-4
9708.984375; 1.03009E-4
9714.843750; 9.81801E-5
9720.703125; 1.07808E-4
9726.562500; 1.06788E-4
9732.421875; 9.56655E-5
9738.281250; 9.16424E-5
9744.140625; 9.31221E-5
9750.000000; 1.02385E-4
9755.859375; 1.24983E-4
9761.718750; 1.13209E-4
9767.578125; 9.83161E-5
9773.437500; 9.90061E-5
9779.296875; 9.24340E-5
9785.156250; 9.32341E-5
9791.015625; 1.13571E-4
9796.875000; 1.03649E-4
9802.734375; 1.00601E-4
9808.593750; 1.02962E-4
9814.453125; 9.30589E-5
9820.312500; 9.45259E-5
9826.171875; 1.08881E-4
9832.031250; 1.02821E-4
9837.890625; 1.16134E-4
9843.750000; 1.21412E-4
9849.609375; 1.11791E-4
9855.468750; 1.04533E-4
9861.328125; 9.87168E-5
9867.187500; 1.09550E-4
9873.046875; 1.15749E-4
9878.906250; 1.08158E-4
9884.765625; 9.86010E-5
9890.625000; 1.14671E-4
9896.484375; 1.15105E-4
9902.343750; 9.92169E-5
9908.203125; 1.08932E-4
9914.062500; 1.01957E-4
9919.921875; 9.53397E-5
9925.781250; 9.71430E-5
9931.640625; 1.03641E-4
9937.500000; 1.11230E-4
9943.359375; 1.00405E-4
9949.218750; 1.13063E-4
9955.078125; 1.17941E-4
9960.937500; 1.31365E-4
9966.796875; 1.28554E-4
9972.656250; 1.00781E-4
9978.515625; 9.66144E-5
9984.375000; 1.20449E-4
9990.234375; 1.10491E-4
9996.093750; 9.17452E-5
10001.953125; 1.04059E-4
10007.812500; 1.11108E-4
10013.671875; 1.14580E-4
10019.531250; 1.08414E-4
10025.390625; 1.05499E-4
10031.250000; 1.05261E-4
10037.109375; 9.81970E-5
10042.968750; 8.80999E-5
10048.828125; 1.01612E-4
10054.687500; 1.08892E-4
10060.546875; 1.11323E-4
10066.406250; 1.09799E-4
10072.265625; 1.04457E-4
10078.125000; 1.15413E-4
10083.984375; 1.10319E-4
10089.843750; 9.32181E-5
10095.703125; 9.08018E-5
10101.562500; 8.45316E-5
10107.421875; 8.62483E-5
10113.281250; 9.72613E-5
10119.140625; 9.84523E-5
10125.000000; 1.06847E-4
10130.859375; 1.07677E-4
10136.718750; 1.09935E-4
10142.578125; 1.03986E-4
10148.437500; 9.96459E-5
10154.296875; 1.06239E-4
10160.156250; 1.04008E-4
10166.015625; 9.58227E-5
10171.875000; 1.06489E-4
10177.734375; 1.01771E-4
10183.593750; 1.05889E-4
10189.453125; 9.82746E-5
10195.312500; 9.18500E-5
10201.171875; 1.02666E-4
10207.031250; 9.90005E-5
10212.890625; 1.06586E-4
10218.750000; 1.08040E-4
10224.609375; 1.03075E-4
10230.468750; 1.14192E-4
10236.328125; 1.09358E-4
10242.187500; 9.62914E-5
10248.046875; 1.01365E-4
10253.906250; 1.09295E-4
10259.765625; 1.01950E-4
10265.625000; 9.07421E-5
10271.484375; 8.71686E-5
10277.343750; 9.82031E-5
10283.203125; 9.73067E-5
10289.062500; 1.06083E-4
10294.921875; 1.01399E-4
10300.781250; 1.12342E-4
10306.640625; 1.00428E-4
10312.500000; 9.80159E-5
10318.359375; 1.12417E-4
10324.218750; 1.06225E-4
10330.078125; 1.13073E-4
10335.937500; 1.12010E-4
10341.796875; 1.10540E-4
10347.656250; 1.12704E-4
10353.515625; 1.17841E-4
10359.375000; 1.05355E-4
10365.234375; 1.07587E-4
10371.093750; 1.09505E-4
10376.953125; 9.56879E-5
10382.812500; 1.09131E-4
10388.671875; 1.09969E-4
10394.531250; 1.16530E-4
10400.390625; 1.04689E-4
10406.250000; 9.96255E-5
10412.109375; 1.03884E-4
10417.968750; 9.53129E-5
10423.828125; 1.01762E-4
10429.687500; 1.07945E-4
10435.546875; 1.08100E-4
10441.406250; 1.12925E-4
10447.265625; 9.75719E-5
10453.125000; 1.08949E-4
10458.984375; 1.14186E-4
10464.843750; 1.10218E-4
10470.703125; 1.08670E-4
10476.562500; 1.06063E-4
10482.421875; 1.07059E-4
10488.281250; 1.15471E-4
10494.140625; 1.07290E-4
10500.000000; 1.09520E-4
10505.859375; 1.05526E-4
10511.718750; 1.01829E-4
10517.578125; 9.88995E-5
10523.437500; 1.05973E-4
10529.296875; 1.19722E-4
10535.156250; 1.05383E-4
10541.015625; 1.08046E-4
10546.875000; 1.10014E-4
10552.734375; 9.67063E-5
10558.593750; 9.99079E-5
10564.453125; 1.06327E-4
10570.312500; 1.17559E-4
10576.171875; 1.06077E-4
10582.031250; 1.09240E-4
10587.890625; 1.02501E-4
10593.750000; 1.10131E-4
10599.609375; 1.03708E-4
10605.468750; 1.00399E-4
10611.328125; 1.00160E-4
10617.187500; 1.17678E-4
10623.046875; 1.13450E-4
10628.906250; 1.07834E-4
10634.765625; 1.10275E-4
10640.625000; 1.18017E-4
10646.484375; 1.01050E-4
10652.343750; 1.01579E-4
10658.203125; 1.18372E-4
10664.062500; 1.02916E-4
10669.921875; 1.06963E-4
10675.781250; 1.03307E-4
10681.640625; 1.08233E-4
10687.500000; 1.03394E-4
10693.359375; 1.04271E-4
10699.218750; 1.03122E-4
10705.078125; 1.09331E-4
10710.937500; 1.10234E-4
10716.796875; 9.59360E-5
10722.656250; 1.10331E-4
10728.515625; 1.11374E-4
10734.375000; 1.04478E-4
10740.234375; 1.04171E-4
10746.093750; 9.53580E-5
10751.953125; 1.02214E-4
10757.812500; 1.01959E-4
10763.671875; 1.14272E-4
10769.531250; 1.14027E-4
10775.390625; 9.88075E-5
10781.250000; 9.66933E-5
10787.109375; 1.08160E-4
10792.968750; 1.13183E-4
10798.828125; 1.27336E-4
10804.687500; 1.11851E-4
10810.546875; 8.44262E-5
10816.406250; 1.01763E-4
10822.265625; 1.09490E-4
10828.125000; 1.05074E-4
10833.984375; 1.14534E-4
10839.843750; 1.07453E-4
10845.703125; 1.05902E-4
10851.562500; 1.11236E-4
10857.421875; 1.03151E-4
10863.281250; 1.00941E-4
10869.140625; 1.09275E-4
10875.000000; 1.07256E-4
10880.859375; 9.92665E-5
10886.718750; 1.10394E-4
10892.578125; 1.06181E-4
10898.437500; 1.03778E-4
10904.296875; 1.09998E-4
10910.156250; 1.18560E-4
10916.015625; 1.17277E-4
10921.875000; 1.19397E-4
10927.734375; 1.10407E-4
10933.593750; 1.12992E-4
10939.453125; 1.00897E-4
10945.312500; 9.95022E-5
10951.171875; 1.11331E-4
10957.031250; 1.10819E-4
10962.890625; 9.95016E-5
10968.750000; 1.04986E-4
10974.609375; 1.00990E-4
10980.468750; 9.85596E-5
10986.328125; 1.05922E-4
10992.187500; 1.24284E-4
10998.046875; 1.08457E-4
11003.906250; 9.90595E-5
11009.765625; 1.02556E-4
11015.625000; 1.11135E-4
11021.484375; 1.13276E-4
11027.343750; 9.96151E-5
11033.203125; 1.01206E-4
11039.062500; 1.15216E-4
11044.921875; 9.87372E-5
11050.781250; 1.04388E-4
11056.640625; 1.14383E-4
11062.500000; 1.09449E-4
11068.359375; 9.81733E-5
11074.218750; 1.10800E-4
11080.078125; 1.20095E-4
11085.937500; 1.08972E-4
11091.796875; 9.38284E-5
11097.656250; 1.05987E-4
11103.515625; 1.19432E-4
11109.375000; 1.08648E-4
11115.234375; 1.15168E-4
11121.093750; 1.25935E-4
11126.953125; 1.15617E-4
11132.812500; 1.13398E-4
11138.671875; 1.21779E-4
11144.531250; 1.11476E-4
11150.390625; 9.14860E-5
11156.250000; 9.96864E-5
11162.109375; 1.08378E-4
11167.968750; 9.25903E-5
11173.828125; 1.02522E-4
11179.687500; 1.00241E-4
11185.546875; 9.76712E-5
11191.406250; 9.77008E-5
11197.265625; 1.14348E-4
11203.125000; 1.07429E-4
11208.984375; 1.00329E-4
11214.843750; 1.09994E-4
11220.703125; 1.02200E-4
11226.562500; 1.05158E-4
11232.421875; 1.14027E-4
11238.281250; 1.01779E-4
11244.140625; 1.04523E-4
11250.000000; 1.08513E-4
11255.859375; 1.22146E-4
11261.718750; 1.10014E-4
11267.578125; 1.00175E-4
11273.437500; 1.01966E-4
11279.296875; 9.97751E-5
11285.156250; 8.91833E-5
11291.015625; 1.08459E-4
11296.875000; 1.27094E-4
11302.734375; 1.12583E-4
11308.593750; 1.00195E-4
11314.453125; 1.02284E-4
11320.312500; 1.08940E-4
11326.171875; 1.19906E-4
11332.031250; 1.18763E-4
11337.890625; 1.05914E-4
11343.750000; 1.05985E-4
11349.609375; 1.04153E-4
11355.468750; 9.66341E-5
11361.328125; 9.60540E-5
11367.187500; 1.11940E-4
11373.046875; 1.11823E-4
11378.906250; 1.07259E-4
11384.765625; 1.13151E-4
11390.625000; 1.17564E-4
11396.484375; 1.10574E-4
11402.343750; 1.09804E-4
11408.203125; 9.64179E-5
11414.062500; 9.81886E-5
11419.921875; 1.05258E-4
11425.781250; 1.04240E-4
11431.640625; 1.10521E-4
11437.500000; 1.08699E-4
11443.359375; 1.05847E-4
11449.218750; 1.00291E-4
11455.078125; 1.07275E-4
11460.937500; 1.02355E-4
11466.796875; 1.10336E-4
11472.656250; 1.13171E-4
11478.515625; 1.04809E-4
11484.375000; 1.16761E-4
11490.234375; 1.13992E-4
11496.093750; 1.04231E-4
11501.953125; 1.02027E-4
11507.812500; 1.10631E-4
11513.671875; 1.15244E-4
11519.531250; 1.12497E-4
11525.390625; 1.00927E-4
11531.250000; 1.12223E-4
11537.109375; 1.18105E-4
11542.968750; 1.17660E-4
11548.828125; 1.20888E-4
11554.687500; 1.03815E-4
11560.546875; 1.02663E-4
11566.406250; 1.08434E-4
11572.265625; 9.49280E-5
11578.125000; 9.38112E-5
11583.984375; 1.00677E-4
11589.843750; 9.95560E-5
11595.703125; 1.12040E-4
11601.562500; 1.02731E-4
11607.421875; 1.06461E-4
11613.281250; 1.12994E-4
11619.140625; 1.14383E-4
11625.000000; 1.18540E-4
11630.859375; 1.04783E-4
11636.718750; 9.71204E-5
11642.578125; 1.01448E-4
11648.437500; 1.11494E-4
11654.296875; 1.13793E-4
11660.156250; 1.18554E-4
11666.015625; 1.11403E-4
11671.875000; 9.89207E-5
11677.734375; 1.02918E-4
11683.593750; 1.16468E-4
11689.453125; 1.10156E-4
11695.312500; 1.15051E-4
11701.171875; 1.18328E-4
11707.031250; 1.06226E-4
11712.890625; 1.09047E-4
11718.750000; 1.19844E-4
11724.609375; 1.11810E-4
11730.468750; 1.12627E-4
11736.328125; 1.09905E-4
11742.187500; 1.14452E-4
11748.046875; 1.01477E-4
11753.906250; 9.35890E-5
11759.765625; 1.06823E-4
11765.625000; 1.12525E-4
11771.484375; 1.05190E-4
11777.343750; 1.07390E-4
11783.203125; 9.30737E-5
11789.062500; 9.69202E-5
11794.921875; 1.19513E-4
11800.781250; 1.08446E-4
11806.640625; 9.35948E-5
11812.500000; 9.66491E-5
11818.359375; 1.05548E-4
11824.218750; 1.01263E-4
11830.078125; 1.06412E-4
11835.937500; 1.10077E-4
11841.796875; 9.47146E-5
11847.656250; 8.71191E-5
11853.515625; 9.66304E-5
11859.375000; 9.66872E-5
11865.234375; 9.11492E-5
11871.093750; 9.42170E-5
11876.953125; 1.01983E-4
11882.812500; 1.13717E-4
11888.671875; 1.13289E-4
11894.531250; 1.06788E-4
11900.390625; 1.00551E-4
11906.250000; 9.59310E-5
11912.109375; 9.13745E-5
11917.968750; 9.28412E-5
11923.828125; 1.00977E-4
11929.687500; 1.07050E-4
11935.546875; 1.12048E-4
11941.406250; 1.02073E-4
11947.265625; 1.05418E-4
11953.125000; 1.09953E-4
11958.984375; 1.12316E-4
11964.843750; 1.08556E-4
11970.703125; 1.06908E-4
11976.562500; 1.00026E-4
11982.421875; 9.83282E-5
11988.281250; 1.02447E-4
11994.140625; 1.06629E-4
12000.000000; 1.02360E-4
12005.859375; 1.05658E-4
12011.718750; 1.20534E-4
12017.578125; 1.22838E-4
12023.437500; 1.06699E-4
12029.296875; 1.00665E-4
12035.156250; 1.06576E-4
12041.015625; 9.53514E-5
12046.875000; 9.80078E-5
12052.734375; 1.01952E-4
12058.593750; 1.19396E-4
12064.453125; 1.16177E-4
12070.312500; 1.02775E-4
12076.171875; 1.05369E-4
12082.031250; 1.22284E-4
12087.890625; 1.25711E-4
12093.750000; 1.04488E-4
12099.609375; 9.66678E-5
12105.468750; 9.80348E-5
12111.328125; 9.62454E-5
12117.187500; 1.04481E-4
12123.046875; 1.05169E-4
12128.906250; 1.03088E-4
12134.765625; 1.11096E-4
12140.625000; 1.20850E-4
12146.484375; 1.20760E-4
12152.343750; 1.04981E-4
12158.203125; 9.76477E-5
12164.062500; 9.85854E-5
12169.921875; 9.84151E-5
12175.781250; 1.01484E-4
12181.640625; 1.11955E-4
12187.500000; 1.14038E-4
12193.359375; 1.17806E-4
12199.218750; 9.50030E-5
12205.078125; 1.03841E-4
12210.937500; 1.18496E-4
12216.796875; 1.28990E-4
12222.656250; 9.81867E-5
12228.515625; 1.08933E-4
12234.375000; 1.15691E-4
12240.234375; 1.06741E-4
12246.093750; 9.75205E-5
12251.953125; 1.06098E-4
12257.812500; 9.98091E-5
12263.671875; 9.98223E-5
12269.531250; 1.06616E-4
12275.390625; 9.91172E-5
12281.250000; 1.00939E-4
12287.109375; 9.86960E-5
12292.968750; 1.07838E-4
12298.828125; 1.03514E-4
12304.687500; 1.09738E-4
12310.546875; 1.13169E-4
12316.406250; 1.22013E-4
12322.265625; 1.04250E-4
12328.125000; 9.87342E-5
12333.984375; 8.96931E-5
12339.843750; 8.22175E-5
12345.703125; 1.01815E-4
12351.562500; 1.12312E-4
12357.421875; 1.02449E-4
12363.281250; 1.00761E-4
12369.140625; 1.09741E-4
12375.000000; 1.04566E-4
12380.859375; 1.03685E-4
12386.718750; 1.13974E-4
12392.578125; 1.09668E-4
12398.437500; 9.88594E-5
12404.296875; 9.70690E-5
12410.156250; 1.12154E-4
12416.015625; 1.15901E-4
12421.875000; 1.08434E-4
12427.734375; 9.43010E-5
12433.593750; 9.56293E-5
12439.453125; 9.76097E-5
12445.312500; 9.90004E-5
12451.171875; 1.01007E-4
12457.031250; 9.11155E-5
12462.890625; 9.67419E-5
12468.750000; 1.08292E-4
12474.609375; 1.24423E-4
12480.468750; 1.08851E-4
12486.328125; 1.04731E-4
12492.187500; 1.10803E-4
12498.046875; 1.06927E-4
12503.906250; 1.03167E-4
12509.765625; 8.35895E-5
12515.625000; 9.55148E-5
12521.484375; 1.08976E-4
12527.343750; 1.06119E-4
12533.203125; 1.11259E-4
12539.062500; 1.07360E-4
12544.921875; 1.04995E-4
12550.781250; 1.14257E-4
12556.640625; 1.07037E-4
12562.500000; 9.98268E-5
12568.359375; 1.06442E-4
12574.218750; 1.06883E-4
12580.078125; 1.03765E-4
12585.937500; 1.09420E-4
12591.796875; 1.10582E-4
12597.656250; 1.08659E-4
12603.515625; 1.04323E-4
12609.375000; 9.82147E-5
12615.234375; 9.69220E-5
12621.093750; 1.11567E-4
12626.953125; 1.10721E-4
12632.812500; 9.86025E-5
12638.671875; 9.60401E-5
12644.531250; 9.98354E-5
12650.390625; 8.44684E-5
12656.250000; 1.05023E-4
12662.109375; 1.10734E-4
12667.968750; 9.92113E-5
12673.828125; 9.08768E-5
12679.687500; 1.00035E-4
12685.546875; 1.15151E-4
12691.406250; 1.09651E-4
12697.265625; 1.03280E-4
12703.125000; 1.06180E-4
12708.984375; 1.12112E-4
12714.843750; 1.12099E-4
12720.703125; 1.19143E-4
12726.562500; 1.14146E-4
12732.421875; 1.12063E-4
12738.281250; 1.12682E-4
12744.140625; 1.12378E-4
12750.000000; 1.08459E-4
12755.859375; 1.14137E-4
12761.718750; 9.70241E-5
12767.578125; 9.72896E-5
12773.437500; 1.04281E-4
12779.296875; 1.13933E-4
12785.156250; 1.01952E-4
12791.015625; 9.05866E-5
12796.875000; 9.93202E-5
12802.734375; 1.07467E-4
12808.593750; 1.20568E-4
12814.453125; 1.30690E-4
12820.312500; 1.22046E-4
12826.171875; 1.05198E-4
12832.031250; 1.17115E-4
12837.890625; 1.05134E-4
12843.750000; 1.13391E-4
12849.609375; 1.20871E-4
12855.468750; 1.16365E-4
12861.328125; 1.06627E-4
12867.187500; 9.85116E-5
12873.046875; 1.12637E-4
12878.906250; 1.09856E-4
12884.765625; 9.87562E-5
12890.625000; 9.41287E-5
12896.484375; 1.06109E-4
12902.343750; 9.69934E-5
12908.203125; 1.20064E-4
12914.062500; 1.09175E-4
12919.921875; 9.27988E-5
12925.781250; 9.87106E-5
12931.640625; 9.92495E-5
12937.500000; 9.75898E-5
12943.359375; 1.06634E-4
12949.218750; 1.12283E-4
12955.078125; 1.20214E-4
12960.937500; 1.13774E-4
12966.796875; 1.12835E-4
12972.656250; 1.20154E-4
12978.515625; 1.10423E-4
12984.375000; 1.15974E-4
12990.234375; 1.06648E-4
12996.093750; 9.24007E-5
13001.953125; 1.02268E-4
13007.812500; 9.63669E-5
13013.671875; 1.10042E-4
13019.531250; 1.05156E-4
13025.390625; 1.10219E-4
13031.250000; 1.04563E-4
13037.109375; 8.98614E-5
13042.968750; 1.04981E-4
13048.828125; 9.16125E-5
13054.687500; 8.56942E-5
13060.546875; 1.16682E-4
13066.406250; 1.15012E-4
13072.265625; 1.08690E-4
13078.125000; 1.10636E-4
13083.984375; 1.11381E-4
13089.843750; 1.18560E-4
13095.703125; 1.04126E-4
13101.562500; 1.00469E-4
13107.421875; 1.14295E-4
13113.281250; 1.12530E-4
13119.140625; 1.10982E-4
13125.000000; 9.67249E-5
13130.859375; 9.29924E-5
13136.718750; 9.28219E-5
13142.578125; 1.07083E-4
13148.437500; 1.20116E-4
13154.296875; 1.11359E-4
13160.156250; 1.04438E-4
13166.015625; 8.76436E-5
13171.875000; 8.58905E-5
13177.734375; 9.60082E-5
13183.593750; 9.53374E-5
13189.453125; 1.14320E-4
13195.312500; 1.11062E-4
13201.171875; 1.04805E-4
13207.031250; 9.90122E-5
13212.890625; 1.10804E-4
13218.750000; 1.13381E-4
13224.609375; 1.18074E-4
13230.468750; 1.22721E-4
13236.328125; 1.15973E-4
13242.187500; 1.04512E-4
13248.046875; 1.00402E-4
13253.906250; 1.02564E-4
13259.765625; 1.01851E-4
13265.625000; 1.01451E-4
13271.484375; 9.86604E-5
13277.343750; 1.07437E-4
13283.203125; 1.16278E-4
13289.062500; 1.07602E-4
13294.921875; 1.01270E-4
13300.781250; 1.01740E-4
13306.640625; 1.00596E-4
13312.500000; 1.21399E-4
13318.359375; 1.08108E-4
13324.218750; 8.71080E-5
13330.078125; 9.77696E-5
13335.937500; 9.75745E-5
13341.796875; 1.04488E-4
13347.656250; 1.05378E-4
13353.515625; 1.10961E-4
13359.375000; 1.11549E-4
13365.234375; 1.11657E-4
13371.093750; 1.11663E-4
13376.953125; 9.64042E-5
13382.812500; 1.01106E-4
13388.671875; 1.16036E-4
13394.531250; 1.12147E-4
13400.390625; 1.07121E-4
13406.250000; 1.20251E-4
13412.109375; 1.12794E-4
13417.968750; 9.34743E-5
13423.828125; 1.03538E-4
13429.687500; 9.73780E-5
13435.546875; 9.52396E-5
13441.406250; 1.04212E-4
13447.265625; 1.05032E-4
13453.125000; 9.33622E-5
13458.984375; 1.02353E-4
13464.843750; 1.14887E-4
13470.703125; 1.06205E-4
13476.562500; 1.08537E-4
13482.421875; 1.10715E-4
13488.281250; 1.15031E-4
13494.140625; 1.02322E-4
13500.000000; 8.99714E-5
13505.859375; 9.14817E-5
13511.718750; 9.45973E-5
13517.578125; 1.13881E-4
13523.437500; 1.12009E-4
13529.296875; 1.16051E-4
13535.156250; 1.14938E-4
13541.015625; 1.26140E-4
13546.875000; 1.15627E-4
13552.734375; 1.11553E-4
13558.593750; 1.04075E-4
13564.453125; 9.77594E-5
13570.312500; 1.06688E-4
13576.171875; 1.02612E-4
13582.031250; 1.02522E-4
13587.890625; 1.00131E-4
13593.750000; 1.09173E-4
13599.609375; 1.12244E-4
13605.468750; 1.12192E-4
13611.328125; 1.01264E-4
13617.187500; 1.05733E-4
13623.046875; 1.21077E-4
13628.906250; 1.19012E-4
13634.765625; 1.05534E-4
13640.625000; 1.03473E-4
13646.484375; 1.03775E-4
13652.343750; 1.08968E-4
13658.203125; 1.11662E-4
13664.062500; 1.00980E-4
13669.921875; 9.99429E-5
13675.781250; 9.87420E-5
13681.640625; 1.07916E-4
13687.500000; 1.17090E-4
13693.359375; 1.05343E-4
13699.218750; 9.96350E-5
13705.078125; 9.94325E-5
13710.937500; 1.07205E-4
13716.796875; 1.05214E-4
13722.656250; 1.15663E-4
13728.515625; 1.16610E-4
13734.375000; 1.12039E-4
13740.234375; 1.03923E-4
13746.093750; 1.02396E-4
13751.953125; 1.09670E-4
13757.812500; 9.89432E-5
13763.671875; 1.00590E-4
13769.531250; 1.14618E-4
13775.390625; 1.13732E-4
13781.250000; 1.10792E-4
13787.109375; 1.19339E-4
13792.968750; 1.00929E-4
13798.828125; 1.03193E-4
13804.687500; 1.09565E-4
13810.546875; 1.03459E-4
13816.406250; 1.02676E-4
13822.265625; 1.11101E-4
13828.125000; 1.11352E-4
13833.984375; 1.11882E-4
13839.843750; 1.02416E-4
13845.703125; 1.08560E-4
13851.562500; 1.08744E-4
13857.421875; 1.02780E-4
13863.281250; 1.05470E-4
13869.140625; 1.12773E-4
13875.000000; 9.73716E-5
13880.859375; 1.03313E-4
13886.718750; 1.03430E-4
13892.578125; 1.16477E-4
13898.437500; 1.20048E-4
13904.296875; 1.15730E-4
13910.156250; 1.06088E-4
13916.015625; 1.02433E-4
13921.875000; 9.39492E-5
13927.734375; 1.04554E-4
13933.593750; 1.02484E-4
13939.453125; 1.09152E-4
13945.312500; 1.22367E-4
13951.171875; 1.11885E-4
13957.031250; 1.05648E-4
13962.890625; 1.06961E-4
13968.750000; 1.11074E-4
13974.609375; 1.12321E-4
13980.468750; 1.15319E-4
13986.328125; 1.14617E-4
13992.187500; 1.02121E-4
13998.046875; 1.15914E-4
14003.906250; 1.17263E-4
14009.765625; 1.07131E-4
14015.625000; 1.07257E-4
14021.484375; 1.15570E-4
14027.343750; 1.03928E-4
14033.203125; 1.15249E-4
14039.062500; 1.07525E-4
14044.921875; 1.08264E-4
14050.781250; 1.16295E-4
14056.640625; 1.06058E-4
14062.500000; 1.10105E-4
14068.359375; 1.08910E-4
14074.218750; 8.76125E-5
14080.078125; 1.03762E-4
14085.937500; 9.98671E-5
14091.796875; 1.09784E-4
14097.656250; 8.95021E-5
14103.515625; 9.39026E-5
14109.375000; 1.01395E-4
14115.234375; 9.95339E-5
14121.093750; 1.04613E-4
14126.953125; 1.18561E-4
14132.812500; 1.05405E-4
14138.671875; 1.11500E-4
14144.531250; 9.55130E-5
14150.390625; 1.08424E-4
14156.250000; 9.36773E-5
14162.109375; 9.89838E-5
14167.968750; 1.07721E-4
14173.828125; 1.11736E-4
14179.687500; 1.03437E-4
14185.546875; 9.58540E-5
14191.406250; 1.16362E-4
14197.265625; 1.21522E-4
14203.125000; 1.07256E-4
14208.984375; 1.07981E-4
14214.843750; 1.20140E-4
14220.703125; 1.26787E-4
14226.562500; 1.19490E-4
14232.421875; 1.04667E-4
14238.281250; 1.06901E-4
14244.140625; 1.00467E-4
14250.000000; 9.99369E-5
14255.859375; 1.00238E-4
14261.718750; 9.78966E-5
14267.578125; 9.67624E-5
14273.437500; 9.62311E-5
14279.296875; 1.06083E-4
14285.156250; 1.06247E-4
14291.015625; 1.14739E-4
14296.875000; 1.03728E-4
14302.734375; 9.93187E-5
14308.593750; 1.00532E-4
14314.453125; 1.01441E-4
14320.312500; 1.10013E-4
14326.171875; 1.04421E-4
14332.031250; 1.06561E-4
14337.890625; 1.02334E-4
14343.750000; 1.06459E-4
14349.609375; 1.01186E-4
14355.468750; 1.00838E-4
14361.328125; 9.82160E-5
14367.187500; 1.03922E-4
14373.046875; 1.00854E-4
14378.906250; 9.30049E-5
14384.765625; 1.16245E-4
14390.625000; 1.16684E-4
14396.484375; 9.99232E-5
14402.343750; 1.05176E-4
14408.203125; 1.14424E-4
14414.062500; 1.18413E-4
14419.921875; 1.07770E-4
14425.781250; 1.14330E-4
14431.640625; 9.46785E-5
14437.500000; 1.03110E-4
14443.359375; 1.07016E-4
14449.218750; 9.85858E-5
14455.078125; 1.02751E-4
14460.937500; 9.46919E-5
14466.796875; 1.22747E-4
14472.656250; 1.21578E-4
14478.515625; 1.08000E-4
14484.375000; 1.06509E-4
14490.234375; 1.12493E-4
14496.093750; 1.09580E-4
14501.953125; 1.11728E-4
14507.812500; 1.15937E-4
14513.671875; 9.64180E-5
14519.531250; 1.06915E-4
14525.390625; 1.12374E-4
14531.250000; 1.03804E-4
14537.109375; 9.11433E-5
14542.968750; 9.02852E-5
14548.828125; 9.40880E-5
14554.687500; 9.48651E-5
14560.546875; 9.81573E-5
14566.406250; 9.20786E-5
14572.265625; 8.74349E-5
14578.125000; 1.02116E-4
14583.984375; 1.03241E-4
14589.843750; 1.00165E-4
14595.703125; 9.50304E-5
14601.562500; 8.79996E-5
14607.421875; 1.08667E-4
14613.281250; 1.22246E-4
14619.140625; 1.08684E-4
14625.000000; 9.70010E-5
14630.859375; 1.05267E-4
14636.718750; 1.13960E-4
14642.578125; 1.28716E-4
14648.437500; 1.23740E-4
14654.296875; 1.12641E-4
14660.156250; 1.07317E-4
14666.015625; 1.06507E-4
14671.875000; 9.99935E-5
14677.734375; 1.03944E-4
14683.593750; 9.65524E-5
14689.453125; 1.02672E-4
14695.312500; 1.13517E-4
14701.171875; 1.11832E-4
14707.031250; 1.02988E-4
14712.890625; 1.03250E-4
14718.750000; 1.16059E-4
14724.609375; 1.15604E-4
14730.468750; 1.06976E-4
14736.328125; 1.16314E-4
14742.187500; 1.13471E-4
14748.046875; 1.05608E-4
14753.906250; 1.09173E-4
14759.765625; 9.93308E-5
14765.625000; 9.16463E-5
14771.484375; 9.39280E-5
14777.343750; 1.01625E-4
14783.203125; 1.10254E-4
14789.062500; 1.04117E-4
14794.921875; 1.04643E-4
14800.781250; 1.09544E-4
14806.640625; 1.06596E-4
14812.500000; 1.05222E-4
14818.359375; 1.00937E-4
14824.218750; 9.79567E-5
14830.078125; 9.83636E-5
14835.937500; 1.03812E-4
14841.796875; 9.41888E-5
14847.656250; 1.00483E-4
14853.515625; 1.10904E-4
14859.375000; 1.15793E-4
14865.234375; 1.23005E-4
14871.093750; 1.02924E-4
14876.953125; 9.19510E-5
14882.812500; 1.00280E-4
14888.671875; 9.36119E-5
14894.531250; 9.62766E-5
14900.390625; 1.00510E-4
14906.250000; 1.02762E-4
14912.109375; 8.94429E-5
14917.968750; 1.00834E-4
14923.828125; 1.03690E-4
14929.687500; 9.07842E-5
14935.546875; 9.39128E-5
14941.406250; 9.94190E-5
14947.265625; 1.04050E-4
14953.125000; 1.00593E-4
14958.984375; 1.01601E-4
14964.843750; 9.70378E-5
14970.703125; 9.86795E-5
14976.562500; 1.02951E-4
14982.421875; 1.08109E-4
14988.281250; 1.12452E-4
14994.140625; 1.10791E-4
15000.000000; 1.29033E-4
15005.859375; 1.36505E-4
15011.718750; 1.25100E-4
15017.578125; 1.13531E-4
15023.437500; 1.05501E-4
15029.296875; 1.06999E-4
15035.156250; 1.12207E-4
15041.015625; 1.02566E-4
15046.875000; 1.05751E-4
15052.734375; 1.12041E-4
15058.593750; 1.03597E-4
15064.453125; 1.07628E-4
15070.312500; 1.15499E-4
15076.171875; 1.17611E-4
15082.031250; 1.17781E-4
15087.890625; 1.20038E-4
15093.750000; 1.02974E-4
15099.609375; 9.39166E-5
15105.468750; 1.10987E-4
15111.328125; 9.37004E-5
15117.187500; 1.04191E-4
15123.046875; 1.15591E-4
15128.906250; 9.80765E-5
15134.765625; 1.04594E-4
15140.625000; 1.07504E-4
15146.484375; 9.39584E-5
15152.343750; 9.48205E-5
15158.203125; 9.91439E-5
15164.062500; 8.60980E-5
15169.921875; 9.66466E-5
15175.781250; 1.15215E-4
15181.640625; 1.06794E-4
15187.500000; 1.03172E-4
15193.359375; 9.63722E-5
15199.218750; 1.02128E-4
15205.078125; 1.07953E-4
15210.937500; 1.13655E-4
15216.796875; 1.03869E-4
15222.656250; 1.03426E-4
15228.515625; 1.05683E-4
15234.375000; 1.03300E-4
15240.234375; 1.11446E-4
15246.093750; 1.09727E-4
15251.953125; 1.02655E-4
15257.812500; 1.01373E-4
15263.671875; 9.67008E-5
15269.531250; 9.37521E-5
15275.390625; 9.76484E-5
15281.250000; 1.01685E-4
15287.109375; 1.04256E-4
15292.968750; 1.09304E-4
15298.828125; 1.15557E-4
15304.687500; 1.19522E-4
15310.546875; 1.16719E-4
15316.406250; 1.19931E-4
15322.265625; 1.03961E-4
15328.125000; 9.14656E-5
15333.984375; 1.04578E-4
15339.843750; 9.77951E-5
15345.703125; 9.76564E-5
15351.562500; 1.14824E-4
15357.421875; 9.28282E-5
15363.281250; 1.04130E-4
15369.140625; 1.09289E-4
15375.000000; 9.78660E-5
15380.859375; 8.77542E-5
15386.718750; 9.51688E-5
15392.578125; 1.20050E-4
15398.437500; 1.11513E-4
15404.296875; 1.06510E-4
15410.156250; 1.18013E-4
15416.015625; 1.19646E-4
15421.875000; 1.12456E-4
15427.734375; 1.02550E-4
15433.593750; 1.07837E-4
15439.453125; 9.20448E-5
15445.312500; 9.46716E-5
15451.171875; 1.11028E-4
15457.031250; 1.22741E-4
15462.890625; 1.15183E-4
15468.750000; 1.20732E-4
15474.609375; 1.22161E-4
15480.468750; 1.04498E-4
15486.328125; 1.06825E-4
15492.187500; 1.17832E-4
15498.046875; 9.45520E-5
15503.906250; 1.13718E-4
15509.765625; 1.18133E-4
15515.625000; 9.43548E-5
15521.484375; 1.06977E-4
15527.343750; 1.11290E-4
15533.203125; 1.02734E-4
15539.062500; 1.04020E-4
15544.921875; 1.11860E-4
15550.781250; 1.02779E-4
15556.640625; 9.65877E-5
15562.500000; 1.00518E-4
15568.359375; 9.81875E-5
15574.218750; 1.05093E-4
15580.078125; 1.02631E-4
15585.937500; 1.00308E-4
15591.796875; 1.15384E-4
15597.656250; 1.06033E-4
15603.515625; 9.27871E-5
15609.375000; 1.12547E-4
15615.234375; 1.18752E-4
15621.093750; 1.04440E-4
15626.953125; 1.13282E-4
15632.812500; 1.20359E-4
15638.671875; 1.08154E-4
15644.531250; 1.06619E-4
15650.390625; 1.09018E-4
15656.250000; 1.21259E-4
15662.109375; 1.09796E-4
15667.968750; 9.02157E-5
15673.828125; 1.03343E-4
15679.687500; 9.84096E-5
15685.546875; 9.65386E-5
15691.406250; 1.00354E-4
15697.265625; 9.17541E-5
15703.125000; 1.00063E-4
15708.984375; 1.03723E-4
15714.843750; 9.88965E-5
15720.703125; 8.74791E-5
15726.562500; 9.07642E-5
15732.421875; 1.08766E-4
15738.281250; 1.12401E-4
15744.140625; 1.09608E-4
15750.000000; 1.07916E-4
15755.859375; 1.02596E-4
15761.718750; 9.97673E-5
15767.578125; 1.17944E-4
15773.437500; 1.16816E-4
15779.296875; 1.08924E-4
15785.156250; 1.07719E-4
15791.015625; 1.02932E-4
15796.875000; 1.10121E-4
15802.734375; 1.07360E-4
15808.593750; 1.23679E-4
15814.453125; 1.21524E-4
15820.312500; 1.11104E-4
15826.171875; 1.01566E-4
15832.031250; 9.74479E-5
15837.890625; 1.04692E-4
15843.750000; 1.11948E-4
15849.609375; 1.15048E-4
15855.468750; 1.09654E-4
15861.328125; 1.08223E-4
15867.187500; 9.67363E-5
15873.046875; 9.69923E-5
15878.906250; 9.74704E-5
15884.765625; 1.08785E-4
15890.625000; 1.11513E-4
15896.484375; 1.07135E-4
15902.343750; 1.01645E-4
15908.203125; 1.10629E-4
15914.062500; 1.10054E-4
15919.921875; 1.00203E-4
15925.781250; 1.06130E-4
15931.640625; 1.04524E-4
15937.500000; 1.12396E-4
15943.359375; 1.20735E-4
15949.218750; 1.04886E-4
15955.078125; 9.75428E-5
15960.937500; 1.13845E-4
15966.796875; 1.00850E-4
15972.656250; 1.01983E-4
15978.515625; 1.23512E-4
15984.375000; 1.17785E-4
15990.234375; 1.08079E-4
15996.093750; 1.12054E-4
16001.953125; 1.05290E-4
16007.812500; 1.09101E-4
16013.671875; 1.12735E-4
16019.531250; 1.02874E-4
16025.390625; 9.45394E-5
16031.250000; 9.25812E-5
16037.109375; 1.00522E-4
16042.968750; 1.02123E-4
16048.828125; 1.22338E-4
16054.687500; 1.25422E-4
16060.546875; 1.07821E-4
16066.406250; 1.06072E-4
16072.265625; 1.16918E-4
16078.125000; 1.02163E-4
16083.984375; 1.04925E-4
16089.843750; 1.13395E-4
16095.703125; 1.04488E-4
16101.562500; 1.04948E-4
16107.421875; 1.16591E-4
16113.281250; 9.98068E-5
16119.140625; 1.07862E-4
16125.000000; 1.09897E-4
16130.859375; 1.02692E-4
16136.718750; 1.09276E-4
16142.578125; 1.01340E-4
16148.437500; 1.00382E-4
16154.296875; 1.06573E-4
16160.156250; 1.02980E-4
16166.015625; 1.15996E-4
16171.875000; 1.14406E-4
16177.734375; 9.78904E-5
16183.593750; 9.37063E-5
16189.453125; 9.00109E-5
16195.312500; 9.13067E-5
16201.171875; 9.48352E-5
16207.031250; 9.75786E-5
16212.890625; 9.78246E-5
16218.750000; 1.00459E-4
16224.609375; 1.17041E-4
16230.468750; 9.65625E-5
16236.328125; 9.72145E-5
16242.187500; 9.95406E-5
16248.046875; 9.83071E-5
16253.906250; 1.21220E-4
16259.765625; 1.16479E-4
16265.625000; 1.06999E-4
16271.484375; 1.11513E-4
16277.343750; 1.14977E-4
16283.203125; 1.19282E-4
16289.062500; 1.26529E-4
16294.921875; 1.09975E-4
16300.781250; 1.01869E-4
16306.640625; 1.15773E-4
16312.500000; 1.05449E-4
16318.359375; 1.01988E-4
16324.218750; 1.09329E-4
16330.078125; 1.10957E-4
16335.937500; 1.07453E-4
16341.796875; 9.81268E-5
16347.656250; 1.16695E-4
16353.515625; 1.17132E-4
16359.375000; 9.88287E-5
16365.234375; 9.21925E-5
16371.093750; 9.57762E-5
16376.953125; 9.22957E-5
16382.812500; 9.61952E-5
16388.671875; 9.32967E-5
16394.531250; 9.41706E-5
16400.390625; 1.12676E-4
16406.250000; 1.17125E-4
16412.109375; 9.93815E-5
16417.968750; 9.60756E-5
16423.828125; 1.02540E-4
16429.687500; 1.05973E-4
16435.546875; 1.02823E-4
16441.406250; 8.29642E-5
16447.265625; 1.01770E-4
16453.125000; 1.03378E-4
16458.984375; 1.01121E-4
16464.843750; 1.08808E-4
16470.703125; 1.10606E-4
16476.562500; 1.12114E-4
16482.421875; 9.42537E-5
16488.281250; 1.00773E-4
16494.140625; 1.04290E-4
16500.000000; 9.14051E-5
16505.859375; 9.47434E-5
16511.718750; 9.57675E-5
16517.578125; 1.01717E-4
16523.437500; 1.14990E-4
16529.296875; 1.05242E-4
16535.156250; 9.94287E-5
16541.015625; 1.04896E-4
16546.875000; 1.00205E-4
16552.734375; 1.05774E-4
16558.593750; 1.09087E-4
16564.453125; 1.03444E-4
16570.312500; 9.91086E-5
16576.171875; 1.19134E-4
16582.031250; 1.27219E-4
16587.890625; 1.09206E-4
16593.750000; 1.03107E-4
16599.609375; 1.24461E-4
16605.468750; 1.06739E-4
16611.328125; 9.97541E-5
16617.187500; 1.02973E-4
16623.046875; 9.75260E-5
16628.906250; 8.93189E-5
16634.765625; 9.13681E-5
16640.625000; 1.04843E-4
16646.484375; 9.83801E-5
16652.343750; 1.06165E-4
16658.203125; 1.04805E-4
16664.062500; 1.03252E-4
16669.921875; 1.16333E-4
16675.781250; 1.14283E-4
16681.640625; 1.17279E-4
16687.500000; 1.14363E-4
16693.359375; 1.03913E-4
16699.218750; 9.20891E-5
16705.078125; 1.09172E-4
16710.937500; 1.10063E-4
16716.796875; 1.05679E-4
16722.656250; 1.05358E-4
16728.515625; 9.78682E-5
16734.375000; 9.54110E-5
16740.234375; 1.06220E-4
16746.093750; 1.14313E-4
16751.953125; 1.09449E-4
16757.812500; 1.07967E-4
16763.671875; 1.09528E-4
16769.531250; 1.05651E-4
16775.390625; 1.03999E-4
16781.250000; 1.07099E-4
16787.109375; 1.04446E-4
16792.968750; 1.07084E-4
16798.828125; 1.03001E-4
16804.687500; 1.10098E-4
16810.546875; 1.03919E-4
16816.406250; 1.07942E-4
16822.265625; 1.15450E-4
16828.125000; 1.07608E-4
16833.984375; 1.06251E-4
16839.843750; 9.48494E-5
16845.703125; 1.14310E-4
16851.562500; 1.11510E-4
16857.421875; 9.48764E-5
16863.281250; 9.79792E-5
16869.140625; 9.58649E-5
16875.000000; 1.10900E-4
16880.859375; 1.05900E-4
16886.718750; 1.05107E-4
16892.578125; 1.16665E-4
16898.437500; 1.09976E-4
16904.296875; 1.04780E-4
16910.156250; 1.08969E-4
16916.015625; 9.64601E-5
16921.875000; 9.38798E-5
16927.734375; 1.03690E-4
16933.593750; 9.92860E-5
16939.453125; 9.69096E-5
16945.312500; 1.10707E-4
16951.171875; 1.03005E-4
16957.031250; 1.00406E-4
16962.890625; 1.03532E-4
16968.750000; 1.00247E-4
16974.609375; 1.00452E-4
16980.468750; 1.08112E-4
16986.328125; 1.15718E-4
16992.187500; 1.09360E-4
16998.046875; 9.71737E-5
17003.906250; 1.03478E-4
17009.765625; 1.09333E-4
17015.625000; 1.03209E-4
17021.484375; 1.00625E-4
17027.343750; 1.16161E-4
17033.203125; 1.06767E-4
17039.062500; 9.90450E-5
17044.921875; 1.04726E-4
17050.781250; 9.90290E-5
17056.640625; 8.43330E-5
17062.500000; 9.38080E-5
17068.359375; 1.09086E-4
17074.218750; 1.01731E-4
17080.078125; 1.01219E-4
17085.937500; 9.53930E-5
17091.796875; 1.00714E-4
17097.656250; 9.50644E-5
17103.515625; 9.88366E-5
17109.375000; 1.07000E-4
17115.234375; 1.13792E-4
17121.093750; 1.18203E-4
17126.953125; 1.08637E-4
17132.812500; 1.02472E-4
17138.671875; 1.13825E-4
17144.531250; 1.10133E-4
17150.390625; 1.15810E-4
17156.250000; 1.09302E-4
17162.109375; 1.12106E-4
17167.968750; 1.10247E-4
17173.828125; 1.01073E-4
17179.687500; 1.04566E-4
17185.546875; 1.03646E-4
17191.406250; 1.05858E-4
17197.265625; 9.81270E-5
17203.125000; 9.79327E-5
17208.984375; 9.84652E-5
17214.843750; 1.07010E-4
17220.703125; 1.06942E-4
17226.562500; 9.84358E-5
17232.421875; 9.82690E-5
17238.281250; 1.04890E-4
17244.140625; 1.10854E-4
17250.000000; 1.08926E-4
17255.859375; 1.02025E-4
17261.718750; 9.98167E-5
17267.578125; 1.07126E-4
17273.437500; 1.21832E-4
17279.296875; 1.17390E-4
17285.156250; 1.13687E-4
17291.015625; 1.10384E-4
17296.875000; 1.10677E-4
17302.734375; 1.03987E-4
17308.593750; 9.82929E-5
17314.453125; 1.04570E-4
17320.312500; 9.83809E-5
17326.171875; 9.54703E-5
17332.031250; 9.50494E-5
17337.890625; 1.00188E-4
17343.750000; 1.14162E-4
17349.609375; 1.08641E-4
17355.468750; 9.88751E-5
17361.328125; 1.06446E-4
17367.187500; 9.71684E-5
17373.046875; 1.01129E-4
17378.906250; 1.12823E-4
17384.765625; 9.78886E-5
17390.625000; 8.90224E-5
17396.484375; 1.04830E-4
17402.343750; 1.05989E-4
17408.203125; 1.03277E-4
17414.062500; 1.06940E-4
17419.921875; 1.01316E-4
17425.781250; 1.05386E-4
17431.640625; 1.00518E-4
17437.500000; 1.01705E-4
17443.359375; 1.17543E-4
17449.218750; 1.08720E-4
17455.078125; 1.01283E-4
17460.937500; 9.90002E-5
17466.796875; 1.08713E-4
17472.656250; 1.09891E-4
17478.515625; 1.11444E-4
17484.375000; 1.06685E-4
17490.234375; 9.88674E-5
17496.093750; 1.03005E-4
17501.953125; 9.77493E-5
17507.812500; 9.06067E-5
17513.671875; 9.02481E-5
17519.531250; 1.01137E-4
17525.390625; 1.02786E-4
17531.250000; 8.57473E-5
17537.109375; 1.09661E-4
17542.968750; 1.12806E-4
17548.828125; 9.26996E-5
17554.687500; 1.02794E-4
17560.546875; 1.08402E-4
17566.406250; 1.06256E-4
17572.265625; 1.08195E-4
17578.125000; 1.24771E-4
17583.984375; 1.22599E-4
17589.843750; 1.08788E-4
17595.703125; 1.02457E-4
17601.562500; 9.60191E-5
17607.421875; 1.12263E-4
17613.281250; 1.09760E-4
17619.140625; 1.04591E-4
17625.000000; 1.10111E-4
17630.859375; 1.11570E-4
17636.718750; 1.07304E-4
17642.578125; 9.46497E-5
17648.437500; 9.60435E-5
17654.296875; 1.15771E-4
17660.156250; 1.19694E-4
17666.015625; 1.09195E-4
17671.875000; 9.03889E-5
17677.734375; 9.03657E-5
17683.593750; 9.73513E-5
17689.453125; 8.54116E-5
17695.312500; 9.06352E-5
17701.171875; 1.04147E-4
17707.031250; 1.09552E-4
17712.890625; 1.11676E-4
17718.750000; 1.11780E-4
17724.609375; 1.14832E-4
17730.468750; 1.08312E-4
17736.328125; 1.08736E-4
17742.187500; 1.09404E-4
17748.046875; 1.12286E-4
17753.906250; 9.72309E-5
17759.765625; 9.39224E-5
17765.625000; 1.03782E-4
17771.484375; 9.77943E-5
17777.343750; 9.42567E-5
17783.203125; 1.00116E-4
17789.062500; 1.05245E-4
17794.921875; 1.06745E-4
17800.781250; 1.00965E-4
17806.640625; 1.01676E-4
17812.500000; 1.11491E-4
17818.359375; 1.06189E-4
17824.218750; 9.56809E-5
17830.078125; 8.79747E-5
17835.937500; 9.73903E-5
17841.796875; 9.23477E-5
17847.656250; 9.16632E-5
17853.515625; 1.02197E-4
17859.375000; 1.12908E-4
17865.234375; 1.01626E-4
17871.093750; 1.09078E-4
17876.953125; 9.85097E-5
17882.812500; 1.08586E-4
17888.671875; 1.07703E-4
17894.531250; 9.12586E-5
17900.390625; 9.73494E-5
17906.250000; 9.98122E-5
17912.109375; 9.73762E-5
17917.968750; 1.03674E-4
17923.828125; 1.03219E-4
17929.687500; 9.88975E-5
17935.546875; 9.48401E-5
17941.406250; 9.40542E-5
17947.265625; 1.02712E-4
17953.125000; 1.00126E-4
17958.984375; 1.02702E-4
17964.843750; 1.08684E-4
17970.703125; 1.15602E-4
17976.562500; 1.11458E-4
17982.421875; 1.08256E-4
17988.281250; 9.44494E-5
17994.140625; 9.48769E-5
18000.000000; 9.91586E-5
18005.859375; 1.03425E-4
18011.718750; 1.02938E-4
18017.578125; 9.99975E-5
18023.437500; 1.00020E-4
18029.296875; 1.19716E-4
18035.156250; 1.16518E-4
18041.015625; 1.02932E-4
18046.875000; 8.83330E-5
18052.734375; 9.36005E-5
18058.593750; 1.00852E-4
18064.453125; 1.02383E-4
18070.312500; 9.79851E-5
18076.171875; 9.61259E-5
18082.031250; 1.03710E-4
18087.890625; 9.02590E-5
18093.750000; 8.35809E-5
18099.609375; 1.02518E-4
18105.468750; 1.14224E-4
18111.328125; 1.12997E-4
18117.187500; 1.18857E-4
18123.046875; 1.08177E-4
18128.906250; 1.02604E-4
18134.765625; 1.05946E-4
18140.625000; 1.08591E-4
18146.484375; 9.78564E-5
18152.343750; 9.34042E-5
18158.203125; 1.08983E-4
18164.062500; 1.05083E-4
18169.921875; 1.01509E-4
18175.781250; 1.17237E-4
18181.640625; 1.14710E-4
18187.500000; 1.00401E-4
18193.359375; 1.02556E-4
18199.218750; 1.00951E-4
18205.078125; 9.84170E-5
18210.937500; 1.01156E-4
18216.796875; 9.93437E-5
18222.656250; 9.33884E-5
18228.515625; 9.41959E-5
18234.375000; 1.00333E-4
18240.234375; 1.05937E-4
18246.093750; 1.06851E-4
18251.953125; 1.19797E-4
18257.812500; 1.20101E-4
18263.671875; 1.10778E-4
18269.531250; 1.09626E-4
18275.390625; 1.08321E-4
18281.250000; 9.29845E-5
18287.109375; 9.48596E-5
18292.968750; 1.10751E-4
18298.828125; 1.18794E-4
18304.687500; 1.25831E-4
18310.546875; 1.28447E-4
18316.406250; 1.23057E-4
18322.265625; 1.14564E-4
18328.125000; 1.13287E-4
18333.984375; 1.11552E-4
18339.843750; 1.09225E-4
18345.703125; 1.19512E-4
18351.562500; 1.08742E-4
18357.421875; 1.05051E-4
18363.281250; 1.04866E-4
18369.140625; 1.13423E-4
18375.000000; 1.21302E-4
18380.859375; 1.14514E-4
18386.718750; 1.05617E-4
18392.578125; 1.04541E-4
18398.437500; 1.06920E-4
18404.296875; 1.08556E-4
18410.156250; 1.06874E-4
18416.015625; 9.16554E-5
18421.875000; 9.16934E-5
18427.734375; 1.19345E-4
18433.593750; 1.11837E-4
18439.453125; 1.00901E-4
18445.312500; 1.14802E-4
18451.171875; 1.12972E-4
18457.031250; 1.00368E-4
18462.890625; 1.10840E-4
18468.750000; 1.10186E-4
18474.609375; 1.04695E-4
18480.468750; 9.70284E-5
18486.328125; 1.08928E-4
18492.187500; 1.09062E-4
18498.046875; 1.16568E-4
18503.906250; 1.03844E-4
18509.765625; 9.67323E-5
18515.625000; 9.82970E-5
18521.484375; 1.12921E-4
18527.343750; 1.15322E-4
18533.203125; 1.07315E-4
18539.062500; 1.13244E-4
18544.921875; 9.19753E-5
18550.781250; 1.06360E-4
18556.640625; 1.09293E-4
18562.500000; 1.18703E-4
18568.359375; 1.22703E-4
18574.218750; 1.12833E-4
18580.078125; 1.11637E-4
18585.937500; 1.10650E-4
18591.796875; 1.00114E-4
18597.656250; 1.08914E-4
18603.515625; 1.01305E-4
18609.375000; 1.14239E-4
18615.234375; 9.95071E-5
18621.093750; 1.01535E-4
18626.953125; 9.98903E-5
18632.812500; 1.01206E-4
18638.671875; 1.01020E-4
18644.531250; 9.94990E-5
18650.390625; 1.03666E-4
18656.250000; 8.57519E-5
18662.109375; 9.07687E-5
18667.968750; 9.93097E-5
18673.828125; 9.81832E-5
18679.687500; 1.18196E-4
18685.546875; 1.14809E-4
18691.406250; 1.13402E-4
18697.265625; 1.16231E-4
18703.125000; 1.00745E-4
18708.984375; 1.04857E-4
18714.843750; 1.04598E-4
18720.703125; 9.51748E-5
18726.562500; 9.56862E-5
18732.421875; 8.72596E-5
18738.281250; 9.17442E-5
18744.140625; 9.39668E-5
18750.000000; 1.09799E-4
18755.859375; 1.10104E-4
18761.718750; 1.11129E-4
18767.578125; 1.14722E-4
18773.437500; 1.07220E-4
18779.296875; 1.07400E-4
18785.156250; 1.13160E-4
18791.015625; 1.02363E-4
18796.875000; 9.79376E-5
18802.734375; 1.01224E-4
18808.593750; 9.54489E-5
18814.453125; 1.00566E-4
18820.312500; 8.76882E-5
18826.171875; 9.66355E-5
18832.031250; 1.04423E-4
18837.890625; 1.04830E-4
18843.750000; 1.10831E-4
18849.609375; 9.84713E-5
18855.468750; 8.70370E-5
18861.328125; 9.11757E-5
18867.187500; 1.02435E-4
18873.046875; 9.97206E-5
18878.906250; 9.99240E-5
18884.765625; 1.02997E-4
18890.625000; 1.16505E-4
18896.484375; 1.12789E-4
18902.343750; 1.10844E-4
18908.203125; 1.06462E-4
18914.062500; 9.36576E-5
18919.921875; 9.93391E-5
18925.781250; 1.03209E-4
18931.640625; 9.99884E-5
18937.500000; 1.03953E-4
18943.359375; 1.10802E-4
18949.218750; 9.94106E-5
18955.078125; 8.96138E-5
18960.937500; 1.07455E-4
18966.796875; 1.05159E-4
18972.656250; 1.03536E-4
18978.515625; 9.83853E-5
18984.375000; 9.90428E-5
18990.234375; 1.23689E-4
18996.093750; 1.08045E-4
19001.953125; 9.74832E-5
19007.812500; 9.17286E-5
19013.671875; 8.33302E-5
19019.531250; 8.81726E-5
19025.390625; 9.95943E-5
19031.250000; 1.11181E-4
19037.109375; 1.11072E-4
19042.968750; 1.23298E-4
19048.828125; 1.12772E-4
19054.687500; 1.07218E-4
19060.546875; 1.11526E-4
19066.406250; 1.03718E-4
19072.265625; 9.57462E-5
19078.125000; 7.16807E-5
19083.984375; 8.53674E-5
19089.843750; 1.04235E-4
19095.703125; 1.13482E-4
19101.562500; 1.10211E-4
19107.421875; 1.26127E-4
19113.281250; 1.20080E-4
19119.140625; 1.08620E-4
19125.000000; 1.12053E-4
19130.859375; 1.05488E-4
19136.718750; 9.63491E-5
19142.578125; 1.01749E-4
19148.437500; 1.02336E-4
19154.296875; 9.96185E-5
19160.156250; 1.00405E-4
19166.015625; 9.31702E-5
19171.875000; 1.06271E-4
19177.734375; 1.15928E-4
19183.593750; 1.01350E-4
19189.453125; 1.00115E-4
19195.312500; 1.12648E-4
19201.171875; 1.07299E-4
19207.031250; 9.26698E-5
19212.890625; 9.83265E-5
19218.750000; 1.00591E-4
19224.609375; 1.03499E-4
19230.468750; 1.03318E-4
19236.328125; 1.09448E-4
19242.187500; 1.16499E-4
19248.046875; 1.08111E-4
19253.906250; 1.05798E-4
19259.765625; 1.00342E-4
19265.625000; 9.97191E-5
19271.484375; 9.67001E-5
19277.343750; 1.08090E-4
19283.203125; 9.59674E-5
19289.062500; 9.04009E-5
19294.921875; 1.05700E-4
19300.781250; 1.15755E-4
19306.640625; 1.06900E-4
19312.500000; 1.06354E-4
19318.359375; 1.04483E-4
19324.218750; 9.11463E-5
19330.078125; 1.07085E-4
19335.937500; 1.22677E-4
19341.796875; 1.14070E-4
19347.656250; 1.06904E-4
19353.515625; 9.90764E-5
19359.375000; 9.75427E-5
19365.234375; 1.10610E-4
19371.093750; 1.14522E-4
19376.953125; 1.17573E-4
19382.812500; 1.07831E-4
19388.671875; 1.07264E-4
19394.531250; 1.06766E-4
19400.390625; 1.07810E-4
19406.250000; 1.13561E-4
19412.109375; 1.12170E-4
19417.968750; 1.09967E-4
19423.828125; 1.08987E-4
19429.687500; 1.05944E-4
19435.546875; 1.06941E-4
19441.406250; 9.94287E-5
19447.265625; 1.08863E-4
19453.125000; 1.08192E-4
19458.984375; 1.07215E-4
19464.843750; 1.00644E-4
19470.703125; 1.01219E-4
19476.562500; 1.04884E-4
19482.421875; 1.05859E-4
19488.281250; 1.00692E-4
19494.140625; 9.87836E-5
19500.000000; 1.07984E-4
19505.859375; 9.94655E-5
19511.718750; 1.07436E-4
19517.578125; 1.11080E-4
19523.437500; 1.05322E-4
19529.296875; 9.62661E-5
19535.156250; 9.45225E-5
19541.015625; 1.06686E-4
19546.875000; 1.11711E-4
19552.734375; 1.04383E-4
19558.593750; 1.01082E-4
19564.453125; 9.94000E-5
19570.312500; 9.45350E-5
19576.171875; 8.88162E-5
19582.031250; 9.16577E-5
19587.890625; 8.83615E-5
19593.750000; 9.62366E-5
19599.609375; 1.03491E-4
19605.468750; 9.79558E-5
19611.328125; 8.58809E-5
19617.187500; 9.05484E-5
19623.046875; 8.68846E-5
19628.906250; 1.00204E-4
19634.765625; 1.09232E-4
19640.625000; 1.02211E-4
19646.484375; 8.85391E-5
19652.343750; 9.73716E-5
19658.203125; 1.05697E-4
19664.062500; 1.07632E-4
19669.921875; 8.92127E-5
19675.781250; 1.03466E-4
19681.640625; 1.05196E-4
19687.500000; 9.36928E-5
19693.359375; 1.07601E-4
19699.218750; 1.11043E-4
19705.078125; 8.30665E-5
19710.937500; 9.01129E-5
19716.796875; 1.01803E-4
19722.656250; 1.07264E-4
19728.515625; 1.03027E-4
19734.375000; 9.05707E-5
19740.234375; 9.39281E-5
19746.093750; 8.78770E-5
19751.953125; 9.93833E-5
19757.812500; 1.11575E-4
19763.671875; 1.06980E-4
19769.531250; 1.04144E-4
19775.390625; 9.81285E-5
19781.250000; 1.12840E-4
19787.109375; 1.06971E-4
19792.968750; 9.14296E-5
19798.828125; 9.25993E-5
19804.687500; 9.17050E-5
19810.546875; 1.03468E-4
19816.406250; 1.09309E-4
19822.265625; 9.14529E-5
19828.125000; 9.40262E-5
19833.984375; 1.03839E-4
19839.843750; 1.00232E-4
19845.703125; 9.38104E-5
19851.562500; 9.39883E-5
19857.421875; 9.16515E-5
19863.281250; 1.11044E-4
19869.140625; 9.12439E-5
19875.000000; 8.07959E-5
19880.859375; 8.79320E-5
19886.718750; 1.02148E-4
19892.578125; 1.21117E-4
19898.437500; 1.04315E-4
19904.296875; 9.57593E-5
19910.156250; 1.10079E-4
19916.015625; 1.03897E-4
19921.875000; 9.15725E-5
19927.734375; 1.00612E-4
19933.593750; 1.08423E-4
19939.453125; 1.02208E-4
19945.312500; 9.87111E-5
19951.171875; 8.80067E-5
19957.031250; 9.44860E-5
19962.890625; 1.02316E-4
19968.750000; 1.02698E-4
19974.609375; 1.01272E-4
19980.468750; 1.00324E-4
19986.328125; 1.07572E-4
19992.187500; 1.08295E-4
19998.046875; 1.13679E-4
20003.906250; 1.07451E-4
20009.765625; 1.04837E-4
20015.625000; 1.04441E-4
20021.484375; 1.10066E-4
20027.343750; 1.13331E-4
20033.203125; 1.04691E-4
20039.062500; 9.70036E-5
20044.921875; 1.02834E-4
20050.781250; 9.95762E-5
20056.640625; 9.12256E-5
20062.500000; 1.00066E-4
20068.359375; 1.14888E-4
20074.218750; 1.26578E-4
20080.078125; 1.15747E-4
20085.937500; 1.12948E-4
20091.796875; 1.17558E-4
20097.656250; 1.07042E-4
20103.515625; 9.93431E-5
20109.375000; 1.08309E-4
20115.234375; 1.01732E-4
20121.093750; 1.04973E-4
20126.953125; 1.10983E-4
20132.812500; 1.05463E-4
20138.671875; 1.06511E-4
20144.531250; 9.89004E-5
20150.390625; 1.06517E-4
20156.250000; 1.07723E-4
20162.109375; 1.00976E-4
20167.968750; 9.47956E-5
20173.828125; 9.66758E-5
20179.687500; 1.07377E-4
20185.546875; 1.08893E-4
20191.406250; 1.03485E-4
20197.265625; 1.03978E-4
20203.125000; 1.20933E-4
20208.984375; 1.14057E-4
20214.843750; 9.92545E-5
20220.703125; 1.02163E-4
20226.562500; 9.69041E-5
20232.421875; 1.08507E-4
20238.281250; 1.05597E-4
20244.140625; 9.68020E-5
20250.000000; 1.07446E-4
20255.859375; 1.00264E-4
20261.718750; 8.65732E-5
20267.578125; 9.74948E-5
20273.437500; 1.01595E-4
20279.296875; 9.04437E-5
20285.156250; 9.58853E-5
20291.015625; 1.11781E-4
20296.875000; 1.14879E-4
20302.734375; 1.05094E-4
20308.593750; 9.94017E-5
20314.453125; 9.70215E-5
20320.312500; 1.13593E-4
20326.171875; 1.08646E-4
20332.031250; 9.41373E-5
20337.890625; 9.35146E-5
20343.750000; 1.11139E-4
20349.609375; 1.16450E-4
20355.468750; 1.03374E-4
20361.328125; 9.38725E-5
20367.187500; 9.18237E-5
20373.046875; 9.50090E-5
20378.906250; 1.06149E-4
20384.765625; 1.02086E-4
20390.625000; 1.02001E-4
20396.484375; 1.07134E-4
20402.343750; 1.06142E-4
20408.203125; 9.60700E-5
20414.062500; 1.03706E-4
20419.921875; 1.27629E-4
20425.781250; 1.22208E-4
20431.640625; 1.10047E-4
20437.500000; 1.08105E-4
20443.359375; 1.08009E-4
20449.218750; 9.62620E-5
20455.078125; 1.09385E-4
20460.937500; 1.07250E-4
20466.796875; 1.03763E-4
20472.656250; 9.88971E-5
20478.515625; 1.07858E-4
20484.375000; 1.22759E-4
20490.234375; 1.21018E-4
20496.093750; 1.09839E-4
20501.953125; 1.07174E-4
20507.812500; 9.80601E-5
20513.671875; 1.04091E-4
20519.531250; 1.12387E-4
20525.390625; 1.09359E-4
20531.250000; 1.02702E-4
20537.109375; 1.06917E-4
20542.968750; 1.11221E-4
20548.828125; 1.10759E-4
20554.687500; 1.14149E-4
20560.546875; 9.59786E-5
20566.406250; 8.93508E-5
20572.265625; 9.71845E-5
20578.125000; 1.01729E-4
20583.984375; 1.00402E-4
20589.843750; 9.67908E-5
20595.703125; 1.01423E-4
20601.562500; 1.09639E-4
20607.421875; 1.07487E-4
20613.281250; 1.11394E-4
20619.140625; 1.13299E-4
20625.000000; 9.87724E-5
20630.859375; 9.20884E-5
20636.718750; 1.02471E-4
20642.578125; 1.04300E-4
20648.437500; 1.08524E-4
20654.296875; 1.06123E-4
20660.156250; 9.02347E-5
20666.015625; 9.14798E-5
20671.875000; 1.12786E-4
20677.734375; 1.19419E-4
20683.593750; 1.15428E-4
20689.453125; 1.04536E-4
20695.312500; 8.88014E-5
20701.171875; 9.12046E-5
20707.031250; 1.02549E-4
20712.890625; 1.10598E-4
20718.750000; 1.12361E-4
20724.609375; 1.13181E-4
20730.468750; 1.10202E-4
20736.328125; 1.10203E-4
20742.187500; 1.09083E-4
20748.046875; 1.14527E-4
20753.906250; 1.03556E-4
20759.765625; 9.84773E-5
20765.625000; 9.91481E-5
20771.484375; 1.04892E-4
20777.343750; 9.69200E-5
20783.203125; 9.03562E-5
20789.062500; 9.39974E-5
20794.921875; 1.15688E-4
20800.781250; 1.17371E-4
20806.640625; 1.08097E-4
20812.500000; 1.14584E-4
20818.359375; 9.82845E-5
20824.218750; 8.59579E-5
20830.078125; 9.31023E-5
20835.937500; 1.02962E-4
20841.796875; 1.20940E-4
20847.656250; 1.11195E-4
20853.515625; 8.72941E-5
20859.375000; 9.99975E-5
20865.234375; 1.02370E-4
20871.093750; 9.38404E-5
20876.953125; 9.59680E-5
20882.812500; 9.90899E-5
20888.671875; 9.87904E-5
20894.531250; 9.65669E-5
20900.390625; 1.08594E-4
20906.250000; 1.13696E-4
20912.109375; 1.08454E-4
20917.968750; 1.11348E-4
20923.828125; 1.06686E-4
20929.687500; 1.07846E-4
20935.546875; 1.00394E-4
20941.406250; 9.91802E-5
20947.265625; 1.10727E-4
20953.125000; 1.08961E-4
20958.984375; 1.09479E-4
20964.843750; 1.22079E-4
20970.703125; 1.11530E-4
20976.562500; 9.85830E-5
20982.421875; 1.01317E-4
20988.281250; 1.20090E-4
20994.140625; 1.12441E-4
21000.000000; 1.09190E-4
21005.859375; 1.10132E-4
21011.718750; 1.11987E-4
21017.578125; 1.11252E-4
21023.437500; 1.14013E-4
21029.296875; 1.06574E-4
21035.156250; 8.93987E-5
21041.015625; 1.01987E-4
21046.875000; 1.14115E-4
21052.734375; 1.07290E-4
21058.593750; 1.06260E-4
21064.453125; 1.02134E-4
21070.312500; 1.03106E-4
21076.171875; 9.33790E-5
21082.031250; 9.25614E-5
21087.890625; 1.03375E-4
21093.750000; 1.14092E-4
21099.609375; 1.06663E-4
21105.468750; 9.20482E-5
21111.328125; 8.37573E-5
21117.187500; 9.42050E-5
21123.046875; 1.13946E-4
21128.906250; 1.09653E-4
21134.765625; 1.15643E-4
21140.625000; 1.04066E-4
21146.484375; 1.06414E-4
21152.343750; 1.11074E-4
21158.203125; 1.08310E-4
21164.062500; 9.43037E-5
21169.921875; 9.48773E-5
21175.781250; 1.00421E-4
21181.640625; 1.09096E-4
21187.500000; 1.10188E-4
21193.359375; 9.31203E-5
21199.218750; 9.88264E-5
21205.078125; 9.99708E-5
21210.937500; 1.00315E-4
21216.796875; 9.95300E-5
21222.656250; 1.00886E-4
21228.515625; 1.01959E-4
21234.375000; 9.81313E-5
21240.234375; 9.31869E-5
21246.093750; 9.77976E-5
21251.953125; 1.07670E-4
21257.812500; 1.01564E-4
21263.671875; 1.02164E-4
21269.531250; 8.63660E-5
21275.390625; 9.74322E-5
21281.250000; 1.04462E-4
21287.109375; 9.76697E-5
21292.968750; 9.42123E-5
21298.828125; 9.72613E-5
21304.687500; 1.00610E-4
21310.546875; 1.08484E-4
21316.406250; 1.06087E-4
21322.265625; 1.19526E-4
21328.125000; 1.38555E-4
21333.984375; 1.14014E-4
21339.843750; 9.99418E-5
21345.703125; 1.02806E-4
21351.562500; 1.08463E-4
21357.421875; 1.13700E-4
21363.281250; 1.00672E-4
21369.140625; 1.03346E-4
21375.000000; 1.06317E-4
21380.859375; 1.00253E-4
21386.718750; 9.14859E-5
21392.578125; 7.74114E-5
21398.437500; 8.31718E-5
21404.296875; 8.80673E-5
21410.156250; 1.05988E-4
21416.015625; 1.18788E-4
21421.875000; 1.11477E-4
21427.734375; 1.03498E-4
21433.593750; 9.97125E-5
21439.453125; 1.09060E-4
21445.312500; 1.15418E-4
21451.171875; 1.12179E-4
21457.031250; 9.38393E-5
21462.890625; 1.12002E-4
21468.750000; 1.04126E-4
21474.609375; 1.11029E-4
21480.468750; 1.25192E-4
21486.328125; 1.09902E-4
21492.187500; 1.08999E-4
21498.046875; 1.06118E-4
21503.906250; 9.73793E-5
21509.765625; 9.77608E-5
21515.625000; 1.03884E-4
21521.484375; 1.14253E-4
21527.343750; 1.10262E-4
21533.203125; 9.75175E-5
21539.062500; 1.11967E-4
21544.921875; 1.13004E-4
21550.781250; 9.72937E-5
21556.640625; 1.02236E-4
21562.500000; 9.90086E-5
21568.359375; 9.80036E-5
21574.218750; 9.08811E-5
21580.078125; 7.94028E-5
21585.937500; 9.01125E-5
21591.796875; 8.93467E-5
21597.656250; 9.87853E-5
21603.515625; 8.97148E-5
21609.375000; 8.32208E-5
21615.234375; 9.86086E-5
21621.093750; 1.09721E-4
21626.953125; 1.06561E-4
21632.812500; 1.01283E-4
21638.671875; 1.09208E-4
21644.531250; 1.03487E-4
21650.390625; 1.09898E-4
21656.250000; 1.03673E-4
21662.109375; 1.03152E-4
21667.968750; 1.15767E-4
21673.828125; 1.23393E-4
21679.687500; 1.11846E-4
21685.546875; 1.05275E-4
21691.406250; 1.06407E-4
21697.265625; 9.75369E-5
21703.125000; 1.05167E-4
21708.984375; 1.11585E-4
21714.843750; 1.08719E-4
21720.703125; 9.54212E-5
21726.562500; 1.05449E-4
21732.421875; 1.01705E-4
21738.281250; 1.02329E-4
21744.140625; 1.16729E-4
21750.000000; 1.15017E-4
21755.859375; 1.03286E-4
21761.718750; 9.85315E-5
21767.578125; 1.04669E-4
21773.437500; 9.95733E-5
21779.296875; 9.80840E-5
21785.156250; 1.24003E-4
21791.015625; 1.21418E-4
21796.875000; 1.03859E-4
21802.734375; 1.09386E-4
21808.593750; 1.25473E-4
21814.453125; 1.17862E-4
21820.312500; 1.03998E-4
21826.171875; 1.02080E-4
21832.031250; 9.74839E-5
21837.890625; 1.05245E-4
21843.750000; 1.10495E-4
21849.609375; 1.05470E-4
21855.468750; 1.09790E-4
21861.328125; 1.13206E-4
21867.187500; 9.03535E-5
21873.046875; 1.08658E-4
21878.906250; 9.71238E-5
21884.765625; 1.02244E-4
21890.625000; 1.04301E-4
21896.484375; 1.10409E-4
21902.343750; 1.13303E-4
21908.203125; 1.07795E-4
21914.062500; 9.27699E-5
21919.921875; 9.39458E-5
21925.781250; 9.69450E-5
21931.640625; 1.08339E-4
21937.500000; 1.06825E-4
21943.359375; 1.08643E-4
21949.218750; 1.05260E-4
21955.078125; 8.95667E-5
21960.937500; 9.26810E-5
21966.796875; 9.68537E-5
21972.656250; 9.94337E-5
21978.515625; 9.61859E-5
21984.375000; 1.08706E-4
21990.234375; 1.11571E-4
21996.093750; 1.06363E-4
22001.953125; 1.01691E-4
22007.812500; 9.80451E-5
22013.671875; 1.04169E-4
22019.531250; 1.12256E-4
22025.390625; 1.07494E-4
22031.250000; 1.00576E-4
22037.109375; 9.85512E-5
22042.968750; 1.00063E-4
22048.828125; 9.69439E-5
22054.687500; 9.55862E-5
22060.546875; 9.24062E-5
22066.406250; 1.03410E-4
22072.265625; 1.07709E-4
22078.125000; 9.97482E-5
22083.984375; 9.12108E-5
22089.843750; 9.31140E-5
22095.703125; 1.01101E-4
22101.562500; 1.00498E-4
22107.421875; 9.92071E-5
22113.281250; 9.47660E-5
22119.140625; 9.12543E-5
22125.000000; 8.90849E-5
22130.859375; 9.31465E-5
22136.718750; 9.65167E-5
22142.578125; 9.40433E-5
22148.437500; 9.54819E-5
22154.296875; 8.89013E-5
22160.156250; 9.12133E-5
22166.015625; 1.00066E-4
22171.875000; 1.07063E-4
22177.734375; 1.06344E-4
22183.593750; 1.12493E-4
22189.453125; 1.08613E-4
22195.312500; 8.96923E-5
22201.171875; 9.17022E-5
22207.031250; 1.04111E-4
22212.890625; 9.15703E-5
22218.750000; 9.57335E-5
22224.609375; 1.08365E-4
22230.468750; 8.42262E-5
22236.328125; 8.54378E-5
22242.187500; 9.22549E-5
22248.046875; 9.65708E-5
22253.906250; 9.46496E-5
22259.765625; 9.81366E-5
22265.625000; 9.23432E-5
22271.484375; 9.78961E-5
22277.343750; 1.04935E-4
22283.203125; 9.80926E-5
22289.062500; 9.43535E-5
22294.921875; 1.07151E-4
22300.781250; 1.02766E-4
22306.640625; 9.81389E-5
22312.500000; 1.04701E-4
22318.359375; 9.87412E-5
22324.218750; 9.33746E-5
22330.078125; 9.74987E-5
22335.937500; 9.38934E-5
22341.796875; 1.04624E-4
22347.656250; 1.16223E-4
22353.515625; 1.17082E-4
22359.375000; 1.04957E-4
22365.234375; 9.22560E-5
22371.093750; 9.30480E-5
22376.953125; 8.85293E-5
22382.812500; 8.87906E-5
22388.671875; 9.91525E-5
22394.531250; 9.53258E-5
22400.390625; 8.98898E-5
22406.250000; 9.75173E-5
22412.109375; 1.01040E-4
22417.968750; 9.12943E-5
22423.828125; 8.25628E-5
22429.687500; 9.35133E-5
22435.546875; 9.30263E-5
22441.406250; 9.79428E-5
22447.265625; 9.69846E-5
22453.125000; 9.62838E-5
22458.984375; 9.66932E-5
22464.843750; 9.59482E-5
22470.703125; 8.78769E-5
22476.562500; 8.71138E-5
22482.421875; 9.45488E-5
22488.281250; 9.59724E-5
22494.140625; 1.03907E-4
22500.000000; 9.82474E-5
22505.859375; 9.43821E-5
22511.718750; 9.54795E-5
22517.578125; 9.24150E-5
22523.437500; 8.91821E-5
22529.296875; 9.64685E-5
22535.156250; 1.13914E-4
22541.015625; 9.37666E-5
22546.875000; 8.47497E-5
22552.734375; 9.17868E-5
22558.593750; 8.67423E-5
22564.453125; 8.63710E-5
22570.312500; 9.18631E-5
22576.171875; 9.18970E-5
22582.031250; 8.79917E-5
22587.890625; 8.93067E-5
22593.750000; 7.82518E-5
22599.609375; 9.47322E-5
22605.468750; 1.03534E-4
22611.328125; 9.79451E-5
22617.187500; 1.02121E-4
22623.046875; 9.20344E-5
22628.906250; 9.39426E-5
22634.765625; 1.04232E-4
22640.625000; 1.04087E-4
22646.484375; 1.03012E-4
22652.343750; 9.31645E-5
22658.203125; 9.62393E-5
22664.062500; 9.79155E-5
22669.921875; 1.01690E-4
22675.781250; 1.03892E-4
22681.640625; 1.02509E-4
22687.500000; 9.54241E-5
22693.359375; 9.23922E-5
22699.218750; 8.17195E-5
22705.078125; 8.08946E-5
22710.937500; 8.65665E-5
22716.796875; 9.30532E-5
22722.656250; 8.30022E-5
22728.515625; 8.91770E-5
22734.375000; 8.33885E-5
22740.234375; 8.73277E-5
22746.093750; 8.58437E-5
22751.953125; 8.76533E-5
22757.812500; 8.44264E-5
22763.671875; 8.21433E-5
22769.531250; 9.60751E-5
22775.390625; 1.01880E-4
22781.250000; 9.04244E-5
22787.109375; 9.38745E-5
22792.968750; 8.90802E-5
22798.828125; 8.80023E-5
22804.687500; 7.65860E-5
22810.546875; 7.70334E-5
22816.406250; 8.79889E-5
22822.265625; 9.08287E-5
22828.125000; 8.46851E-5
22833.984375; 8.65459E-5
22839.843750; 8.78028E-5
22845.703125; 9.94466E-5
22851.562500; 9.07412E-5
22857.421875; 9.30843E-5
22863.281250; 9.36740E-5
22869.140625; 9.21955E-5
22875.000000; 8.93731E-5
22880.859375; 8.31630E-5
22886.718750; 9.30055E-5
22892.578125; 8.93063E-5
22898.437500; 7.74068E-5
22904.296875; 7.80355E-5
22910.156250; 9.01217E-5
22916.015625; 9.88253E-5
22921.875000; 9.13313E-5
22927.734375; 7.81807E-5
22933.593750; 8.15835E-5
22939.453125; 8.33170E-5
22945.312500; 8.24263E-5
22951.171875; 7.76095E-5
22957.031250; 8.17625E-5
22962.890625; 8.26630E-5
22968.750000; 9.21106E-5
22974.609375; 9.20364E-5
22980.468750; 8.19729E-5
22986.328125; 7.34468E-5
22992.187500; 6.26885E-5
22998.046875; 7.24209E-5
23003.906250; 8.29029E-5
23009.765625; 8.57370E-5
23015.625000; 8.22393E-5
23021.484375; 7.90476E-5
23027.343750; 7.94601E-5
23033.203125; 6.58206E-5
23039.062500; 7.32027E-5
23044.921875; 7.43672E-5
23050.781250; 7.09265E-5
23056.640625; 7.33899E-5
23062.500000; 6.91396E-5
23068.359375; 7.34719E-5
23074.218750; 7.92133E-5
23080.078125; 7.58324E-5
23085.937500; 7.49267E-5
23091.796875; 7.60934E-5
23097.656250; 6.76904E-5
23103.515625; 6.41155E-5
23109.375000; 6.39738E-5
23115.234375; 6.28681E-5
23121.093750; 6.83460E-5
23126.953125; 7.20215E-5
23132.812500; 7.28598E-5
23138.671875; 6.68396E-5
23144.531250; 6.64934E-5
23150.390625; 6.83320E-5
23156.250000; 8.23390E-5
23162.109375; 7.39881E-5
23167.968750; 7.40568E-5
23173.828125; 6.83366E-5
23179.687500; 6.22546E-5
23185.546875; 6.58998E-5
23191.406250; 7.26129E-5
23197.265625; 7.16474E-5
23203.125000; 6.93914E-5
23208.984375; 6.78210E-5
23214.843750; 6.87239E-5
23220.703125; 6.90770E-5
23226.562500; 7.04177E-5
23232.421875; 7.12401E-5
23238.281250; 6.87237E-5
23244.140625; 6.34163E-5
23250.000000; 6.39917E-5
23255.859375; 6.62247E-5
23261.718750; 6.54018E-5
23267.578125; 5.79251E-5
23273.437500; 6.09156E-5
23279.296875; 6.37830E-5
23285.156250; 5.73962E-5
23291.015625; 6.17835E-5
23296.875000; 5.94695E-5
23302.734375; 5.69059E-5
23308.593750; 5.74179E-5
23314.453125; 5.45978E-5
23320.312500; 5.86006E-5
23326.171875; 5.88597E-5
23332.031250; 6.03791E-5
23337.890625; 5.99826E-5
23343.750000; 5.46703E-5
23349.609375; 5.44488E-5
23355.468750; 5.71131E-5
23361.328125; 6.35682E-5
23367.187500; 5.80304E-5
23373.046875; 6.18639E-5
23378.906250; 5.98886E-5
23384.765625; 5.84721E-5
23390.625000; 6.00914E-5
23396.484375; 5.79694E-5
23402.343750; 5.84451E-5
23408.203125; 6.21946E-5
23414.062500; 5.84142E-5
23419.921875; 5.84346E-5
23425.781250; 5.59538E-5
23431.640625; 4.91256E-5
23437.500000; 4.68078E-5
23443.359375; 4.83805E-5
23449.218750; 4.37520E-5
23455.078125; 4.95198E-5
23460.937500; 4.88559E-5
23466.796875; 5.46719E-5
23472.656250; 5.53515E-5
23478.515625; 5.57215E-5
23484.375000; 4.91729E-5
23490.234375; 5.15031E-5
23496.093750; 5.26633E-5
23501.953125; 6.20890E-5
23507.812500; 5.47149E-5
23513.671875; 4.81714E-5
23519.531250; 4.81918E-5
23525.390625; 4.97992E-5
23531.250000; 4.95549E-5
23537.109375; 4.30584E-5
23542.968750; 4.17816E-5
23548.828125; 4.48646E-5
23554.687500; 4.89883E-5
23560.546875; 4.58607E-5
23566.406250; 4.94640E-5
23572.265625; 4.82074E-5
23578.125000; 4.28175E-5
23583.984375; 4.23544E-5
23589.843750; 4.36613E-5
23595.703125; 4.72718E-5
23601.562500; 4.53082E-5
23607.421875; 4.39689E-5
23613.281250; 4.45041E-5
23619.140625; 4.42246E-5
23625.000000; 4.41819E-5
23630.859375; 4.77744E-5
23636.718750; 4.47780E-5
23642.578125; 4.82896E-5
23648.437500; 4.55548E-5
23654.296875; 3.81266E-5
23660.156250; 4.43412E-5
23666.015625; 4.69863E-5
23671.875000; 4.14483E-5
23677.734375; 4.09166E-5
23683.593750; 4.14950E-5
23689.453125; 3.98315E-5
23695.312500; 3.69395E-5
23701.171875; 3.95308E-5
23707.031250; 4.12193E-5
23712.890625; 4.45451E-5
23718.750000; 4.37091E-5
23724.609375; 3.93152E-5
23730.468750; 3.78010E-5
23736.328125; 3.68234E-5
23742.187500; 3.51304E-5
23748.046875; 3.84070E-5
23753.906250; 3.82627E-5
23759.765625; 4.40390E-5
23765.625000; 4.92815E-5
23771.484375; 4.40534E-5
23777.343750; 3.77563E-5
23783.203125; 4.00284E-5
23789.062500; 3.88093E-5
23794.921875; 3.74104E-5
23800.781250; 3.80438E-5
23806.640625; 3.90119E-5
23812.500000; 4.26112E-5
23818.359375; 3.69321E-5
23824.218750; 3.70130E-5
23830.078125; 4.03204E-5
23835.937500; 3.94094E-5
23841.796875; 3.77809E-5
23847.656250; 3.62346E-5
23853.515625; 3.42981E-5
23859.375000; 3.37897E-5
23865.234375; 3.55450E-5
23871.093750; 3.81377E-5
23876.953125; 3.82832E-5
23882.812500; 3.75914E-5
23888.671875; 4.30309E-5
23894.531250; 4.59484E-5
23900.390625; 4.06564E-5
23906.250000; 3.19685E-5
23912.109375; 3.66557E-5
23917.968750; 3.56659E-5
23923.828125; 3.63407E-5
23929.687500; 3.56734E-5
23935.546875; 3.42957E-5
23941.406250; 3.45001E-5
23947.265625; 3.51473E-5
23953.125000; 3.69413E-5
23958.984375; 4.14929E-5
23964.843750; 3.73775E-5
23970.703125; 3.26937E-5
23976.562500; 3.44460E-5
23982.421875; 3.69344E-5
23988.281250; 3.49729E-5
23994.140625; 3.10018E-5
