* Measurement data measured by REW V5.31.3
* Source: PCM: default, no input selected, 2, volume: no control
* Format: 8192-point spectrum using Hann window and exponential averaging 0.97 
* Dated: Mar 9, 2025 12:57:44 PM
* REW Settings:
*  C-weighting compensation: Off
*  Target level: 75.0 dB
* Note: OSDEHA ANODE-OUTPUT; 8192-point spectrum using Hann window and exponential averaging 0.97  Input RMS 7.494 V 7.494 VC, 7.494 VA 7.494 V 22 - 22k UNW 882.0 uV >22k Distortion at 1,000.0 Hz, -22.51 dBFS: Gain: 29.34 dB THD: 0.0093 % based on 21 harmonics  [0..22800 Hz] HHD: 0.0048 %  [10 .. 22] N: 0.17 %  [0..22800 Hz] N+D: 4.192 mV A THD+N: 0.17 %  [0..22800 Hz] SNR: 55.5 dB ENOB: 13.2 bits 2nd harmonic 0.0070 % -146 deg 3rd harmonic 0.0014 % 144 deg 4th harmonic 0.0013 % -8 deg 5th harmonic 0.0014 % 7 deg 6th harmonic 0.0014 % 66 deg 7th harmonic 0.0014 % 72 deg 8th harmonic 0.0014 % 66 deg 9th harmonic 0.0014 % -43 deg
* Measurement: OSDEHA A-OUT 7.49
* Smoothing: None
* Frequency Step: 5.859375 Hz
* Start Frequency: 5.859375 Hz
*
* Freq(Hz); V(V)
5.859375; 1.03804E-3
11.718750; 5.02650E-4
17.578125; 2.10495E-4
23.437500; 1.69058E-4
29.296875; 1.75794E-4
35.156250; 1.64806E-4
41.015625; 1.58140E-4
46.875000; 3.97341E-4
52.734375; 4.21575E-4
58.593750; 1.72321E-4
64.453125; 1.26101E-4
70.312500; 1.30047E-4
76.171875; 1.31072E-4
82.031250; 1.35557E-4
87.890625; 1.64605E-4
93.750000; 5.04538E-3
99.609375; 1.11969E-2
105.468750; 6.19167E-3
111.328125; 1.85972E-4
117.187500; 1.27190E-4
123.046875; 1.25428E-4
128.906250; 1.21403E-4
134.765625; 1.17352E-4
140.625000; 1.13446E-4
146.484375; 1.45978E-4
152.343750; 1.61891E-4
158.203125; 1.24471E-4
164.062500; 1.06982E-4
169.921875; 1.08704E-4
175.781250; 1.08979E-4
181.640625; 1.15639E-4
187.500000; 1.30767E-4
193.359375; 6.31820E-4
199.218750; 1.58217E-3
205.078125; 9.65082E-4
210.937500; 1.17709E-4
216.796875; 1.26089E-4
222.656250; 1.05469E-4
228.515625; 1.01965E-4
234.375000; 1.15814E-4
240.234375; 1.22383E-4
246.093750; 1.33674E-4
251.953125; 1.43288E-4
257.812500; 1.23646E-4
263.671875; 1.11876E-4
269.531250; 1.05462E-4
275.390625; 1.09532E-4
281.250000; 1.21809E-4
287.109375; 1.20549E-4
292.968750; 1.32696E-4
298.828125; 2.19343E-4
304.687500; 1.83132E-4
310.546875; 1.26770E-4
316.406250; 1.15024E-4
322.265625; 1.09200E-4
328.125000; 1.11113E-4
333.984375; 1.15121E-4
339.843750; 1.24246E-4
345.703125; 1.33571E-4
351.562500; 1.43003E-4
357.421875; 1.07899E-4
363.281250; 1.14027E-4
369.140625; 1.07817E-4
375.000000; 1.01828E-4
380.859375; 1.05739E-4
386.718750; 9.75532E-5
392.578125; 1.90738E-4
398.437500; 5.03685E-4
404.296875; 3.82477E-4
410.156250; 1.08414E-4
416.015625; 9.99097E-5
421.875000; 1.00058E-4
427.734375; 1.14437E-4
433.593750; 1.16004E-4
439.453125; 1.10893E-4
445.312500; 1.32155E-4
451.171875; 1.50404E-4
457.031250; 1.22270E-4
462.890625; 1.02295E-4
468.750000; 1.12813E-4
474.609375; 1.26630E-4
480.468750; 1.11454E-4
486.328125; 1.05164E-4
492.187500; 1.40575E-4
498.046875; 3.22835E-4
503.906250; 2.63381E-4
509.765625; 1.02939E-4
515.625000; 1.02145E-4
521.484375; 1.08731E-4
527.343750; 1.22450E-4
533.203125; 1.19661E-4
539.062500; 1.10803E-4
544.921875; 1.12064E-4
550.781250; 1.20378E-4
556.640625; 1.12715E-4
562.500000; 1.08258E-4
568.359375; 1.02742E-4
574.218750; 1.15306E-4
580.078125; 1.19599E-4
585.937500; 1.24501E-4
591.796875; 1.20029E-4
597.656250; 1.30384E-4
603.515625; 1.25810E-4
609.375000; 1.15320E-4
615.234375; 1.10790E-4
621.093750; 1.11591E-4
626.953125; 1.03673E-4
632.812500; 9.50125E-5
638.671875; 1.07343E-4
644.531250; 1.11503E-4
650.390625; 1.20455E-4
656.250000; 1.10487E-4
662.109375; 1.08714E-4
667.968750; 1.07236E-4
673.828125; 1.10483E-4
679.687500; 1.18210E-4
685.546875; 1.20893E-4
691.406250; 1.23623E-4
697.265625; 2.17529E-4
703.125000; 1.95339E-4
708.984375; 9.53960E-5
714.843750; 1.08359E-4
720.703125; 1.12288E-4
726.562500; 1.05915E-4
732.421875; 1.02159E-4
738.281250; 1.02670E-4
744.140625; 1.37663E-4
750.000000; 1.49557E-4
755.859375; 1.30894E-4
761.718750; 1.13638E-4
767.578125; 1.09956E-4
773.437500; 1.08021E-4
779.296875; 1.09260E-4
785.156250; 1.12622E-4
791.015625; 1.19242E-4
796.875000; 1.50933E-4
802.734375; 1.71652E-4
808.593750; 1.43043E-4
814.453125; 1.27061E-4
820.312500; 1.35535E-4
826.171875; 1.28137E-4
832.031250; 1.32354E-4
837.890625; 1.45604E-4
843.750000; 1.50075E-4
849.609375; 1.71960E-4
855.468750; 1.82304E-4
861.328125; 1.81036E-4
867.187500; 2.21663E-4
873.046875; 2.19597E-4
878.906250; 2.55660E-4
884.765625; 3.00421E-4
890.625000; 3.28027E-4
896.484375; 4.24268E-4
902.343750; 4.47436E-4
908.203125; 5.56266E-4
914.062500; 6.77557E-4
919.921875; 8.13009E-4
925.781250; 1.03768E-3
931.640625; 1.29666E-3
937.500000; 1.73328E-3
943.359375; 2.30100E-3
949.218750; 3.23836E-3
955.078125; 4.65245E-3
960.937500; 7.13938E-3
966.796875; 1.17177E-2
972.656250; 2.13029E-2
978.515625; 4.52702E-2
984.375000; 1.26769E-1
990.234375; 6.97207E-1
996.093750; 5.57765E0
1001.953125; 6.97206E0
1007.812500; 1.99202E0
1013.671875; 1.99207E-1
1019.531250; 6.12769E-2
1025.390625; 2.68263E-2
1031.250000; 1.41169E-2
1037.109375; 8.34589E-3
1042.968750; 5.33288E-3
1048.828125; 3.60526E-3
1054.687500; 2.60164E-3
1060.546875; 1.88238E-3
1066.406250; 1.43786E-3
1072.265625; 1.10062E-3
1078.125000; 8.95742E-4
1083.984375; 7.25664E-4
1089.843750; 5.75317E-4
1095.703125; 4.84838E-4
1101.562500; 4.17427E-4
1107.421875; 3.63966E-4
1113.281250; 3.06524E-4
1119.140625; 2.70002E-4
1125.000000; 2.28104E-4
1130.859375; 2.18524E-4
1136.718750; 2.01684E-4
1142.578125; 1.79677E-4
1148.437500; 1.68204E-4
1154.296875; 1.59107E-4
1160.156250; 1.48421E-4
1166.015625; 1.38893E-4
1171.875000; 1.39830E-4
1177.734375; 1.34695E-4
1183.593750; 1.09397E-4
1189.453125; 1.25821E-4
1195.312500; 1.22231E-4
1201.171875; 1.21806E-4
1207.031250; 1.32373E-4
1212.890625; 1.23301E-4
1218.750000; 1.13068E-4
1224.609375; 1.10367E-4
1230.468750; 1.18619E-4
1236.328125; 1.11354E-4
1242.187500; 1.05844E-4
1248.046875; 1.13696E-4
1253.906250; 1.26506E-4
1259.765625; 1.04865E-4
1265.625000; 1.03204E-4
1271.484375; 1.04544E-4
1277.343750; 1.09025E-4
1283.203125; 1.07202E-4
1289.062500; 1.13516E-4
1294.921875; 1.18814E-4
1300.781250; 1.13357E-4
1306.640625; 1.18540E-4
1312.500000; 1.16766E-4
1318.359375; 1.08490E-4
1324.218750; 1.20290E-4
1330.078125; 1.13372E-4
1335.937500; 1.03799E-4
1341.796875; 9.87752E-5
1347.656250; 1.01570E-4
1353.515625; 1.12415E-4
1359.375000; 1.11678E-4
1365.234375; 1.09230E-4
1371.093750; 1.06310E-4
1376.953125; 1.14694E-4
1382.812500; 1.04512E-4
1388.671875; 1.02793E-4
1394.531250; 1.04576E-4
1400.390625; 1.11674E-4
1406.250000; 1.13847E-4
1412.109375; 1.00472E-4
1417.968750; 1.08637E-4
1423.828125; 1.05631E-4
1429.687500; 1.05959E-4
1435.546875; 1.04129E-4
1441.406250; 1.04209E-4
1447.265625; 1.02598E-4
1453.125000; 9.28233E-5
1458.984375; 9.57205E-5
1464.843750; 9.73527E-5
1470.703125; 1.00286E-4
1476.562500; 1.12887E-4
1482.421875; 1.13205E-4
1488.281250; 1.02582E-4
1494.140625; 1.14091E-4
1500.000000; 1.09500E-4
1505.859375; 1.06642E-4
1511.718750; 9.84290E-5
1517.578125; 1.06105E-4
1523.437500; 1.08398E-4
1529.296875; 1.08787E-4
1535.156250; 1.11745E-4
1541.015625; 1.10841E-4
1546.875000; 1.02966E-4
1552.734375; 1.13193E-4
1558.593750; 1.12056E-4
1564.453125; 9.97983E-5
1570.312500; 1.02813E-4
1576.171875; 1.16438E-4
1582.031250; 1.17080E-4
1587.890625; 1.19735E-4
1593.750000; 1.16101E-4
1599.609375; 1.06789E-4
1605.468750; 1.00646E-4
1611.328125; 1.07978E-4
1617.187500; 1.14498E-4
1623.046875; 1.13126E-4
1628.906250; 1.03063E-4
1634.765625; 9.84814E-5
1640.625000; 1.06649E-4
1646.484375; 1.02451E-4
1652.343750; 9.91899E-5
1658.203125; 9.78002E-5
1664.062500; 1.08229E-4
1669.921875; 1.07496E-4
1675.781250; 9.89782E-5
1681.640625; 1.03981E-4
1687.500000; 1.11250E-4
1693.359375; 9.90179E-5
1699.218750; 1.00575E-4
1705.078125; 1.16472E-4
1710.937500; 1.14787E-4
1716.796875; 1.00229E-4
1722.656250; 9.49239E-5
1728.515625; 1.00894E-4
1734.375000; 1.00860E-4
1740.234375; 9.72912E-5
1746.093750; 9.84284E-5
1751.953125; 1.07872E-4
1757.812500; 1.02661E-4
1763.671875; 1.03026E-4
1769.531250; 9.94962E-5
1775.390625; 1.00851E-4
1781.250000; 1.09831E-4
1787.109375; 1.04700E-4
1792.968750; 1.08130E-4
1798.828125; 1.14963E-4
1804.687500; 1.05670E-4
1810.546875; 1.12298E-4
1816.406250; 1.06781E-4
1822.265625; 1.05633E-4
1828.125000; 1.04163E-4
1833.984375; 9.10431E-5
1839.843750; 1.01408E-4
1845.703125; 1.15384E-4
1851.562500; 1.11082E-4
1857.421875; 1.04455E-4
1863.281250; 1.06353E-4
1869.140625; 1.07054E-4
1875.000000; 1.11626E-4
1880.859375; 1.14909E-4
1886.718750; 1.12910E-4
1892.578125; 1.08274E-4
1898.437500; 1.10537E-4
1904.296875; 1.14768E-4
1910.156250; 1.10637E-4
1916.015625; 1.13372E-4
1921.875000; 1.11405E-4
1927.734375; 1.14308E-4
1933.593750; 1.13739E-4
1939.453125; 1.16231E-4
1945.312500; 1.16429E-4
1951.171875; 1.03847E-4
1957.031250; 9.65603E-5
1962.890625; 1.04697E-4
1968.750000; 1.09568E-4
1974.609375; 1.11693E-4
1980.468750; 1.13689E-4
1986.328125; 1.17837E-4
1992.187500; 1.62619E-4
1998.046875; 4.55502E-4
2003.906250; 3.69362E-4
2009.765625; 1.12782E-4
2015.625000; 9.31783E-5
2021.484375; 1.01977E-4
2027.343750; 1.08468E-4
2033.203125; 1.09798E-4
2039.062500; 1.11227E-4
2044.921875; 1.07368E-4
2050.781250; 1.06173E-4
2056.640625; 1.03419E-4
2062.500000; 1.07263E-4
2068.359375; 1.03579E-4
2074.218750; 1.01262E-4
2080.078125; 1.05444E-4
2085.937500; 1.04844E-4
2091.796875; 1.07948E-4
2097.656250; 1.02681E-4
2103.515625; 1.15159E-4
2109.375000; 1.23373E-4
2115.234375; 1.08292E-4
2121.093750; 9.89204E-5
2126.953125; 1.11826E-4
2132.812500; 1.13713E-4
2138.671875; 1.10741E-4
2144.531250; 1.06782E-4
2150.390625; 9.60998E-5
2156.250000; 1.01286E-4
2162.109375; 1.05198E-4
2167.968750; 1.02364E-4
2173.828125; 1.03374E-4
2179.687500; 1.10218E-4
2185.546875; 1.17698E-4
2191.406250; 1.14296E-4
2197.265625; 1.11681E-4
2203.125000; 1.08645E-4
2208.984375; 1.04039E-4
2214.843750; 1.05284E-4
2220.703125; 1.07245E-4
2226.562500; 1.04438E-4
2232.421875; 1.08399E-4
2238.281250; 1.11465E-4
2244.140625; 1.12934E-4
2250.000000; 1.10618E-4
2255.859375; 1.07404E-4
2261.718750; 9.92978E-5
2267.578125; 9.70722E-5
2273.437500; 9.84237E-5
2279.296875; 1.07499E-4
2285.156250; 1.15204E-4
2291.015625; 1.04659E-4
2296.875000; 1.17392E-4
2302.734375; 1.16730E-4
2308.593750; 1.02206E-4
2314.453125; 1.01089E-4
2320.312500; 1.08236E-4
2326.171875; 1.10531E-4
2332.031250; 1.08166E-4
2337.890625; 9.94181E-5
2343.750000; 1.08995E-4
2349.609375; 1.25532E-4
2355.468750; 1.17549E-4
2361.328125; 1.03295E-4
2367.187500; 1.04986E-4
2373.046875; 1.07312E-4
2378.906250; 1.11602E-4
2384.765625; 1.12976E-4
2390.625000; 1.02437E-4
2396.484375; 1.03863E-4
2402.343750; 1.06334E-4
2408.203125; 1.05122E-4
2414.062500; 1.15425E-4
2419.921875; 1.07120E-4
2425.781250; 1.04018E-4
2431.640625; 1.02258E-4
2437.500000; 1.08277E-4
2443.359375; 1.05168E-4
2449.218750; 9.47098E-5
2455.078125; 9.76603E-5
2460.937500; 1.00920E-4
2466.796875; 1.00127E-4
2472.656250; 1.06807E-4
2478.515625; 1.07776E-4
2484.375000; 1.04160E-4
2490.234375; 9.63337E-5
2496.093750; 1.01084E-4
2501.953125; 1.03706E-4
2507.812500; 9.68988E-5
2513.671875; 1.00697E-4
2519.531250; 1.04184E-4
2525.390625; 1.14221E-4
2531.250000; 1.07017E-4
2537.109375; 1.10578E-4
2542.968750; 1.02188E-4
2548.828125; 1.05593E-4
2554.687500; 1.01257E-4
2560.546875; 1.02511E-4
2566.406250; 1.09187E-4
2572.265625; 1.00563E-4
2578.125000; 9.58102E-5
2583.984375; 1.01402E-4
2589.843750; 1.14741E-4
2595.703125; 1.25361E-4
2601.562500; 1.19709E-4
2607.421875; 1.14525E-4
2613.281250; 1.08142E-4
2619.140625; 1.02496E-4
2625.000000; 1.07099E-4
2630.859375; 1.00700E-4
2636.718750; 9.88155E-5
2642.578125; 1.03973E-4
2648.437500; 1.11427E-4
2654.296875; 1.11853E-4
2660.156250; 1.05949E-4
2666.015625; 1.06205E-4
2671.875000; 1.04004E-4
2677.734375; 1.05039E-4
2683.593750; 1.07429E-4
2689.453125; 9.67362E-5
2695.312500; 9.51521E-5
2701.171875; 1.08513E-4
2707.031250; 1.06002E-4
2712.890625; 8.99721E-5
2718.750000; 9.97725E-5
2724.609375; 1.09319E-4
2730.468750; 1.04654E-4
2736.328125; 1.02920E-4
2742.187500; 1.07652E-4
2748.046875; 1.02293E-4
2753.906250; 9.99047E-5
2759.765625; 1.12513E-4
2765.625000; 1.16847E-4
2771.484375; 1.09935E-4
2777.343750; 9.87402E-5
2783.203125; 9.73463E-5
2789.062500; 1.02996E-4
2794.921875; 1.09620E-4
2800.781250; 1.20599E-4
2806.640625; 1.16738E-4
2812.500000; 9.65504E-5
2818.359375; 9.22757E-5
2824.218750; 1.04110E-4
2830.078125; 1.05964E-4
2835.937500; 1.09769E-4
2841.796875; 1.12412E-4
2847.656250; 1.05060E-4
2853.515625; 1.02962E-4
2859.375000; 1.04110E-4
2865.234375; 9.23170E-5
2871.093750; 9.39770E-5
2876.953125; 9.66379E-5
2882.812500; 9.28395E-5
2888.671875; 9.33555E-5
2894.531250; 1.04352E-4
2900.390625; 9.60573E-5
2906.250000; 1.04625E-4
2912.109375; 1.13152E-4
2917.968750; 1.03855E-4
2923.828125; 1.08943E-4
2929.687500; 1.13502E-4
2935.546875; 1.00246E-4
2941.406250; 9.85108E-5
2947.265625; 1.09256E-4
2953.125000; 1.00922E-4
2958.984375; 9.21241E-5
2964.843750; 1.02133E-4
2970.703125; 9.88282E-5
2976.562500; 9.69848E-5
2982.421875; 1.05595E-4
2988.281250; 1.06640E-4
2994.140625; 1.05074E-4
3000.000000; 1.16252E-4
3005.859375; 1.02628E-4
3011.718750; 1.01606E-4
3017.578125; 1.08062E-4
3023.437500; 1.06511E-4
3029.296875; 1.02607E-4
3035.156250; 1.05977E-4
3041.015625; 1.04858E-4
3046.875000; 9.87138E-5
3052.734375; 1.11843E-4
3058.593750; 1.11838E-4
3064.453125; 1.13229E-4
3070.312500; 1.01045E-4
3076.171875; 1.00003E-4
3082.031250; 9.49263E-5
3087.890625; 9.18184E-5
3093.750000; 1.04211E-4
3099.609375; 1.16527E-4
3105.468750; 1.16028E-4
3111.328125; 1.12756E-4
3117.187500; 9.72715E-5
3123.046875; 9.77651E-5
3128.906250; 9.78366E-5
3134.765625; 1.02237E-4
3140.625000; 9.54101E-5
3146.484375; 1.13687E-4
3152.343750; 1.16417E-4
3158.203125; 1.06017E-4
3164.062500; 1.11786E-4
3169.921875; 1.03075E-4
3175.781250; 1.02717E-4
3181.640625; 1.04810E-4
3187.500000; 1.01787E-4
3193.359375; 1.21966E-4
3199.218750; 1.08618E-4
3205.078125; 9.49261E-5
3210.937500; 9.83142E-5
3216.796875; 1.06642E-4
3222.656250; 1.07714E-4
3228.515625; 1.11142E-4
3234.375000; 1.08303E-4
3240.234375; 1.03156E-4
3246.093750; 1.03183E-4
3251.953125; 1.07369E-4
3257.812500; 9.80893E-5
3263.671875; 1.10217E-4
3269.531250; 1.07525E-4
3275.390625; 1.00711E-4
3281.250000; 1.06022E-4
3287.109375; 1.01120E-4
3292.968750; 9.90321E-5
3298.828125; 1.07278E-4
3304.687500; 1.04394E-4
3310.546875; 1.07556E-4
3316.406250; 1.07058E-4
3322.265625; 1.08925E-4
3328.125000; 1.05147E-4
3333.984375; 1.01435E-4
3339.843750; 1.02843E-4
3345.703125; 9.90865E-5
3351.562500; 1.00207E-4
3357.421875; 1.09250E-4
3363.281250; 1.03364E-4
3369.140625; 9.89316E-5
3375.000000; 1.04318E-4
3380.859375; 1.13470E-4
3386.718750; 1.12156E-4
3392.578125; 1.07515E-4
3398.437500; 1.17287E-4
3404.296875; 1.05210E-4
3410.156250; 9.61295E-5
3416.015625; 9.68460E-5
3421.875000; 9.17502E-5
3427.734375; 9.46815E-5
3433.593750; 1.01400E-4
3439.453125; 8.93802E-5
3445.312500; 9.89571E-5
3451.171875; 9.97691E-5
3457.031250; 8.99065E-5
3462.890625; 9.75200E-5
3468.750000; 9.48128E-5
3474.609375; 1.02612E-4
3480.468750; 9.51824E-5
3486.328125; 9.77227E-5
3492.187500; 9.76852E-5
3498.046875; 9.52723E-5
3503.906250; 1.07299E-4
3509.765625; 1.08096E-4
3515.625000; 1.06909E-4
3521.484375; 1.06362E-4
3527.343750; 1.07422E-4
3533.203125; 1.10494E-4
3539.062500; 1.06385E-4
3544.921875; 9.89389E-5
3550.781250; 1.02245E-4
3556.640625; 1.11523E-4
3562.500000; 1.06493E-4
3568.359375; 9.91131E-5
3574.218750; 9.98840E-5
3580.078125; 9.99127E-5
3585.937500; 9.56150E-5
3591.796875; 1.08879E-4
3597.656250; 1.08467E-4
3603.515625; 1.05153E-4
3609.375000; 1.03511E-4
3615.234375; 9.00112E-5
3621.093750; 1.02269E-4
3626.953125; 1.12821E-4
3632.812500; 1.11824E-4
3638.671875; 1.09933E-4
3644.531250; 9.31189E-5
3650.390625; 9.74173E-5
3656.250000; 1.00634E-4
3662.109375; 9.66311E-5
3667.968750; 1.06484E-4
3673.828125; 9.89917E-5
3679.687500; 9.00563E-5
3685.546875; 9.42988E-5
3691.406250; 1.07226E-4
3697.265625; 1.04200E-4
3703.125000; 1.09687E-4
3708.984375; 1.08280E-4
3714.843750; 1.08173E-4
3720.703125; 1.08698E-4
3726.562500; 1.09743E-4
3732.421875; 1.14973E-4
3738.281250; 1.07091E-4
3744.140625; 1.09835E-4
3750.000000; 1.05038E-4
3755.859375; 1.02637E-4
3761.718750; 1.10359E-4
3767.578125; 1.11262E-4
3773.437500; 1.01072E-4
3779.296875; 8.90598E-5
3785.156250; 1.11974E-4
3791.015625; 1.15631E-4
3796.875000; 9.93335E-5
3802.734375; 1.04338E-4
3808.593750; 1.07580E-4
3814.453125; 1.01915E-4
3820.312500; 1.13268E-4
3826.171875; 1.09360E-4
3832.031250; 9.77846E-5
3837.890625; 9.83653E-5
3843.750000; 9.92479E-5
3849.609375; 1.07608E-4
3855.468750; 1.06966E-4
3861.328125; 1.03476E-4
3867.187500; 1.00108E-4
3873.046875; 9.75950E-5
3878.906250; 1.06137E-4
3884.765625; 1.04360E-4
3890.625000; 1.06228E-4
3896.484375; 1.12129E-4
3902.343750; 1.07517E-4
3908.203125; 1.03864E-4
3914.062500; 1.11654E-4
3919.921875; 1.02829E-4
3925.781250; 1.00805E-4
3931.640625; 1.08982E-4
3937.500000; 1.19843E-4
3943.359375; 1.02488E-4
3949.218750; 9.99150E-5
3955.078125; 9.91638E-5
3960.937500; 1.12310E-4
3966.796875; 1.09496E-4
3972.656250; 9.16206E-5
3978.515625; 9.10813E-5
3984.375000; 1.00461E-4
3990.234375; 1.02742E-4
3996.093750; 9.59107E-5
4001.953125; 9.41906E-5
4007.812500; 9.94461E-5
4013.671875; 9.76537E-5
4019.531250; 9.37212E-5
4025.390625; 1.12129E-4
4031.250000; 1.06646E-4
4037.109375; 1.10726E-4
4042.968750; 1.03898E-4
4048.828125; 1.11013E-4
4054.687500; 1.05733E-4
4060.546875; 1.03506E-4
4066.406250; 1.10217E-4
4072.265625; 1.11186E-4
4078.125000; 1.07937E-4
4083.984375; 9.69133E-5
4089.843750; 9.35216E-5
4095.703125; 9.46608E-5
4101.562500; 1.06997E-4
4107.421875; 1.07783E-4
4113.281250; 1.06268E-4
4119.140625; 1.01216E-4
4125.000000; 1.11729E-4
4130.859375; 1.10967E-4
4136.718750; 1.03529E-4
4142.578125; 9.92876E-5
4148.437500; 9.56129E-5
4154.296875; 9.39539E-5
4160.156250; 8.80380E-5
4166.015625; 9.80775E-5
4171.875000; 9.63402E-5
4177.734375; 1.03235E-4
4183.593750; 1.00341E-4
4189.453125; 1.02626E-4
4195.312500; 9.51634E-5
4201.171875; 1.12889E-4
4207.031250; 1.11957E-4
4212.890625; 1.01476E-4
4218.750000; 9.76971E-5
4224.609375; 9.76284E-5
4230.468750; 9.98539E-5
4236.328125; 9.04217E-5
4242.187500; 1.00480E-4
4248.046875; 1.02120E-4
4253.906250; 1.00810E-4
4259.765625; 1.04037E-4
4265.625000; 1.02714E-4
4271.484375; 1.06335E-4
4277.343750; 9.48329E-5
4283.203125; 9.33101E-5
4289.062500; 1.02159E-4
4294.921875; 9.51977E-5
4300.781250; 9.33101E-5
4306.640625; 9.67591E-5
4312.500000; 9.19002E-5
4318.359375; 9.73418E-5
4324.218750; 9.40261E-5
4330.078125; 9.97348E-5
4335.937500; 1.07533E-4
4341.796875; 1.02596E-4
4347.656250; 1.11951E-4
4353.515625; 1.20467E-4
4359.375000; 1.10398E-4
4365.234375; 9.83897E-5
4371.093750; 1.08366E-4
4376.953125; 1.07998E-4
4382.812500; 1.14776E-4
4388.671875; 1.16254E-4
4394.531250; 1.04830E-4
4400.390625; 1.03642E-4
4406.250000; 1.07007E-4
4412.109375; 9.61493E-5
4417.968750; 9.38400E-5
4423.828125; 9.65606E-5
4429.687500; 1.02967E-4
4435.546875; 1.07968E-4
4441.406250; 1.11756E-4
4447.265625; 1.01372E-4
4453.125000; 1.02070E-4
4458.984375; 1.02676E-4
4464.843750; 1.08504E-4
4470.703125; 1.02864E-4
4476.562500; 1.03861E-4
4482.421875; 1.01829E-4
4488.281250; 9.52587E-5
4494.140625; 1.02045E-4
4500.000000; 9.52753E-5
4505.859375; 1.02646E-4
4511.718750; 1.04946E-4
4517.578125; 1.10766E-4
4523.437500; 1.10727E-4
4529.296875; 1.06450E-4
4535.156250; 1.10171E-4
4541.015625; 1.20256E-4
4546.875000; 1.19641E-4
4552.734375; 1.11397E-4
4558.593750; 1.11324E-4
4564.453125; 1.11333E-4
4570.312500; 1.00231E-4
4576.171875; 1.03649E-4
4582.031250; 1.14902E-4
4587.890625; 1.04385E-4
4593.750000; 1.09919E-4
4599.609375; 9.81177E-5
4605.468750; 9.98404E-5
4611.328125; 1.07016E-4
4617.187500; 1.04301E-4
4623.046875; 9.87093E-5
4628.906250; 9.99211E-5
4634.765625; 1.04604E-4
4640.625000; 1.01834E-4
4646.484375; 1.05736E-4
4652.343750; 1.08938E-4
4658.203125; 1.03767E-4
4664.062500; 1.11031E-4
4669.921875; 1.10579E-4
4675.781250; 1.06566E-4
4681.640625; 1.05929E-4
4687.500000; 9.59047E-5
4693.359375; 9.74928E-5
4699.218750; 1.01353E-4
4705.078125; 1.02129E-4
4710.937500; 1.05031E-4
4716.796875; 1.06891E-4
4722.656250; 1.03763E-4
4728.515625; 1.03957E-4
4734.375000; 1.01413E-4
4740.234375; 9.80384E-5
4746.093750; 1.08441E-4
4751.953125; 1.14550E-4
4757.812500; 1.11961E-4
4763.671875; 1.01291E-4
4769.531250; 1.00441E-4
4775.390625; 1.11302E-4
4781.250000; 1.04523E-4
4787.109375; 9.04345E-5
4792.968750; 9.76301E-5
4798.828125; 1.07548E-4
4804.687500; 9.33837E-5
4810.546875; 1.01847E-4
4816.406250; 1.17029E-4
4822.265625; 1.21388E-4
4828.125000; 1.12471E-4
4833.984375; 1.01847E-4
4839.843750; 1.01924E-4
4845.703125; 1.08221E-4
4851.562500; 1.10160E-4
4857.421875; 1.06177E-4
4863.281250; 1.04819E-4
4869.140625; 9.94924E-5
4875.000000; 9.48168E-5
4880.859375; 1.14627E-4
4886.718750; 1.13060E-4
4892.578125; 1.02993E-4
4898.437500; 1.06162E-4
4904.296875; 1.03284E-4
4910.156250; 1.04525E-4
4916.015625; 1.01359E-4
4921.875000; 1.03380E-4
4927.734375; 1.00834E-4
4933.593750; 1.03540E-4
4939.453125; 1.04176E-4
4945.312500; 1.07494E-4
4951.171875; 1.00564E-4
4957.031250; 1.06602E-4
4962.890625; 1.15693E-4
4968.750000; 1.08471E-4
4974.609375; 1.01015E-4
4980.468750; 1.03782E-4
4986.328125; 1.10656E-4
4992.187500; 1.04371E-4
4998.046875; 1.05097E-4
5003.906250; 1.10203E-4
5009.765625; 1.06667E-4
5015.625000; 1.06888E-4
5021.484375; 1.07501E-4
5027.343750; 1.06184E-4
5033.203125; 1.02688E-4
5039.062500; 1.02354E-4
5044.921875; 1.05147E-4
5050.781250; 1.02092E-4
5056.640625; 1.02543E-4
5062.500000; 9.34973E-5
5068.359375; 9.67124E-5
5074.218750; 1.08002E-4
5080.078125; 1.05948E-4
5085.937500; 1.02281E-4
5091.796875; 1.01708E-4
5097.656250; 9.66706E-5
5103.515625; 1.00611E-4
5109.375000; 1.05119E-4
5115.234375; 1.06798E-4
5121.093750; 1.09161E-4
5126.953125; 1.02859E-4
5132.812500; 9.47070E-5
5138.671875; 1.01633E-4
5144.531250; 1.04776E-4
5150.390625; 1.05575E-4
5156.250000; 1.13274E-4
5162.109375; 1.00326E-4
5167.968750; 9.16762E-5
5173.828125; 9.22819E-5
5179.687500; 1.00160E-4
5185.546875; 1.03611E-4
5191.406250; 1.11899E-4
5197.265625; 1.10875E-4
5203.125000; 1.01031E-4
5208.984375; 1.04624E-4
5214.843750; 1.07842E-4
5220.703125; 1.07520E-4
5226.562500; 1.08908E-4
5232.421875; 1.17897E-4
5238.281250; 1.09445E-4
5244.140625; 1.08790E-4
5250.000000; 9.82880E-5
5255.859375; 9.61368E-5
5261.718750; 1.01806E-4
5267.578125; 1.00522E-4
5273.437500; 9.21872E-5
5279.296875; 9.59128E-5
5285.156250; 9.72604E-5
5291.015625; 8.70790E-5
5296.875000; 9.80391E-5
5302.734375; 1.04159E-4
5308.593750; 1.09946E-4
5314.453125; 1.02884E-4
5320.312500; 1.07945E-4
5326.171875; 1.04737E-4
5332.031250; 1.00117E-4
5337.890625; 1.00589E-4
5343.750000; 1.04997E-4
5349.609375; 1.13223E-4
5355.468750; 1.12080E-4
5361.328125; 1.02845E-4
5367.187500; 9.38924E-5
5373.046875; 1.05419E-4
5378.906250; 1.12007E-4
5384.765625; 1.03639E-4
5390.625000; 1.01675E-4
5396.484375; 1.08978E-4
5402.343750; 1.14228E-4
5408.203125; 1.12145E-4
5414.062500; 1.01825E-4
5419.921875; 9.92180E-5
5425.781250; 9.56482E-5
5431.640625; 9.82548E-5
5437.500000; 9.74154E-5
5443.359375; 1.10973E-4
5449.218750; 1.07445E-4
5455.078125; 1.00125E-4
5460.937500; 1.04441E-4
5466.796875; 1.07476E-4
5472.656250; 1.01849E-4
5478.515625; 1.06148E-4
5484.375000; 9.79213E-5
5490.234375; 1.00237E-4
5496.093750; 1.13308E-4
5501.953125; 1.05685E-4
5507.812500; 9.04648E-5
5513.671875; 9.18184E-5
5519.531250; 9.72304E-5
5525.390625; 9.92337E-5
5531.250000; 1.03107E-4
5537.109375; 9.66109E-5
5542.968750; 9.76992E-5
5548.828125; 9.47053E-5
5554.687500; 9.71913E-5
5560.546875; 1.00363E-4
5566.406250; 9.71607E-5
5572.265625; 1.09022E-4
5578.125000; 1.22427E-4
5583.984375; 1.07493E-4
5589.843750; 1.04904E-4
5595.703125; 1.07001E-4
5601.562500; 1.02170E-4
5607.421875; 1.00830E-4
5613.281250; 9.49725E-5
5619.140625; 1.00004E-4
5625.000000; 9.84156E-5
5630.859375; 9.44437E-5
5636.718750; 9.81551E-5
5642.578125; 1.08598E-4
5648.437500; 1.07285E-4
5654.296875; 1.03146E-4
5660.156250; 9.54879E-5
5666.015625; 9.97241E-5
5671.875000; 9.64384E-5
5677.734375; 1.00029E-4
5683.593750; 1.09851E-4
5689.453125; 1.01714E-4
5695.312500; 1.07567E-4
5701.171875; 1.17432E-4
5707.031250; 1.00201E-4
5712.890625; 1.00275E-4
5718.750000; 1.04473E-4
5724.609375; 1.01582E-4
5730.468750; 1.05929E-4
5736.328125; 9.87064E-5
5742.187500; 1.11288E-4
5748.046875; 1.08097E-4
5753.906250; 9.94150E-5
5759.765625; 9.97453E-5
5765.625000; 1.02126E-4
5771.484375; 1.08000E-4
5777.343750; 1.09214E-4
5783.203125; 1.07794E-4
5789.062500; 1.04849E-4
5794.921875; 1.00316E-4
5800.781250; 1.00982E-4
5806.640625; 1.04402E-4
5812.500000; 1.11227E-4
5818.359375; 1.07018E-4
5824.218750; 1.03259E-4
5830.078125; 9.90073E-5
5835.937500; 9.72819E-5
5841.796875; 1.10139E-4
5847.656250; 1.10977E-4
5853.515625; 1.00475E-4
5859.375000; 9.55236E-5
5865.234375; 9.44214E-5
5871.093750; 1.11383E-4
5876.953125; 1.20171E-4
5882.812500; 1.00087E-4
5888.671875; 1.06246E-4
5894.531250; 9.74470E-5
5900.390625; 9.81249E-5
5906.250000; 9.77762E-5
5912.109375; 1.05379E-4
5917.968750; 1.10105E-4
5923.828125; 1.03480E-4
5929.687500; 1.05935E-4
5935.546875; 1.00731E-4
5941.406250; 9.90295E-5
5947.265625; 1.05015E-4
5953.125000; 1.05701E-4
5958.984375; 1.08713E-4
5964.843750; 1.04374E-4
5970.703125; 1.13433E-4
5976.562500; 1.13411E-4
5982.421875; 1.08968E-4
5988.281250; 1.01540E-4
5994.140625; 1.01289E-4
6000.000000; 1.00173E-4
6005.859375; 1.00708E-4
6011.718750; 1.07630E-4
6017.578125; 1.03431E-4
6023.437500; 9.53198E-5
6029.296875; 1.05861E-4
6035.156250; 1.04709E-4
6041.015625; 1.06647E-4
6046.875000; 1.07314E-4
6052.734375; 1.00255E-4
6058.593750; 9.88085E-5
6064.453125; 9.82642E-5
6070.312500; 9.91612E-5
6076.171875; 9.62417E-5
6082.031250; 9.41256E-5
6087.890625; 1.04270E-4
6093.750000; 1.11725E-4
6099.609375; 1.08530E-4
6105.468750; 1.10087E-4
6111.328125; 1.09153E-4
6117.187500; 1.09497E-4
6123.046875; 1.10587E-4
6128.906250; 9.99840E-5
6134.765625; 8.97479E-5
6140.625000; 1.02148E-4
6146.484375; 1.05437E-4
6152.343750; 1.01988E-4
6158.203125; 1.02384E-4
6164.062500; 9.96106E-5
6169.921875; 1.10225E-4
6175.781250; 1.14838E-4
6181.640625; 1.15267E-4
6187.500000; 1.15027E-4
6193.359375; 1.00649E-4
6199.218750; 1.05523E-4
6205.078125; 9.93124E-5
6210.937500; 1.07073E-4
6216.796875; 1.06299E-4
6222.656250; 1.08539E-4
6228.515625; 1.05753E-4
6234.375000; 1.08536E-4
6240.234375; 1.07094E-4
6246.093750; 1.01196E-4
6251.953125; 1.19393E-4
6257.812500; 1.15312E-4
6263.671875; 9.87185E-5
6269.531250; 9.54227E-5
6275.390625; 9.49640E-5
6281.250000; 1.00741E-4
6287.109375; 1.02022E-4
6292.968750; 1.01939E-4
6298.828125; 1.01363E-4
6304.687500; 9.88040E-5
6310.546875; 1.03969E-4
6316.406250; 1.09382E-4
6322.265625; 9.81660E-5
6328.125000; 9.85265E-5
6333.984375; 1.03438E-4
6339.843750; 1.06966E-4
6345.703125; 1.12579E-4
6351.562500; 1.10501E-4
6357.421875; 1.03285E-4
6363.281250; 9.42970E-5
6369.140625; 1.06952E-4
6375.000000; 1.01879E-4
6380.859375; 9.03982E-5
6386.718750; 9.95294E-5
6392.578125; 1.07558E-4
6398.437500; 1.04218E-4
6404.296875; 1.03401E-4
6410.156250; 9.69522E-5
6416.015625; 1.05140E-4
6421.875000; 1.04505E-4
6427.734375; 1.00210E-4
6433.593750; 9.77945E-5
6439.453125; 1.04086E-4
6445.312500; 1.01273E-4
6451.171875; 1.00657E-4
6457.031250; 1.05393E-4
6462.890625; 1.05417E-4
6468.750000; 9.75827E-5
6474.609375; 9.85797E-5
6480.468750; 9.41792E-5
6486.328125; 1.02327E-4
6492.187500; 9.77256E-5
6498.046875; 9.49677E-5
6503.906250; 9.41604E-5
6509.765625; 1.04888E-4
6515.625000; 1.06116E-4
6521.484375; 9.85518E-5
6527.343750; 1.05090E-4
6533.203125; 1.19706E-4
6539.062500; 1.23163E-4
6544.921875; 1.12016E-4
6550.781250; 1.01393E-4
6556.640625; 9.38165E-5
6562.500000; 9.84525E-5
6568.359375; 9.66054E-5
6574.218750; 9.97747E-5
6580.078125; 1.05450E-4
6585.937500; 1.04940E-4
6591.796875; 9.67859E-5
6597.656250; 1.04298E-4
6603.515625; 1.09077E-4
6609.375000; 1.15402E-4
6615.234375; 1.08298E-4
6621.093750; 1.16428E-4
6626.953125; 1.10857E-4
6632.812500; 1.01468E-4
6638.671875; 1.05240E-4
6644.531250; 1.08952E-4
6650.390625; 1.07125E-4
6656.250000; 1.06554E-4
6662.109375; 1.12613E-4
6667.968750; 1.08360E-4
6673.828125; 9.19331E-5
6679.687500; 1.00113E-4
6685.546875; 1.06357E-4
6691.406250; 1.08763E-4
6697.265625; 9.75624E-5
6703.125000; 1.04502E-4
6708.984375; 1.12174E-4
6714.843750; 1.07950E-4
6720.703125; 1.16482E-4
6726.562500; 1.13680E-4
6732.421875; 9.74140E-5
6738.281250; 1.03756E-4
6744.140625; 9.56453E-5
6750.000000; 9.42305E-5
6755.859375; 9.80007E-5
6761.718750; 1.11361E-4
6767.578125; 1.07976E-4
6773.437500; 1.02555E-4
6779.296875; 1.12384E-4
6785.156250; 1.08533E-4
6791.015625; 1.17626E-4
6796.875000; 1.07067E-4
6802.734375; 9.89147E-5
6808.593750; 9.96621E-5
6814.453125; 1.09777E-4
6820.312500; 1.08900E-4
6826.171875; 1.01372E-4
6832.031250; 1.04973E-4
6837.890625; 1.06329E-4
6843.750000; 1.04736E-4
6849.609375; 1.10055E-4
6855.468750; 1.15120E-4
6861.328125; 1.05182E-4
6867.187500; 1.05074E-4
6873.046875; 1.07683E-4
6878.906250; 1.14975E-4
6884.765625; 1.04705E-4
6890.625000; 1.15327E-4
6896.484375; 1.16991E-4
6902.343750; 1.15260E-4
6908.203125; 1.18561E-4
6914.062500; 1.09574E-4
6919.921875; 1.07086E-4
6925.781250; 1.06995E-4
6931.640625; 1.01829E-4
6937.500000; 1.01881E-4
6943.359375; 1.09548E-4
6949.218750; 9.70772E-5
6955.078125; 8.91647E-5
6960.937500; 9.82555E-5
6966.796875; 1.02841E-4
6972.656250; 9.64027E-5
6978.515625; 1.02861E-4
6984.375000; 1.08669E-4
6990.234375; 9.94891E-5
6996.093750; 1.08843E-4
7001.953125; 1.04152E-4
7007.812500; 1.03816E-4
7013.671875; 1.02460E-4
7019.531250; 1.06953E-4
7025.390625; 1.03752E-4
7031.250000; 9.29435E-5
7037.109375; 8.86071E-5
7042.968750; 9.12982E-5
7048.828125; 1.03765E-4
7054.687500; 1.09025E-4
7060.546875; 9.77435E-5
7066.406250; 1.01759E-4
7072.265625; 1.15081E-4
7078.125000; 1.20792E-4
7083.984375; 1.01873E-4
7089.843750; 1.04610E-4
7095.703125; 1.14189E-4
7101.562500; 1.07571E-4
7107.421875; 1.08845E-4
7113.281250; 9.60320E-5
7119.140625; 9.63985E-5
7125.000000; 1.03414E-4
7130.859375; 9.82534E-5
7136.718750; 1.05011E-4
7142.578125; 1.05886E-4
7148.437500; 1.13246E-4
7154.296875; 1.10438E-4
7160.156250; 1.03196E-4
7166.015625; 1.02743E-4
7171.875000; 8.82120E-5
7177.734375; 1.01116E-4
7183.593750; 1.10392E-4
7189.453125; 1.10454E-4
7195.312500; 1.08712E-4
7201.171875; 1.00708E-4
7207.031250; 1.00627E-4
7212.890625; 1.10422E-4
7218.750000; 1.17946E-4
7224.609375; 1.01913E-4
7230.468750; 9.62245E-5
7236.328125; 1.00339E-4
7242.187500; 9.99407E-5
7248.046875; 9.40015E-5
7253.906250; 1.01103E-4
7259.765625; 1.04514E-4
7265.625000; 1.07682E-4
7271.484375; 1.09701E-4
7277.343750; 1.13238E-4
7283.203125; 9.91046E-5
7289.062500; 1.06453E-4
7294.921875; 1.06181E-4
7300.781250; 9.90104E-5
7306.640625; 9.66302E-5
7312.500000; 1.05024E-4
7318.359375; 1.06325E-4
7324.218750; 1.02066E-4
7330.078125; 1.02153E-4
7335.937500; 9.57041E-5
7341.796875; 9.61218E-5
7347.656250; 1.03841E-4
7353.515625; 1.01338E-4
7359.375000; 9.79808E-5
7365.234375; 9.61675E-5
7371.093750; 1.06813E-4
7376.953125; 1.06299E-4
7382.812500; 1.08165E-4
7388.671875; 1.00693E-4
7394.531250; 1.13284E-4
7400.390625; 1.14454E-4
7406.250000; 1.06149E-4
7412.109375; 1.06685E-4
7417.968750; 1.05431E-4
7423.828125; 1.00072E-4
7429.687500; 1.01875E-4
7435.546875; 9.92305E-5
7441.406250; 1.02955E-4
7447.265625; 1.08208E-4
7453.125000; 1.02805E-4
7458.984375; 1.15762E-4
7464.843750; 1.05057E-4
7470.703125; 1.08380E-4
7476.562500; 1.11766E-4
7482.421875; 9.65464E-5
7488.281250; 9.49243E-5
7494.140625; 9.53066E-5
7500.000000; 9.97077E-5
7505.859375; 1.03735E-4
7511.718750; 9.61060E-5
7517.578125; 9.49401E-5
7523.437500; 1.12026E-4
7529.296875; 1.11409E-4
7535.156250; 1.07964E-4
7541.015625; 1.03663E-4
7546.875000; 1.06164E-4
7552.734375; 9.77822E-5
7558.593750; 1.07298E-4
7564.453125; 1.09258E-4
7570.312500; 1.05902E-4
7576.171875; 1.04772E-4
7582.031250; 9.44789E-5
7587.890625; 1.02144E-4
7593.750000; 1.12929E-4
7599.609375; 9.41985E-5
7605.468750; 9.91112E-5
7611.328125; 1.09509E-4
7617.187500; 1.05721E-4
7623.046875; 1.10732E-4
7628.906250; 1.03875E-4
7634.765625; 1.07992E-4
7640.625000; 1.14826E-4
7646.484375; 1.18689E-4
7652.343750; 1.10862E-4
7658.203125; 1.03068E-4
7664.062500; 9.14303E-5
7669.921875; 9.72630E-5
7675.781250; 1.03847E-4
7681.640625; 1.05581E-4
7687.500000; 1.10052E-4
7693.359375; 1.03472E-4
7699.218750; 1.02918E-4
7705.078125; 9.65438E-5
7710.937500; 9.22155E-5
7716.796875; 1.03558E-4
7722.656250; 1.10402E-4
7728.515625; 1.16796E-4
7734.375000; 1.08263E-4
7740.234375; 9.34789E-5
7746.093750; 1.00691E-4
7751.953125; 1.19420E-4
7757.812500; 1.11754E-4
7763.671875; 1.09379E-4
7769.531250; 1.05485E-4
7775.390625; 1.07335E-4
7781.250000; 1.02872E-4
7787.109375; 1.00834E-4
7792.968750; 1.02189E-4
7798.828125; 1.11256E-4
7804.687500; 1.19133E-4
7810.546875; 9.97031E-5
7816.406250; 1.02749E-4
7822.265625; 1.04815E-4
7828.125000; 1.09685E-4
7833.984375; 1.04967E-4
7839.843750; 1.03954E-4
7845.703125; 1.12896E-4
7851.562500; 1.13259E-4
7857.421875; 9.76796E-5
7863.281250; 1.09864E-4
7869.140625; 9.81185E-5
7875.000000; 9.06820E-5
7880.859375; 1.01739E-4
7886.718750; 1.14322E-4
7892.578125; 9.94294E-5
7898.437500; 1.14826E-4
7904.296875; 1.10987E-4
7910.156250; 9.67624E-5
7916.015625; 9.94482E-5
7921.875000; 1.07841E-4
7927.734375; 1.06300E-4
7933.593750; 1.06570E-4
7939.453125; 1.03461E-4
7945.312500; 1.04005E-4
7951.171875; 1.07100E-4
7957.031250; 1.01576E-4
7962.890625; 1.00292E-4
7968.750000; 1.00478E-4
7974.609375; 1.02883E-4
7980.468750; 1.00269E-4
7986.328125; 1.00449E-4
7992.187500; 9.82950E-5
7998.046875; 9.91836E-5
8003.906250; 1.07779E-4
8009.765625; 1.13771E-4
8015.625000; 1.14382E-4
8021.484375; 1.10501E-4
8027.343750; 1.01692E-4
8033.203125; 9.85497E-5
8039.062500; 1.05184E-4
8044.921875; 1.14720E-4
8050.781250; 1.18569E-4
8056.640625; 1.10562E-4
8062.500000; 1.09909E-4
8068.359375; 1.00116E-4
8074.218750; 9.96840E-5
8080.078125; 9.82935E-5
8085.937500; 9.52346E-5
8091.796875; 1.01711E-4
8097.656250; 1.09811E-4
8103.515625; 1.12422E-4
8109.375000; 1.00414E-4
8115.234375; 1.02470E-4
8121.093750; 1.09776E-4
8126.953125; 1.06312E-4
8132.812500; 1.01617E-4
8138.671875; 1.13743E-4
8144.531250; 1.09640E-4
8150.390625; 1.05603E-4
8156.250000; 1.02598E-4
8162.109375; 9.71398E-5
8167.968750; 1.06352E-4
8173.828125; 1.14273E-4
8179.687500; 1.04366E-4
8185.546875; 9.71039E-5
8191.406250; 9.71946E-5
8197.265625; 9.33608E-5
8203.125000; 8.95074E-5
8208.984375; 9.45646E-5
8214.843750; 1.01980E-4
8220.703125; 1.01289E-4
8226.562500; 1.03931E-4
8232.421875; 1.01881E-4
8238.281250; 1.00319E-4
8244.140625; 9.03926E-5
8250.000000; 9.37980E-5
8255.859375; 9.93074E-5
8261.718750; 1.05650E-4
8267.578125; 1.16511E-4
8273.437500; 1.07745E-4
8279.296875; 1.03819E-4
8285.156250; 1.08706E-4
8291.015625; 1.03183E-4
8296.875000; 1.09670E-4
8302.734375; 1.15368E-4
8308.593750; 1.18713E-4
8314.453125; 1.12195E-4
8320.312500; 9.84260E-5
8326.171875; 1.12132E-4
8332.031250; 1.07424E-4
8337.890625; 1.10694E-4
8343.750000; 1.09470E-4
8349.609375; 1.07170E-4
8355.468750; 9.56885E-5
8361.328125; 9.86221E-5
8367.187500; 1.06796E-4
8373.046875; 1.08999E-4
8378.906250; 9.98048E-5
8384.765625; 1.03506E-4
8390.625000; 1.01517E-4
8396.484375; 1.06218E-4
8402.343750; 1.06031E-4
8408.203125; 1.04509E-4
8414.062500; 1.18076E-4
8419.921875; 1.18277E-4
8425.781250; 1.19418E-4
8431.640625; 1.16877E-4
8437.500000; 1.06762E-4
8443.359375; 1.05067E-4
8449.218750; 1.01172E-4
8455.078125; 1.06184E-4
8460.937500; 1.03571E-4
8466.796875; 9.74657E-5
8472.656250; 9.79429E-5
8478.515625; 9.94489E-5
8484.375000; 1.09061E-4
8490.234375; 1.09344E-4
8496.093750; 1.18405E-4
8501.953125; 1.07586E-4
8507.812500; 1.05965E-4
8513.671875; 1.09249E-4
8519.531250; 1.05162E-4
8525.390625; 1.03263E-4
8531.250000; 9.85145E-5
8537.109375; 8.88874E-5
8542.968750; 1.01774E-4
8548.828125; 9.68326E-5
8554.687500; 9.96730E-5
8560.546875; 1.12392E-4
8566.406250; 1.07179E-4
8572.265625; 1.09375E-4
8578.125000; 1.11354E-4
8583.984375; 1.06362E-4
8589.843750; 1.02884E-4
8595.703125; 9.75949E-5
8601.562500; 1.05000E-4
8607.421875; 9.92575E-5
8613.281250; 9.55231E-5
8619.140625; 9.95581E-5
8625.000000; 9.71300E-5
8630.859375; 9.70305E-5
8636.718750; 1.04658E-4
8642.578125; 1.10638E-4
8648.437500; 1.09329E-4
8654.296875; 1.13885E-4
8660.156250; 1.03476E-4
8666.015625; 1.11615E-4
8671.875000; 1.10506E-4
8677.734375; 9.84011E-5
8683.593750; 1.03974E-4
8689.453125; 9.98632E-5
8695.312500; 9.95837E-5
8701.171875; 1.09600E-4
8707.031250; 1.05999E-4
8712.890625; 9.80685E-5
8718.750000; 9.39965E-5
8724.609375; 9.77688E-5
8730.468750; 1.01990E-4
8736.328125; 9.88032E-5
8742.187500; 8.57013E-5
8748.046875; 9.72774E-5
8753.906250; 1.04178E-4
8759.765625; 9.78829E-5
8765.625000; 1.03163E-4
8771.484375; 9.82181E-5
8777.343750; 1.01149E-4
8783.203125; 1.04996E-4
8789.062500; 1.08266E-4
8794.921875; 9.98022E-5
8800.781250; 1.06855E-4
8806.640625; 1.09052E-4
8812.500000; 1.04708E-4
8818.359375; 1.00552E-4
8824.218750; 1.02303E-4
8830.078125; 1.01583E-4
8835.937500; 1.01729E-4
8841.796875; 1.10124E-4
8847.656250; 1.03138E-4
8853.515625; 9.93894E-5
8859.375000; 1.00625E-4
8865.234375; 1.03121E-4
8871.093750; 1.06369E-4
8876.953125; 9.87214E-5
8882.812500; 9.86465E-5
8888.671875; 9.97216E-5
8894.531250; 9.87973E-5
8900.390625; 1.06778E-4
8906.250000; 9.32027E-5
8912.109375; 9.06304E-5
8917.968750; 1.03882E-4
8923.828125; 1.03010E-4
8929.687500; 9.34376E-5
8935.546875; 1.02092E-4
8941.406250; 1.00873E-4
8947.265625; 1.01510E-4
8953.125000; 1.01110E-4
8958.984375; 9.50001E-5
8964.843750; 9.93942E-5
8970.703125; 9.53759E-5
8976.562500; 1.05819E-4
8982.421875; 1.09278E-4
8988.281250; 9.73608E-5
8994.140625; 9.57503E-5
9000.000000; 9.73792E-5
9005.859375; 1.11699E-4
9011.718750; 1.11585E-4
9017.578125; 9.64959E-5
9023.437500; 9.55334E-5
9029.296875; 1.07419E-4
9035.156250; 1.21600E-4
9041.015625; 1.19826E-4
9046.875000; 1.01812E-4
9052.734375; 1.02055E-4
9058.593750; 1.02521E-4
9064.453125; 1.03405E-4
9070.312500; 1.03902E-4
9076.171875; 1.02946E-4
9082.031250; 9.47889E-5
9087.890625; 1.02049E-4
9093.750000; 9.87993E-5
9099.609375; 8.98678E-5
9105.468750; 9.42093E-5
9111.328125; 1.04147E-4
9117.187500; 1.14360E-4
9123.046875; 1.13204E-4
9128.906250; 9.92319E-5
9134.765625; 9.44811E-5
9140.625000; 9.02706E-5
9146.484375; 9.17292E-5
9152.343750; 1.00698E-4
9158.203125; 1.07824E-4
9164.062500; 1.10459E-4
9169.921875; 1.10492E-4
9175.781250; 1.13239E-4
9181.640625; 1.01529E-4
9187.500000; 9.40908E-5
9193.359375; 9.49453E-5
9199.218750; 1.05996E-4
9205.078125; 1.10399E-4
9210.937500; 9.23785E-5
9216.796875; 1.02863E-4
9222.656250; 1.13192E-4
9228.515625; 1.07325E-4
9234.375000; 1.05682E-4
9240.234375; 1.06405E-4
9246.093750; 9.26937E-5
9251.953125; 8.67873E-5
9257.812500; 9.66483E-5
9263.671875; 1.02417E-4
9269.531250; 1.14946E-4
9275.390625; 1.18443E-4
9281.250000; 1.09284E-4
9287.109375; 1.10990E-4
9292.968750; 1.12409E-4
9298.828125; 9.79789E-5
9304.687500; 9.77303E-5
9310.546875; 1.01589E-4
9316.406250; 1.03638E-4
9322.265625; 9.95726E-5
9328.125000; 9.93438E-5
9333.984375; 1.05294E-4
9339.843750; 1.09436E-4
9345.703125; 1.00411E-4
9351.562500; 8.94826E-5
9357.421875; 9.79069E-5
9363.281250; 1.16212E-4
9369.140625; 1.08763E-4
9375.000000; 1.08976E-4
9380.859375; 1.13780E-4
9386.718750; 1.05665E-4
9392.578125; 1.01296E-4
9398.437500; 1.05500E-4
9404.296875; 1.04035E-4
9410.156250; 1.02456E-4
9416.015625; 1.05750E-4
9421.875000; 1.02959E-4
9427.734375; 1.05475E-4
9433.593750; 1.11834E-4
9439.453125; 1.03445E-4
9445.312500; 1.07413E-4
9451.171875; 1.03848E-4
9457.031250; 9.25199E-5
9462.890625; 9.85281E-5
9468.750000; 1.06243E-4
9474.609375; 1.08981E-4
9480.468750; 1.06382E-4
9486.328125; 1.06303E-4
9492.187500; 1.00113E-4
9498.046875; 1.05652E-4
9503.906250; 1.03527E-4
9509.765625; 1.03862E-4
9515.625000; 1.11854E-4
9521.484375; 1.14308E-4
9527.343750; 9.76508E-5
9533.203125; 1.02910E-4
9539.062500; 1.04984E-4
9544.921875; 1.02191E-4
9550.781250; 1.03546E-4
9556.640625; 1.01329E-4
9562.500000; 1.02639E-4
9568.359375; 1.04304E-4
9574.218750; 1.05766E-4
9580.078125; 1.01804E-4
9585.937500; 1.06476E-4
9591.796875; 9.83666E-5
9597.656250; 9.72468E-5
9603.515625; 1.02226E-4
9609.375000; 9.99439E-5
9615.234375; 9.60722E-5
9621.093750; 9.10634E-5
9626.953125; 1.11000E-4
9632.812500; 1.11608E-4
9638.671875; 1.07240E-4
9644.531250; 1.00537E-4
9650.390625; 9.54218E-5
9656.250000; 1.07600E-4
9662.109375; 1.10696E-4
9667.968750; 1.04007E-4
9673.828125; 1.03594E-4
9679.687500; 1.12646E-4
9685.546875; 1.02179E-4
9691.406250; 1.02707E-4
9697.265625; 1.13174E-4
9703.125000; 1.13884E-4
9708.984375; 1.01914E-4
9714.843750; 1.03431E-4
9720.703125; 9.99368E-5
9726.562500; 1.05608E-4
9732.421875; 1.05386E-4
9738.281250; 1.08643E-4
9744.140625; 1.05991E-4
9750.000000; 1.04754E-4
9755.859375; 1.08104E-4
9761.718750; 1.10998E-4
9767.578125; 1.08878E-4
9773.437500; 1.05232E-4
9779.296875; 1.02929E-4
9785.156250; 9.96740E-5
9791.015625; 1.10929E-4
9796.875000; 1.01657E-4
9802.734375; 9.67968E-5
9808.593750; 9.85554E-5
9814.453125; 9.87238E-5
9820.312500; 9.56831E-5
9826.171875; 1.12978E-4
9832.031250; 1.13421E-4
9837.890625; 9.73966E-5
9843.750000; 9.50571E-5
9849.609375; 9.81104E-5
9855.468750; 9.99056E-5
9861.328125; 9.73306E-5
9867.187500; 9.91892E-5
9873.046875; 1.01382E-4
9878.906250; 1.08822E-4
9884.765625; 1.09829E-4
9890.625000; 1.01346E-4
9896.484375; 1.00044E-4
9902.343750; 1.05119E-4
9908.203125; 9.97906E-5
9914.062500; 1.01114E-4
9919.921875; 1.05218E-4
9925.781250; 1.03623E-4
9931.640625; 9.34732E-5
9937.500000; 1.04091E-4
9943.359375; 1.03153E-4
9949.218750; 1.09091E-4
9955.078125; 1.09560E-4
9960.937500; 1.14598E-4
9966.796875; 1.16873E-4
9972.656250; 1.16246E-4
9978.515625; 1.13252E-4
9984.375000; 1.05852E-4
9990.234375; 1.06615E-4
9996.093750; 1.09301E-4
10001.953125; 1.04696E-4
10007.812500; 1.05824E-4
10013.671875; 1.08923E-4
10019.531250; 1.09721E-4
10025.390625; 1.00241E-4
10031.250000; 1.00102E-4
10037.109375; 9.65618E-5
10042.968750; 9.98176E-5
10048.828125; 1.09162E-4
10054.687500; 1.06791E-4
10060.546875; 9.94986E-5
10066.406250; 9.62695E-5
10072.265625; 9.90698E-5
10078.125000; 9.37368E-5
10083.984375; 1.01715E-4
10089.843750; 1.08584E-4
10095.703125; 1.06478E-4
10101.562500; 9.52023E-5
10107.421875; 9.70320E-5
10113.281250; 9.91058E-5
10119.140625; 9.72127E-5
10125.000000; 1.02818E-4
10130.859375; 1.02556E-4
10136.718750; 1.01139E-4
10142.578125; 9.97217E-5
10148.437500; 9.74430E-5
10154.296875; 9.41337E-5
10160.156250; 9.84871E-5
10166.015625; 9.98319E-5
10171.875000; 1.03203E-4
10177.734375; 9.58885E-5
10183.593750; 1.05071E-4
10189.453125; 9.41682E-5
10195.312500; 9.85694E-5
10201.171875; 1.01796E-4
10207.031250; 1.09520E-4
10212.890625; 1.07033E-4
10218.750000; 1.01481E-4
10224.609375; 1.06473E-4
10230.468750; 1.13588E-4
10236.328125; 1.02566E-4
10242.187500; 9.84073E-5
10248.046875; 1.04389E-4
10253.906250; 9.79493E-5
10259.765625; 9.81986E-5
10265.625000; 1.04511E-4
10271.484375; 1.07261E-4
10277.343750; 1.00336E-4
10283.203125; 1.03497E-4
10289.062500; 1.14362E-4
10294.921875; 1.08918E-4
10300.781250; 1.13944E-4
10306.640625; 1.16822E-4
10312.500000; 1.01191E-4
10318.359375; 9.57134E-5
10324.218750; 9.10393E-5
10330.078125; 1.15755E-4
10335.937500; 1.14041E-4
10341.796875; 1.04647E-4
10347.656250; 1.03136E-4
10353.515625; 1.07107E-4
10359.375000; 9.76848E-5
10365.234375; 1.01736E-4
10371.093750; 9.83779E-5
10376.953125; 9.02209E-5
10382.812500; 8.71114E-5
10388.671875; 9.67709E-5
10394.531250; 1.04553E-4
10400.390625; 1.01201E-4
10406.250000; 1.08376E-4
10412.109375; 1.02535E-4
10417.968750; 9.57047E-5
10423.828125; 9.97931E-5
10429.687500; 1.01169E-4
10435.546875; 1.11099E-4
10441.406250; 1.13076E-4
10447.265625; 1.05560E-4
10453.125000; 1.04107E-4
10458.984375; 1.12187E-4
10464.843750; 1.05929E-4
10470.703125; 9.53053E-5
10476.562500; 9.57715E-5
10482.421875; 1.03293E-4
10488.281250; 1.08848E-4
10494.140625; 1.15035E-4
10500.000000; 1.09351E-4
10505.859375; 1.00802E-4
10511.718750; 1.03403E-4
10517.578125; 1.05233E-4
10523.437500; 1.06955E-4
10529.296875; 1.09223E-4
10535.156250; 1.05982E-4
10541.015625; 1.03768E-4
10546.875000; 1.09078E-4
10552.734375; 9.69586E-5
10558.593750; 1.00525E-4
10564.453125; 9.58968E-5
10570.312500; 9.68888E-5
10576.171875; 1.03071E-4
10582.031250; 9.87377E-5
10587.890625; 1.03911E-4
10593.750000; 9.65015E-5
10599.609375; 1.13710E-4
10605.468750; 1.13956E-4
10611.328125; 1.07576E-4
10617.187500; 9.73483E-5
10623.046875; 9.64197E-5
10628.906250; 9.99663E-5
10634.765625; 1.06967E-4
10640.625000; 1.16514E-4
10646.484375; 1.12414E-4
10652.343750; 1.09504E-4
10658.203125; 1.04579E-4
10664.062500; 1.01570E-4
10669.921875; 1.00583E-4
10675.781250; 9.21334E-5
10681.640625; 1.05277E-4
10687.500000; 1.05952E-4
10693.359375; 1.07700E-4
10699.218750; 1.08513E-4
10705.078125; 1.14569E-4
10710.937500; 1.01382E-4
10716.796875; 1.02860E-4
10722.656250; 1.15649E-4
10728.515625; 1.11426E-4
10734.375000; 9.99817E-5
10740.234375; 1.11458E-4
10746.093750; 1.01789E-4
10751.953125; 9.72147E-5
10757.812500; 1.02420E-4
10763.671875; 9.96088E-5
10769.531250; 1.03638E-4
10775.390625; 1.02981E-4
10781.250000; 9.95616E-5
10787.109375; 9.77302E-5
10792.968750; 9.07625E-5
10798.828125; 1.02417E-4
10804.687500; 1.06997E-4
10810.546875; 1.02827E-4
10816.406250; 1.06950E-4
10822.265625; 1.05144E-4
10828.125000; 9.92043E-5
10833.984375; 1.03683E-4
10839.843750; 1.09974E-4
10845.703125; 1.12906E-4
10851.562500; 1.13245E-4
10857.421875; 1.09189E-4
10863.281250; 9.71910E-5
10869.140625; 9.24668E-5
10875.000000; 9.92985E-5
10880.859375; 1.03146E-4
10886.718750; 1.00901E-4
10892.578125; 1.03866E-4
10898.437500; 9.21188E-5
10904.296875; 1.03507E-4
10910.156250; 1.05586E-4
10916.015625; 1.07630E-4
10921.875000; 1.05892E-4
10927.734375; 1.09825E-4
10933.593750; 1.12338E-4
10939.453125; 1.06679E-4
10945.312500; 9.89209E-5
10951.171875; 1.02510E-4
10957.031250; 9.66707E-5
10962.890625; 8.65087E-5
10968.750000; 9.25400E-5
10974.609375; 1.01349E-4
10980.468750; 1.06725E-4
10986.328125; 1.06002E-4
10992.187500; 1.05092E-4
10998.046875; 1.02763E-4
11003.906250; 1.02076E-4
11009.765625; 9.84696E-5
11015.625000; 1.02924E-4
11021.484375; 9.70579E-5
11027.343750; 9.91802E-5
11033.203125; 9.82672E-5
11039.062500; 1.05091E-4
11044.921875; 1.20239E-4
11050.781250; 1.12889E-4
11056.640625; 8.96831E-5
11062.500000; 8.96866E-5
11068.359375; 9.26035E-5
11074.218750; 9.82267E-5
11080.078125; 1.02802E-4
11085.937500; 9.80219E-5
11091.796875; 9.26772E-5
11097.656250; 8.98290E-5
11103.515625; 1.01093E-4
11109.375000; 1.05711E-4
11115.234375; 1.04372E-4
11121.093750; 1.00770E-4
11126.953125; 8.97420E-5
11132.812500; 9.02705E-5
11138.671875; 9.15086E-5
11144.531250; 1.02151E-4
11150.390625; 1.06666E-4
11156.250000; 9.60469E-5
11162.109375; 9.58344E-5
11167.968750; 9.97215E-5
11173.828125; 9.58038E-5
11179.687500; 9.72675E-5
11185.546875; 9.89890E-5
11191.406250; 1.02309E-4
11197.265625; 1.05801E-4
11203.125000; 1.15131E-4
11208.984375; 1.05568E-4
11214.843750; 1.01935E-4
11220.703125; 9.31670E-5
11226.562500; 9.27965E-5
11232.421875; 9.99238E-5
11238.281250; 1.06872E-4
11244.140625; 9.65954E-5
11250.000000; 1.11097E-4
11255.859375; 1.15020E-4
11261.718750; 1.10639E-4
11267.578125; 1.11759E-4
11273.437500; 1.06057E-4
11279.296875; 1.03337E-4
11285.156250; 9.94329E-5
11291.015625; 1.00811E-4
11296.875000; 9.96974E-5
11302.734375; 1.03666E-4
11308.593750; 1.05298E-4
11314.453125; 9.79653E-5
11320.312500; 1.09888E-4
11326.171875; 1.10901E-4
11332.031250; 1.15150E-4
11337.890625; 1.10415E-4
11343.750000; 9.99500E-5
11349.609375; 1.19369E-4
11355.468750; 1.15054E-4
11361.328125; 1.07098E-4
11367.187500; 1.04272E-4
11373.046875; 1.02536E-4
11378.906250; 1.05927E-4
11384.765625; 1.07094E-4
11390.625000; 9.41529E-5
11396.484375; 1.00523E-4
11402.343750; 1.00076E-4
11408.203125; 9.71730E-5
11414.062500; 9.83698E-5
11419.921875; 8.99762E-5
11425.781250; 9.26324E-5
11431.640625; 9.80460E-5
11437.500000; 1.00958E-4
11443.359375; 1.04966E-4
11449.218750; 1.01884E-4
11455.078125; 1.07022E-4
11460.937500; 1.07140E-4
11466.796875; 9.83701E-5
11472.656250; 9.81003E-5
11478.515625; 1.01576E-4
11484.375000; 9.66609E-5
11490.234375; 1.01160E-4
11496.093750; 9.61547E-5
11501.953125; 1.05335E-4
11507.812500; 1.02872E-4
11513.671875; 9.47211E-5
11519.531250; 9.30458E-5
11525.390625; 9.44661E-5
11531.250000; 9.81032E-5
11537.109375; 1.00767E-4
11542.968750; 1.09441E-4
11548.828125; 1.17423E-4
11554.687500; 1.00736E-4
11560.546875; 9.48096E-5
11566.406250; 9.78095E-5
11572.265625; 9.68840E-5
11578.125000; 1.00518E-4
11583.984375; 9.93879E-5
11589.843750; 9.82172E-5
11595.703125; 1.02676E-4
11601.562500; 9.80445E-5
11607.421875; 9.81380E-5
11613.281250; 1.03868E-4
11619.140625; 1.03057E-4
11625.000000; 9.40214E-5
11630.859375; 9.41615E-5
11636.718750; 9.90938E-5
11642.578125; 9.52726E-5
11648.437500; 1.04608E-4
11654.296875; 1.10004E-4
11660.156250; 1.08528E-4
11666.015625; 1.05240E-4
11671.875000; 9.28498E-5
11677.734375; 9.96812E-5
11683.593750; 9.65879E-5
11689.453125; 9.54804E-5
11695.312500; 9.59293E-5
11701.171875; 1.02130E-4
11707.031250; 9.38466E-5
11712.890625; 1.00066E-4
11718.750000; 1.04405E-4
11724.609375; 1.04684E-4
11730.468750; 1.06376E-4
11736.328125; 1.03346E-4
11742.187500; 9.44101E-5
11748.046875; 1.01249E-4
11753.906250; 9.85443E-5
11759.765625; 1.04664E-4
11765.625000; 1.14106E-4
11771.484375; 9.23350E-5
11777.343750; 9.36867E-5
11783.203125; 9.52725E-5
11789.062500; 1.04796E-4
11794.921875; 1.11334E-4
11800.781250; 1.16935E-4
11806.640625; 1.05218E-4
11812.500000; 1.06888E-4
11818.359375; 1.04503E-4
11824.218750; 1.04565E-4
11830.078125; 1.07645E-4
11835.937500; 1.09554E-4
11841.796875; 1.07050E-4
11847.656250; 1.10306E-4
11853.515625; 1.10809E-4
11859.375000; 1.00403E-4
11865.234375; 9.95286E-5
11871.093750; 1.07264E-4
11876.953125; 1.08838E-4
11882.812500; 1.02782E-4
11888.671875; 9.23854E-5
11894.531250; 9.16792E-5
11900.390625; 8.69132E-5
11906.250000; 9.46776E-5
11912.109375; 1.00565E-4
11917.968750; 1.04380E-4
11923.828125; 1.07990E-4
11929.687500; 1.05868E-4
11935.546875; 1.06059E-4
11941.406250; 1.01280E-4
11947.265625; 9.88521E-5
11953.125000; 1.07757E-4
11958.984375; 1.03430E-4
11964.843750; 1.05769E-4
11970.703125; 9.97768E-5
11976.562500; 9.93416E-5
11982.421875; 1.01341E-4
11988.281250; 1.06562E-4
11994.140625; 1.10053E-4
12000.000000; 1.07912E-4
12005.859375; 1.11370E-4
12011.718750; 1.07410E-4
12017.578125; 1.01968E-4
12023.437500; 9.99737E-5
12029.296875; 1.09507E-4
12035.156250; 1.05302E-4
12041.015625; 9.63592E-5
12046.875000; 1.01507E-4
12052.734375; 1.08443E-4
12058.593750; 1.06513E-4
12064.453125; 1.03536E-4
12070.312500; 1.00042E-4
12076.171875; 1.15217E-4
12082.031250; 1.06019E-4
12087.890625; 1.05466E-4
12093.750000; 1.03960E-4
12099.609375; 9.49473E-5
12105.468750; 9.63282E-5
12111.328125; 1.09287E-4
12117.187500; 1.11551E-4
12123.046875; 9.95858E-5
12128.906250; 9.85473E-5
12134.765625; 1.00481E-4
12140.625000; 9.99371E-5
12146.484375; 9.53621E-5
12152.343750; 9.92060E-5
12158.203125; 1.00667E-4
12164.062500; 1.01519E-4
12169.921875; 1.01279E-4
12175.781250; 1.08300E-4
12181.640625; 1.16323E-4
12187.500000; 1.12337E-4
12193.359375; 9.85244E-5
12199.218750; 1.08308E-4
12205.078125; 1.03295E-4
12210.937500; 1.01769E-4
12216.796875; 9.56304E-5
12222.656250; 9.89140E-5
12228.515625; 9.86814E-5
12234.375000; 9.84336E-5
12240.234375; 9.82479E-5
12246.093750; 8.96156E-5
12251.953125; 1.00786E-4
12257.812500; 1.01585E-4
12263.671875; 1.09091E-4
12269.531250; 1.09797E-4
12275.390625; 9.96846E-5
12281.250000; 9.29100E-5
12287.109375; 9.63122E-5
12292.968750; 9.39431E-5
12298.828125; 1.02401E-4
12304.687500; 1.06832E-4
12310.546875; 9.88120E-5
12316.406250; 1.01077E-4
12322.265625; 1.13260E-4
12328.125000; 1.09408E-4
12333.984375; 1.02091E-4
12339.843750; 9.94145E-5
12345.703125; 1.12058E-4
12351.562500; 1.21420E-4
12357.421875; 1.07934E-4
12363.281250; 1.03350E-4
12369.140625; 9.59385E-5
12375.000000; 9.29587E-5
12380.859375; 9.39270E-5
12386.718750; 9.39984E-5
12392.578125; 1.12298E-4
12398.437500; 1.17379E-4
12404.296875; 1.12308E-4
12410.156250; 1.07911E-4
12416.015625; 1.01677E-4
12421.875000; 9.82095E-5
12427.734375; 9.37555E-5
12433.593750; 9.15976E-5
12439.453125; 1.08867E-4
12445.312500; 1.03878E-4
12451.171875; 1.00215E-4
12457.031250; 9.92252E-5
12462.890625; 8.91029E-5
12468.750000; 1.01914E-4
12474.609375; 1.08810E-4
12480.468750; 1.04914E-4
12486.328125; 9.65055E-5
12492.187500; 1.15760E-4
12498.046875; 1.11351E-4
12503.906250; 1.01498E-4
12509.765625; 1.00495E-4
12515.625000; 1.05450E-4
12521.484375; 1.14398E-4
12527.343750; 1.04161E-4
12533.203125; 1.02456E-4
12539.062500; 1.05505E-4
12544.921875; 1.01891E-4
12550.781250; 1.00479E-4
12556.640625; 1.06332E-4
12562.500000; 1.04607E-4
12568.359375; 1.01917E-4
12574.218750; 1.14044E-4
12580.078125; 1.11556E-4
12585.937500; 1.05688E-4
12591.796875; 1.15091E-4
12597.656250; 1.13328E-4
12603.515625; 9.89498E-5
12609.375000; 9.84041E-5
12615.234375; 1.06278E-4
12621.093750; 1.06314E-4
12626.953125; 1.01328E-4
12632.812500; 1.03018E-4
12638.671875; 1.04715E-4
12644.531250; 1.12382E-4
12650.390625; 1.05855E-4
12656.250000; 9.23629E-5
12662.109375; 9.71681E-5
12667.968750; 9.97951E-5
12673.828125; 1.01469E-4
12679.687500; 1.04060E-4
12685.546875; 1.00798E-4
12691.406250; 1.02439E-4
12697.265625; 9.03779E-5
12703.125000; 9.94724E-5
12708.984375; 1.05609E-4
12714.843750; 1.13730E-4
12720.703125; 1.06584E-4
12726.562500; 8.85736E-5
12732.421875; 8.41227E-5
12738.281250; 1.06038E-4
12744.140625; 1.15761E-4
12750.000000; 1.09096E-4
12755.859375; 1.03114E-4
12761.718750; 8.95537E-5
12767.578125; 9.60119E-5
12773.437500; 1.05446E-4
12779.296875; 1.08236E-4
12785.156250; 1.00867E-4
12791.015625; 1.05075E-4
12796.875000; 1.12773E-4
12802.734375; 1.18561E-4
12808.593750; 1.17213E-4
12814.453125; 1.02440E-4
12820.312500; 9.89279E-5
12826.171875; 1.03696E-4
12832.031250; 1.04066E-4
12837.890625; 1.03856E-4
12843.750000; 1.01901E-4
12849.609375; 1.01098E-4
12855.468750; 1.00634E-4
12861.328125; 1.03818E-4
12867.187500; 9.29462E-5
12873.046875; 9.82967E-5
12878.906250; 1.06051E-4
12884.765625; 1.03677E-4
12890.625000; 9.84725E-5
12896.484375; 9.48566E-5
12902.343750; 9.99392E-5
12908.203125; 9.79321E-5
12914.062500; 9.20209E-5
12919.921875; 1.12386E-4
12925.781250; 1.03687E-4
12931.640625; 9.43329E-5
12937.500000; 9.22690E-5
12943.359375; 1.02495E-4
12949.218750; 1.10353E-4
12955.078125; 1.01129E-4
12960.937500; 1.05172E-4
12966.796875; 1.05675E-4
12972.656250; 1.14623E-4
12978.515625; 1.11298E-4
12984.375000; 9.96382E-5
12990.234375; 9.39682E-5
12996.093750; 1.00747E-4
13001.953125; 1.00297E-4
13007.812500; 1.02785E-4
13013.671875; 1.01605E-4
13019.531250; 1.06596E-4
13025.390625; 9.98441E-5
13031.250000; 1.10211E-4
13037.109375; 1.08374E-4
13042.968750; 1.09946E-4
13048.828125; 1.03752E-4
13054.687500; 1.00377E-4
13060.546875; 1.02912E-4
13066.406250; 9.55195E-5
13072.265625; 1.00349E-4
13078.125000; 1.01145E-4
13083.984375; 9.60196E-5
13089.843750; 1.01333E-4
13095.703125; 9.47368E-5
13101.562500; 1.02806E-4
13107.421875; 1.06489E-4
13113.281250; 1.02278E-4
13119.140625; 1.07596E-4
13125.000000; 1.01951E-4
13130.859375; 1.00635E-4
13136.718750; 9.92811E-5
13142.578125; 9.86878E-5
13148.437500; 1.02249E-4
13154.296875; 1.00175E-4
13160.156250; 1.01900E-4
13166.015625; 1.03998E-4
13171.875000; 1.00450E-4
13177.734375; 1.12666E-4
13183.593750; 1.08020E-4
13189.453125; 1.11580E-4
13195.312500; 1.10553E-4
13201.171875; 9.31362E-5
13207.031250; 8.83201E-5
13212.890625; 8.95220E-5
13218.750000; 9.93143E-5
13224.609375; 1.11855E-4
13230.468750; 1.15049E-4
13236.328125; 1.10135E-4
13242.187500; 1.05836E-4
13248.046875; 1.05631E-4
13253.906250; 1.11196E-4
13259.765625; 1.03233E-4
13265.625000; 1.03247E-4
13271.484375; 1.07231E-4
13277.343750; 9.81469E-5
13283.203125; 9.70217E-5
13289.062500; 9.34800E-5
13294.921875; 1.04458E-4
13300.781250; 1.06738E-4
13306.640625; 1.02768E-4
13312.500000; 1.02267E-4
13318.359375; 9.43741E-5
13324.218750; 9.31421E-5
13330.078125; 1.00969E-4
13335.937500; 1.06648E-4
13341.796875; 1.08764E-4
13347.656250; 1.19496E-4
13353.515625; 1.11078E-4
13359.375000; 1.03024E-4
13365.234375; 1.04135E-4
13371.093750; 9.66070E-5
13376.953125; 1.01679E-4
13382.812500; 1.12252E-4
13388.671875; 1.19427E-4
13394.531250; 1.16816E-4
13400.390625; 1.05841E-4
13406.250000; 1.09079E-4
13412.109375; 9.20665E-5
13417.968750; 8.56999E-5
13423.828125; 9.23715E-5
13429.687500; 1.03364E-4
13435.546875; 1.06741E-4
13441.406250; 1.04444E-4
13447.265625; 9.81510E-5
13453.125000; 9.13637E-5
13458.984375; 9.54772E-5
13464.843750; 9.31039E-5
13470.703125; 9.44288E-5
13476.562500; 9.31681E-5
13482.421875; 9.74692E-5
13488.281250; 1.02302E-4
13494.140625; 1.00866E-4
13500.000000; 1.08368E-4
13505.859375; 1.03720E-4
13511.718750; 1.08627E-4
13517.578125; 1.11561E-4
13523.437500; 9.92110E-5
13529.296875; 9.63689E-5
13535.156250; 9.84557E-5
13541.015625; 8.97896E-5
13546.875000; 1.03158E-4
13552.734375; 1.03457E-4
13558.593750; 1.02989E-4
13564.453125; 1.05908E-4
13570.312500; 1.09295E-4
13576.171875; 1.07014E-4
13582.031250; 1.09238E-4
13587.890625; 1.00480E-4
13593.750000; 9.19103E-5
13599.609375; 9.83004E-5
13605.468750; 1.03133E-4
13611.328125; 1.01944E-4
13617.187500; 1.10592E-4
13623.046875; 1.02875E-4
13628.906250; 1.08337E-4
13634.765625; 9.95707E-5
13640.625000; 9.64841E-5
13646.484375; 9.93976E-5
13652.343750; 9.86995E-5
13658.203125; 1.05411E-4
13664.062500; 9.62076E-5
13669.921875; 9.87012E-5
13675.781250; 1.00578E-4
13681.640625; 1.02196E-4
13687.500000; 1.08658E-4
13693.359375; 1.01819E-4
13699.218750; 9.75934E-5
13705.078125; 1.01319E-4
13710.937500; 1.00547E-4
13716.796875; 9.92007E-5
13722.656250; 9.59053E-5
13728.515625; 1.00130E-4
13734.375000; 9.56367E-5
13740.234375; 9.20464E-5
13746.093750; 9.49675E-5
13751.953125; 1.02140E-4
13757.812500; 1.04081E-4
13763.671875; 9.66430E-5
13769.531250; 8.77981E-5
13775.390625; 9.73563E-5
13781.250000; 1.09537E-4
13787.109375; 1.06494E-4
13792.968750; 1.01438E-4
13798.828125; 1.03453E-4
13804.687500; 1.08011E-4
13810.546875; 1.13047E-4
13816.406250; 1.08199E-4
13822.265625; 1.01509E-4
13828.125000; 1.04357E-4
13833.984375; 9.88563E-5
13839.843750; 9.53609E-5
13845.703125; 9.81608E-5
13851.562500; 1.07555E-4
13857.421875; 1.09534E-4
13863.281250; 9.95732E-5
13869.140625; 1.00369E-4
13875.000000; 1.07840E-4
13880.859375; 9.54123E-5
13886.718750; 1.01292E-4
13892.578125; 1.06026E-4
13898.437500; 9.33874E-5
13904.296875; 9.92428E-5
13910.156250; 1.02357E-4
13916.015625; 9.61048E-5
13921.875000; 9.54945E-5
13927.734375; 9.59165E-5
13933.593750; 9.83920E-5
13939.453125; 1.04166E-4
13945.312500; 1.03362E-4
13951.171875; 9.52557E-5
13957.031250; 1.01964E-4
13962.890625; 1.09727E-4
13968.750000; 1.05389E-4
13974.609375; 1.01529E-4
13980.468750; 1.00807E-4
13986.328125; 1.03009E-4
13992.187500; 9.43502E-5
13998.046875; 9.64988E-5
14003.906250; 1.06692E-4
14009.765625; 1.13889E-4
14015.625000; 9.77136E-5
14021.484375; 9.60166E-5
14027.343750; 1.13607E-4
14033.203125; 1.15616E-4
14039.062500; 9.94800E-5
14044.921875; 1.02522E-4
14050.781250; 9.79172E-5
14056.640625; 9.27097E-5
14062.500000; 9.98754E-5
14068.359375; 1.05171E-4
14074.218750; 1.04158E-4
14080.078125; 1.07593E-4
14085.937500; 9.77208E-5
14091.796875; 1.02292E-4
14097.656250; 1.09073E-4
14103.515625; 1.09856E-4
14109.375000; 9.33996E-5
14115.234375; 9.17554E-5
14121.093750; 9.44244E-5
14126.953125; 9.15336E-5
14132.812500; 9.76496E-5
14138.671875; 1.00353E-4
14144.531250; 9.88031E-5
14150.390625; 1.02663E-4
14156.250000; 1.09816E-4
14162.109375; 1.04691E-4
14167.968750; 1.04060E-4
14173.828125; 1.07196E-4
14179.687500; 1.00652E-4
14185.546875; 9.10384E-5
14191.406250; 9.89747E-5
14197.265625; 9.89837E-5
14203.125000; 1.09804E-4
14208.984375; 1.13615E-4
14214.843750; 9.88943E-5
14220.703125; 1.06732E-4
14226.562500; 1.10562E-4
14232.421875; 1.02883E-4
14238.281250; 9.63508E-5
14244.140625; 9.46702E-5
14250.000000; 1.07534E-4
14255.859375; 1.05148E-4
14261.718750; 9.66412E-5
14267.578125; 9.83510E-5
14273.437500; 9.85122E-5
14279.296875; 1.06086E-4
14285.156250; 1.00456E-4
14291.015625; 1.00348E-4
14296.875000; 1.05974E-4
14302.734375; 1.05504E-4
14308.593750; 9.72425E-5
14314.453125; 9.20217E-5
14320.312500; 9.04237E-5
14326.171875; 9.18110E-5
14332.031250; 9.68091E-5
14337.890625; 9.95767E-5
14343.750000; 1.03853E-4
14349.609375; 1.02680E-4
14355.468750; 1.00485E-4
14361.328125; 9.71520E-5
14367.187500; 9.99079E-5
14373.046875; 1.02996E-4
14378.906250; 9.14555E-5
14384.765625; 9.85287E-5
14390.625000; 9.68376E-5
14396.484375; 9.05745E-5
14402.343750; 9.95173E-5
14408.203125; 1.10284E-4
14414.062500; 1.08062E-4
14419.921875; 9.89242E-5
14425.781250; 1.08144E-4
14431.640625; 1.06177E-4
14437.500000; 1.05764E-4
14443.359375; 1.01692E-4
14449.218750; 9.61935E-5
14455.078125; 9.40720E-5
14460.937500; 1.02450E-4
14466.796875; 9.49928E-5
14472.656250; 9.23813E-5
14478.515625; 1.00632E-4
14484.375000; 1.09520E-4
14490.234375; 9.66766E-5
14496.093750; 8.31508E-5
14501.953125; 9.59918E-5
14507.812500; 9.81161E-5
14513.671875; 9.84167E-5
14519.531250; 1.03905E-4
14525.390625; 9.82069E-5
14531.250000; 1.01204E-4
14537.109375; 9.95071E-5
14542.968750; 9.88266E-5
14548.828125; 1.01825E-4
14554.687500; 1.06074E-4
14560.546875; 1.06397E-4
14566.406250; 1.12850E-4
14572.265625; 1.02716E-4
14578.125000; 1.00319E-4
14583.984375; 1.04157E-4
14589.843750; 9.92095E-5
14595.703125; 9.98396E-5
14601.562500; 9.88127E-5
14607.421875; 1.02992E-4
14613.281250; 1.09650E-4
14619.140625; 1.07891E-4
14625.000000; 1.03966E-4
14630.859375; 9.80876E-5
14636.718750; 9.56686E-5
14642.578125; 1.05813E-4
14648.437500; 1.06869E-4
14654.296875; 9.70149E-5
14660.156250; 9.76525E-5
14666.015625; 1.03964E-4
14671.875000; 1.08571E-4
14677.734375; 9.85463E-5
14683.593750; 9.56224E-5
14689.453125; 9.16685E-5
14695.312500; 9.15233E-5
14701.171875; 9.88054E-5
14707.031250; 9.04410E-5
14712.890625; 8.94102E-5
14718.750000; 9.60455E-5
14724.609375; 1.05773E-4
14730.468750; 1.04138E-4
14736.328125; 9.65379E-5
14742.187500; 9.45366E-5
14748.046875; 9.22624E-5
14753.906250; 9.70743E-5
14759.765625; 9.15375E-5
14765.625000; 9.76200E-5
14771.484375; 1.06466E-4
14777.343750; 9.54855E-5
14783.203125; 1.03531E-4
14789.062500; 9.78021E-5
14794.921875; 9.42810E-5
14800.781250; 9.25230E-5
14806.640625; 9.66474E-5
14812.500000; 9.70365E-5
14818.359375; 1.01301E-4
14824.218750; 1.02491E-4
14830.078125; 9.55773E-5
14835.937500; 1.02248E-4
14841.796875; 9.51179E-5
14847.656250; 9.06635E-5
14853.515625; 1.00095E-4
14859.375000; 1.04774E-4
14865.234375; 1.01830E-4
14871.093750; 9.41820E-5
14876.953125; 1.03802E-4
14882.812500; 9.85236E-5
14888.671875; 9.27301E-5
14894.531250; 9.23006E-5
14900.390625; 9.82682E-5
14906.250000; 9.67947E-5
14912.109375; 1.06134E-4
14917.968750; 1.02529E-4
14923.828125; 9.51870E-5
14929.687500; 1.00325E-4
14935.546875; 1.00002E-4
14941.406250; 1.03852E-4
14947.265625; 1.15141E-4
14953.125000; 1.10808E-4
14958.984375; 9.47137E-5
14964.843750; 9.59351E-5
14970.703125; 9.26702E-5
14976.562500; 9.53198E-5
14982.421875; 9.81771E-5
14988.281250; 9.68990E-5
14994.140625; 8.94210E-5
15000.000000; 8.78756E-5
15005.859375; 8.53528E-5
15011.718750; 9.18568E-5
15017.578125; 9.28927E-5
15023.437500; 9.31797E-5
15029.296875; 9.90894E-5
15035.156250; 1.06914E-4
15041.015625; 1.05576E-4
15046.875000; 1.06170E-4
15052.734375; 1.03891E-4
15058.593750; 9.66447E-5
15064.453125; 9.61831E-5
15070.312500; 1.04477E-4
15076.171875; 1.12424E-4
15082.031250; 1.12327E-4
15087.890625; 1.10426E-4
15093.750000; 1.06739E-4
15099.609375; 1.02991E-4
15105.468750; 1.01357E-4
15111.328125; 9.67870E-5
15117.187500; 1.00752E-4
15123.046875; 9.77551E-5
15128.906250; 9.71249E-5
15134.765625; 9.38638E-5
15140.625000; 9.51888E-5
15146.484375; 1.02691E-4
15152.343750; 1.03570E-4
15158.203125; 9.71442E-5
15164.062500; 1.13462E-4
15169.921875; 1.12749E-4
15175.781250; 1.05856E-4
15181.640625; 1.06430E-4
15187.500000; 9.45997E-5
15193.359375; 1.02746E-4
15199.218750; 1.05945E-4
15205.078125; 9.54251E-5
15210.937500; 9.39613E-5
15216.796875; 9.90197E-5
15222.656250; 1.02669E-4
15228.515625; 1.07388E-4
15234.375000; 1.04347E-4
15240.234375; 1.09572E-4
15246.093750; 1.12617E-4
15251.953125; 1.08932E-4
15257.812500; 1.06383E-4
15263.671875; 1.02521E-4
15269.531250; 9.41706E-5
15275.390625; 9.83177E-5
15281.250000; 9.17675E-5
15287.109375; 9.62136E-5
15292.968750; 1.04442E-4
15298.828125; 9.28860E-5
15304.687500; 1.03239E-4
15310.546875; 1.12180E-4
15316.406250; 9.18751E-5
15322.265625; 9.24871E-5
15328.125000; 9.81368E-5
15333.984375; 9.23558E-5
15339.843750; 9.74093E-5
15345.703125; 1.01304E-4
15351.562500; 1.02653E-4
15357.421875; 1.07467E-4
15363.281250; 1.03664E-4
15369.140625; 9.79615E-5
15375.000000; 9.93360E-5
15380.859375; 9.51272E-5
15386.718750; 9.27769E-5
15392.578125; 9.16752E-5
15398.437500; 9.93385E-5
15404.296875; 9.76432E-5
15410.156250; 9.45602E-5
15416.015625; 9.19879E-5
15421.875000; 1.00948E-4
15427.734375; 1.02163E-4
15433.593750; 9.69930E-5
15439.453125; 9.07862E-5
15445.312500; 9.79167E-5
15451.171875; 1.00028E-4
15457.031250; 1.09504E-4
15462.890625; 1.14279E-4
15468.750000; 1.05002E-4
15474.609375; 9.10469E-5
15480.468750; 9.88690E-5
15486.328125; 9.84510E-5
15492.187500; 1.07040E-4
15498.046875; 1.01061E-4
15503.906250; 8.79796E-5
15509.765625; 9.64535E-5
15515.625000; 9.60047E-5
15521.484375; 1.04709E-4
15527.343750; 1.06107E-4
15533.203125; 1.04465E-4
15539.062500; 1.02611E-4
15544.921875; 1.01838E-4
15550.781250; 8.94250E-5
15556.640625; 9.48848E-5
15562.500000; 1.01707E-4
15568.359375; 1.02909E-4
15574.218750; 1.02687E-4
15580.078125; 9.83028E-5
15585.937500; 1.00024E-4
15591.796875; 9.76043E-5
15597.656250; 1.02737E-4
15603.515625; 9.86183E-5
15609.375000; 9.27982E-5
15615.234375; 8.75136E-5
15621.093750; 8.30680E-5
15626.953125; 8.80999E-5
15632.812500; 9.27773E-5
15638.671875; 1.02529E-4
15644.531250; 1.00580E-4
15650.390625; 1.04829E-4
15656.250000; 9.71573E-5
15662.109375; 9.50760E-5
15667.968750; 1.00663E-4
15673.828125; 1.03408E-4
15679.687500; 1.12174E-4
15685.546875; 1.03384E-4
15691.406250; 1.02158E-4
15697.265625; 1.03215E-4
15703.125000; 9.85084E-5
15708.984375; 1.03056E-4
15714.843750; 1.11375E-4
15720.703125; 9.75973E-5
15726.562500; 9.58774E-5
15732.421875; 9.32565E-5
15738.281250; 9.51463E-5
15744.140625; 9.65242E-5
15750.000000; 9.41483E-5
15755.859375; 1.00544E-4
15761.718750; 9.84699E-5
15767.578125; 9.26777E-5
15773.437500; 9.42479E-5
15779.296875; 1.08797E-4
15785.156250; 1.08485E-4
15791.015625; 9.67450E-5
15796.875000; 1.00399E-4
15802.734375; 9.89776E-5
15808.593750; 9.16934E-5
15814.453125; 8.88189E-5
15820.312500; 9.57202E-5
15826.171875; 9.07218E-5
15832.031250; 1.01746E-4
15837.890625; 1.00598E-4
15843.750000; 9.97408E-5
15849.609375; 1.03259E-4
15855.468750; 1.02626E-4
15861.328125; 1.15155E-4
15867.187500; 1.05911E-4
15873.046875; 1.04068E-4
15878.906250; 1.01399E-4
15884.765625; 1.07067E-4
15890.625000; 9.18156E-5
15896.484375; 9.83424E-5
15902.343750; 9.14983E-5
15908.203125; 9.30386E-5
15914.062500; 9.33860E-5
15919.921875; 1.03464E-4
15925.781250; 1.12523E-4
15931.640625; 1.05215E-4
15937.500000; 9.66353E-5
15943.359375; 9.73028E-5
15949.218750; 1.02512E-4
15955.078125; 9.59065E-5
15960.937500; 8.96101E-5
15966.796875; 9.26733E-5
15972.656250; 1.04459E-4
15978.515625; 1.09082E-4
15984.375000; 1.05733E-4
15990.234375; 9.32967E-5
15996.093750; 9.41044E-5
16001.953125; 1.01641E-4
16007.812500; 9.62778E-5
16013.671875; 1.01846E-4
16019.531250; 1.11082E-4
16025.390625; 1.04983E-4
16031.250000; 1.01352E-4
16037.109375; 1.00172E-4
16042.968750; 1.09745E-4
16048.828125; 1.09585E-4
16054.687500; 1.00015E-4
16060.546875; 1.00717E-4
16066.406250; 9.40232E-5
16072.265625; 9.91584E-5
16078.125000; 1.01242E-4
16083.984375; 1.08593E-4
16089.843750; 1.04405E-4
16095.703125; 1.02444E-4
16101.562500; 1.11146E-4
16107.421875; 9.70771E-5
16113.281250; 1.03952E-4
16119.140625; 1.06289E-4
16125.000000; 1.00046E-4
16130.859375; 9.38815E-5
16136.718750; 9.63889E-5
16142.578125; 8.96411E-5
16148.437500; 9.97975E-5
16154.296875; 1.07636E-4
16160.156250; 1.01587E-4
16166.015625; 9.66480E-5
16171.875000; 1.08512E-4
16177.734375; 1.13153E-4
16183.593750; 1.05086E-4
16189.453125; 9.96853E-5
16195.312500; 9.90336E-5
16201.171875; 9.58232E-5
16207.031250; 1.03607E-4
16212.890625; 1.07411E-4
16218.750000; 1.01133E-4
16224.609375; 9.11874E-5
16230.468750; 9.21610E-5
16236.328125; 9.48130E-5
16242.187500; 9.70259E-5
16248.046875; 9.52075E-5
16253.906250; 9.00820E-5
16259.765625; 9.04697E-5
16265.625000; 9.23282E-5
16271.484375; 9.87709E-5
16277.343750; 9.82610E-5
16283.203125; 9.33659E-5
16289.062500; 9.57576E-5
16294.921875; 9.37969E-5
16300.781250; 1.00173E-4
16306.640625; 1.01894E-4
16312.500000; 9.96654E-5
16318.359375; 9.26650E-5
16324.218750; 9.17705E-5
16330.078125; 9.63527E-5
16335.937500; 8.73157E-5
16341.796875; 8.91105E-5
16347.656250; 9.80467E-5
16353.515625; 9.38019E-5
16359.375000; 1.00378E-4
16365.234375; 1.01700E-4
16371.093750; 9.71882E-5
16376.953125; 1.03363E-4
16382.812500; 1.06410E-4
16388.671875; 9.83405E-5
16394.531250; 8.66617E-5
16400.390625; 8.16701E-5
16406.250000; 8.93624E-5
16412.109375; 9.82899E-5
16417.968750; 1.08275E-4
16423.828125; 1.06084E-4
16429.687500; 9.32420E-5
16435.546875; 9.23930E-5
16441.406250; 1.05080E-4
16447.265625; 1.05248E-4
16453.125000; 9.51577E-5
16458.984375; 8.89820E-5
16464.843750; 9.24681E-5
16470.703125; 9.64930E-5
16476.562500; 9.48726E-5
16482.421875; 9.38803E-5
16488.281250; 9.11790E-5
16494.140625; 8.92983E-5
16500.000000; 9.16172E-5
16505.859375; 9.78199E-5
16511.718750; 9.68892E-5
16517.578125; 1.00363E-4
16523.437500; 1.05528E-4
16529.296875; 9.84073E-5
16535.156250; 9.98752E-5
16541.015625; 9.95514E-5
16546.875000; 1.04388E-4
16552.734375; 1.02899E-4
16558.593750; 9.82009E-5
16564.453125; 1.00829E-4
16570.312500; 9.04061E-5
16576.171875; 9.84736E-5
16582.031250; 1.06154E-4
16587.890625; 1.07985E-4
16593.750000; 1.07408E-4
16599.609375; 1.08309E-4
16605.468750; 9.35042E-5
16611.328125; 8.76600E-5
16617.187500; 9.28272E-5
16623.046875; 1.01662E-4
16628.906250; 1.01159E-4
16634.765625; 1.01920E-4
16640.625000; 1.01777E-4
16646.484375; 1.04988E-4
16652.343750; 1.03368E-4
16658.203125; 9.37720E-5
16664.062500; 1.06265E-4
16669.921875; 1.06630E-4
16675.781250; 1.10239E-4
16681.640625; 1.05139E-4
16687.500000; 8.93782E-5
16693.359375; 8.82477E-5
16699.218750; 1.01990E-4
16705.078125; 9.76813E-5
16710.937500; 1.01208E-4
16716.796875; 9.55129E-5
16722.656250; 9.11069E-5
16728.515625; 9.41974E-5
16734.375000; 9.30791E-5
16740.234375; 8.75420E-5
16746.093750; 9.53900E-5
16751.953125; 1.07944E-4
16757.812500; 1.08920E-4
16763.671875; 9.93728E-5
16769.531250; 9.37731E-5
16775.390625; 9.26267E-5
16781.250000; 9.83609E-5
16787.109375; 9.51409E-5
16792.968750; 9.11279E-5
16798.828125; 9.68025E-5
16804.687500; 1.04156E-4
16810.546875; 9.76010E-5
16816.406250; 9.65933E-5
16822.265625; 9.59751E-5
16828.125000; 9.28060E-5
16833.984375; 9.02894E-5
16839.843750; 9.83622E-5
16845.703125; 1.04726E-4
16851.562500; 9.36431E-5
16857.421875; 9.70661E-5
16863.281250; 1.00335E-4
16869.140625; 1.04758E-4
16875.000000; 1.05447E-4
16880.859375; 1.02853E-4
16886.718750; 9.53681E-5
16892.578125; 8.78145E-5
16898.437500; 9.67610E-5
16904.296875; 1.12067E-4
16910.156250; 1.08243E-4
16916.015625; 9.62165E-5
16921.875000; 9.63217E-5
16927.734375; 8.95038E-5
16933.593750; 9.07595E-5
16939.453125; 1.03586E-4
16945.312500; 1.08368E-4
16951.171875; 1.07921E-4
16957.031250; 9.43577E-5
16962.890625; 9.97228E-5
16968.750000; 1.04864E-4
16974.609375; 9.98666E-5
16980.468750; 8.85925E-5
16986.328125; 9.22666E-5
16992.187500; 1.02869E-4
16998.046875; 1.01135E-4
17003.906250; 9.26149E-5
17009.765625; 1.04443E-4
17015.625000; 1.03216E-4
17021.484375; 1.01341E-4
17027.343750; 9.94789E-5
17033.203125; 1.07141E-4
17039.062500; 1.06963E-4
17044.921875; 1.04990E-4
17050.781250; 1.07159E-4
17056.640625; 1.08921E-4
17062.500000; 1.05805E-4
17068.359375; 1.00203E-4
17074.218750; 9.83064E-5
17080.078125; 1.00314E-4
17085.937500; 9.79919E-5
17091.796875; 8.85295E-5
17097.656250; 9.70901E-5
17103.515625; 1.04642E-4
17109.375000; 1.04298E-4
17115.234375; 9.70186E-5
17121.093750; 1.02199E-4
17126.953125; 1.00189E-4
17132.812500; 1.04800E-4
17138.671875; 1.00737E-4
17144.531250; 1.00177E-4
17150.390625; 1.03246E-4
17156.250000; 1.11415E-4
17162.109375; 1.10751E-4
17167.968750; 1.12021E-4
17173.828125; 9.94235E-5
17179.687500; 8.76657E-5
17185.546875; 1.00555E-4
17191.406250; 1.02318E-4
17197.265625; 9.50519E-5
17203.125000; 9.85075E-5
17208.984375; 9.83130E-5
17214.843750; 9.85574E-5
17220.703125; 9.30998E-5
17226.562500; 8.71343E-5
17232.421875; 9.54958E-5
17238.281250; 1.00333E-4
17244.140625; 1.06398E-4
17250.000000; 1.05674E-4
17255.859375; 1.10453E-4
17261.718750; 9.86485E-5
17267.578125; 9.43600E-5
17273.437500; 9.03116E-5
17279.296875; 9.09669E-5
17285.156250; 9.95112E-5
17291.015625; 1.07299E-4
17296.875000; 1.15895E-4
17302.734375; 1.06432E-4
17308.593750; 9.24020E-5
17314.453125; 9.33397E-5
17320.312500; 9.78163E-5
17326.171875; 9.12320E-5
17332.031250; 9.65887E-5
17337.890625; 9.70556E-5
17343.750000; 9.84963E-5
17349.609375; 8.94803E-5
17355.468750; 9.18202E-5
17361.328125; 9.14721E-5
17367.187500; 1.03064E-4
17373.046875; 1.02428E-4
17378.906250; 9.70413E-5
17384.765625; 9.73296E-5
17390.625000; 9.36979E-5
17396.484375; 1.07637E-4
17402.343750; 9.34346E-5
17408.203125; 9.04337E-5
17414.062500; 8.80760E-5
17419.921875; 1.00214E-4
17425.781250; 1.08046E-4
17431.640625; 9.93383E-5
17437.500000; 1.00526E-4
17443.359375; 9.36992E-5
17449.218750; 1.00266E-4
17455.078125; 9.93255E-5
17460.937500; 9.67229E-5
17466.796875; 9.35521E-5
17472.656250; 1.02901E-4
17478.515625; 9.53040E-5
17484.375000; 8.92864E-5
17490.234375; 9.15386E-5
17496.093750; 9.17785E-5
17501.953125; 9.59208E-5
17507.812500; 9.30842E-5
17513.671875; 1.02632E-4
17519.531250; 9.33566E-5
17525.390625; 9.27455E-5
17531.250000; 9.84606E-5
17537.109375; 8.98693E-5
17542.968750; 9.63048E-5
17548.828125; 9.69385E-5
17554.687500; 9.85149E-5
17560.546875; 1.13206E-4
17566.406250; 1.13337E-4
17572.265625; 1.02919E-4
17578.125000; 1.01121E-4
17583.984375; 1.09266E-4
17589.843750; 1.02049E-4
17595.703125; 9.31061E-5
17601.562500; 9.19556E-5
17607.421875; 9.07571E-5
17613.281250; 8.59272E-5
17619.140625; 9.27967E-5
17625.000000; 1.06320E-4
17630.859375; 1.08508E-4
17636.718750; 9.93443E-5
17642.578125; 9.82281E-5
17648.437500; 1.04439E-4
17654.296875; 9.68730E-5
17660.156250; 9.04717E-5
17666.015625; 8.29671E-5
17671.875000; 8.06705E-5
17677.734375; 8.90020E-5
17683.593750; 1.00631E-4
17689.453125; 1.06686E-4
17695.312500; 9.83973E-5
17701.171875; 1.05099E-4
17707.031250; 1.12110E-4
17712.890625; 9.75741E-5
17718.750000; 1.03028E-4
17724.609375; 1.05541E-4
17730.468750; 9.47101E-5
17736.328125; 1.01638E-4
17742.187500; 9.96650E-5
17748.046875; 9.16475E-5
17753.906250; 9.61293E-5
17759.765625; 1.02546E-4
17765.625000; 9.63084E-5
17771.484375; 9.81825E-5
17777.343750; 1.06206E-4
17783.203125; 9.68851E-5
17789.062500; 9.48475E-5
17794.921875; 1.00169E-4
17800.781250; 1.00260E-4
17806.640625; 9.64458E-5
17812.500000; 1.10422E-4
17818.359375; 1.02548E-4
17824.218750; 9.95740E-5
17830.078125; 8.82846E-5
17835.937500; 9.35029E-5
17841.796875; 1.00932E-4
17847.656250; 9.84086E-5
17853.515625; 1.04659E-4
17859.375000; 9.89605E-5
17865.234375; 1.04873E-4
17871.093750; 9.66030E-5
17876.953125; 9.40447E-5
17882.812500; 9.44577E-5
17888.671875; 1.03332E-4
17894.531250; 1.09967E-4
17900.390625; 1.01448E-4
17906.250000; 9.99628E-5
17912.109375; 9.78751E-5
17917.968750; 9.85816E-5
17923.828125; 9.69082E-5
17929.687500; 9.14797E-5
17935.546875; 9.19191E-5
17941.406250; 1.00037E-4
17947.265625; 9.71963E-5
17953.125000; 9.43980E-5
17958.984375; 9.91096E-5
17964.843750; 9.58932E-5
17970.703125; 1.00367E-4
17976.562500; 1.04482E-4
17982.421875; 1.00122E-4
17988.281250; 9.32515E-5
17994.140625; 9.30025E-5
18000.000000; 9.44808E-5
18005.859375; 9.69151E-5
18011.718750; 1.00803E-4
18017.578125; 1.09697E-4
18023.437500; 1.00473E-4
18029.296875; 9.77130E-5
18035.156250; 1.02149E-4
18041.015625; 1.02266E-4
18046.875000; 1.07873E-4
18052.734375; 1.02130E-4
18058.593750; 9.43208E-5
18064.453125; 9.67445E-5
18070.312500; 1.04684E-4
18076.171875; 9.64663E-5
18082.031250; 9.98365E-5
18087.890625; 9.32566E-5
18093.750000; 9.48272E-5
18099.609375; 9.22159E-5
18105.468750; 9.60991E-5
18111.328125; 1.03874E-4
18117.187500; 1.07881E-4
18123.046875; 9.34961E-5
18128.906250; 1.01222E-4
18134.765625; 9.22094E-5
18140.625000; 9.64882E-5
18146.484375; 8.94249E-5
18152.343750; 1.01684E-4
18158.203125; 9.39269E-5
18164.062500; 8.49905E-5
18169.921875; 1.06532E-4
18175.781250; 1.15133E-4
18181.640625; 1.14877E-4
18187.500000; 9.87322E-5
18193.359375; 9.19530E-5
18199.218750; 9.46030E-5
18205.078125; 9.84769E-5
18210.937500; 1.06889E-4
18216.796875; 1.06123E-4
18222.656250; 1.07544E-4
18228.515625; 9.09626E-5
18234.375000; 9.56002E-5
18240.234375; 1.00903E-4
18246.093750; 8.80473E-5
18251.953125; 8.82990E-5
18257.812500; 9.30202E-5
18263.671875; 9.85453E-5
18269.531250; 9.84340E-5
18275.390625; 1.05540E-4
18281.250000; 9.69144E-5
18287.109375; 9.68326E-5
18292.968750; 9.88833E-5
18298.828125; 1.02240E-4
18304.687500; 1.04807E-4
18310.546875; 1.09690E-4
18316.406250; 1.00771E-4
18322.265625; 9.48311E-5
18328.125000; 8.81002E-5
18333.984375; 8.70533E-5
18339.843750; 9.13650E-5
18345.703125; 9.37182E-5
18351.562500; 9.59589E-5
18357.421875; 9.96271E-5
18363.281250; 9.46986E-5
18369.140625; 9.36471E-5
18375.000000; 9.99655E-5
18380.859375; 9.75510E-5
18386.718750; 1.02138E-4
18392.578125; 1.13485E-4
18398.437500; 9.93766E-5
18404.296875; 9.56705E-5
18410.156250; 9.57034E-5
18416.015625; 1.09446E-4
18421.875000; 1.04506E-4
18427.734375; 9.64587E-5
18433.593750; 8.44644E-5
18439.453125; 9.58166E-5
18445.312500; 1.11222E-4
18451.171875; 1.01912E-4
18457.031250; 9.48764E-5
18462.890625; 1.04371E-4
18468.750000; 1.06356E-4
18474.609375; 9.42187E-5
18480.468750; 9.49122E-5
18486.328125; 1.02085E-4
18492.187500; 1.04772E-4
18498.046875; 1.00490E-4
18503.906250; 1.00853E-4
18509.765625; 1.04431E-4
18515.625000; 1.00857E-4
18521.484375; 1.04444E-4
18527.343750; 9.86285E-5
18533.203125; 9.32130E-5
18539.062500; 9.89190E-5
18544.921875; 1.02764E-4
18550.781250; 9.24348E-5
18556.640625; 9.72455E-5
18562.500000; 9.71876E-5
18568.359375; 9.22900E-5
18574.218750; 8.98387E-5
18580.078125; 8.96525E-5
18585.937500; 9.17223E-5
18591.796875; 8.86712E-5
18597.656250; 1.00854E-4
18603.515625; 1.08312E-4
18609.375000; 9.51547E-5
18615.234375; 8.72436E-5
18621.093750; 8.76446E-5
18626.953125; 1.04854E-4
18632.812500; 9.21689E-5
18638.671875; 8.34689E-5
18644.531250; 9.39867E-5
18650.390625; 9.88829E-5
18656.250000; 1.05774E-4
18662.109375; 1.05802E-4
18667.968750; 9.56617E-5
18673.828125; 9.78351E-5
18679.687500; 9.45428E-5
18685.546875; 1.00687E-4
18691.406250; 9.93779E-5
18697.265625; 9.19982E-5
18703.125000; 8.68444E-5
18708.984375; 9.60822E-5
18714.843750; 9.77102E-5
18720.703125; 1.00825E-4
18726.562500; 1.06208E-4
18732.421875; 1.07391E-4
18738.281250; 1.03713E-4
18744.140625; 9.53248E-5
18750.000000; 9.38399E-5
18755.859375; 9.88408E-5
18761.718750; 1.04903E-4
18767.578125; 1.06696E-4
18773.437500; 1.05514E-4
18779.296875; 1.05949E-4
18785.156250; 1.02163E-4
18791.015625; 9.71954E-5
18796.875000; 1.03738E-4
18802.734375; 9.59057E-5
18808.593750; 9.36830E-5
18814.453125; 1.03493E-4
18820.312500; 1.09584E-4
18826.171875; 9.40177E-5
18832.031250; 1.00005E-4
18837.890625; 1.01622E-4
18843.750000; 9.65564E-5
18849.609375; 1.04037E-4
18855.468750; 1.00497E-4
18861.328125; 1.02677E-4
18867.187500; 9.64293E-5
18873.046875; 9.83190E-5
18878.906250; 9.67221E-5
18884.765625; 9.37095E-5
18890.625000; 9.71647E-5
18896.484375; 9.81245E-5
18902.343750; 9.22904E-5
18908.203125; 9.14574E-5
18914.062500; 9.39704E-5
18919.921875; 8.78996E-5
18925.781250; 9.16510E-5
18931.640625; 9.37403E-5
18937.500000; 8.70747E-5
18943.359375; 9.71287E-5
18949.218750; 1.04362E-4
18955.078125; 1.07184E-4
18960.937500; 9.82994E-5
18966.796875; 1.00465E-4
18972.656250; 1.06788E-4
18978.515625; 1.07244E-4
18984.375000; 1.06428E-4
18990.234375; 9.33356E-5
18996.093750; 1.00057E-4
19001.953125; 1.01893E-4
19007.812500; 9.52041E-5
19013.671875; 9.77178E-5
19019.531250; 9.60604E-5
19025.390625; 8.86534E-5
19031.250000; 8.23598E-5
19037.109375; 8.77378E-5
19042.968750; 9.57362E-5
19048.828125; 9.01301E-5
19054.687500; 9.38632E-5
19060.546875; 9.72079E-5
19066.406250; 9.22697E-5
19072.265625; 1.01248E-4
19078.125000; 1.00493E-4
19083.984375; 9.60562E-5
19089.843750; 9.86966E-5
19095.703125; 8.82436E-5
19101.562500; 9.28572E-5
19107.421875; 9.16055E-5
19113.281250; 8.43903E-5
19119.140625; 9.39572E-5
19125.000000; 1.04424E-4
19130.859375; 9.65734E-5
19136.718750; 9.66662E-5
19142.578125; 9.72723E-5
19148.437500; 9.61917E-5
19154.296875; 9.05591E-5
19160.156250; 9.03968E-5
19166.015625; 8.82929E-5
19171.875000; 8.48559E-5
19177.734375; 8.78229E-5
19183.593750; 1.02079E-4
19189.453125; 1.01330E-4
19195.312500; 9.42099E-5
19201.171875; 9.16870E-5
19207.031250; 9.25078E-5
19212.890625; 9.60647E-5
19218.750000; 9.11834E-5
19224.609375; 8.31830E-5
19230.468750; 8.93331E-5
19236.328125; 8.85131E-5
19242.187500; 9.28513E-5
19248.046875; 9.00049E-5
19253.906250; 1.02182E-4
19259.765625; 1.00387E-4
19265.625000; 8.70445E-5
19271.484375; 9.45115E-5
19277.343750; 9.82653E-5
19283.203125; 9.59359E-5
19289.062500; 9.31362E-5
19294.921875; 8.86931E-5
19300.781250; 1.02909E-4
19306.640625; 1.00377E-4
19312.500000; 1.01398E-4
19318.359375; 8.97771E-5
19324.218750; 8.93025E-5
19330.078125; 9.18698E-5
19335.937500; 9.88591E-5
19341.796875; 9.60641E-5
19347.656250; 1.00304E-4
19353.515625; 1.01142E-4
19359.375000; 9.12485E-5
19365.234375; 9.17750E-5
19371.093750; 9.86873E-5
19376.953125; 9.83902E-5
19382.812500; 1.02133E-4
19388.671875; 9.07092E-5
19394.531250; 8.91013E-5
19400.390625; 9.34563E-5
19406.250000; 8.91006E-5
19412.109375; 9.94204E-5
19417.968750; 9.49480E-5
19423.828125; 8.77252E-5
19429.687500; 1.02681E-4
19435.546875; 1.06062E-4
19441.406250; 9.60117E-5
19447.265625; 1.03923E-4
19453.125000; 9.69441E-5
19458.984375; 8.62583E-5
19464.843750; 9.80737E-5
19470.703125; 1.05392E-4
19476.562500; 9.88483E-5
19482.421875; 9.16421E-5
19488.281250; 8.76472E-5
19494.140625; 9.13758E-5
19500.000000; 9.11391E-5
19505.859375; 9.30373E-5
19511.718750; 1.05575E-4
19517.578125; 1.05844E-4
19523.437500; 1.08685E-4
19529.296875; 1.09390E-4
19535.156250; 9.97915E-5
19541.015625; 1.03629E-4
19546.875000; 9.73210E-5
19552.734375; 9.62224E-5
19558.593750; 9.96059E-5
19564.453125; 9.72071E-5
19570.312500; 9.51476E-5
19576.171875; 1.07351E-4
19582.031250; 9.76860E-5
19587.890625; 9.76531E-5
19593.750000; 1.01700E-4
19599.609375; 9.33938E-5
19605.468750; 9.58752E-5
19611.328125; 1.02982E-4
19617.187500; 1.01079E-4
19623.046875; 1.03052E-4
19628.906250; 9.53618E-5
19634.765625; 9.31325E-5
19640.625000; 9.56559E-5
19646.484375; 1.00690E-4
19652.343750; 1.02541E-4
19658.203125; 9.02023E-5
19664.062500; 7.91893E-5
19669.921875; 9.10015E-5
19675.781250; 9.96185E-5
19681.640625; 9.31948E-5
19687.500000; 9.60941E-5
19693.359375; 9.73128E-5
19699.218750; 9.87935E-5
19705.078125; 9.84380E-5
19710.937500; 1.01751E-4
19716.796875; 9.27591E-5
19722.656250; 8.73986E-5
19728.515625; 1.00807E-4
19734.375000; 1.04664E-4
19740.234375; 1.01253E-4
19746.093750; 1.03712E-4
19751.953125; 1.00690E-4
19757.812500; 9.05301E-5
19763.671875; 8.93869E-5
19769.531250; 8.84432E-5
19775.390625; 8.99296E-5
19781.250000; 9.82712E-5
19787.109375; 1.09867E-4
19792.968750; 1.12689E-4
19798.828125; 1.09158E-4
19804.687500; 9.96384E-5
19810.546875; 1.04704E-4
19816.406250; 1.04371E-4
19822.265625; 9.88313E-5
19828.125000; 8.86932E-5
19833.984375; 9.30659E-5
19839.843750; 1.06316E-4
19845.703125; 1.04180E-4
19851.562500; 9.26113E-5
19857.421875; 9.23545E-5
19863.281250; 9.43477E-5
19869.140625; 9.70041E-5
19875.000000; 9.15352E-5
19880.859375; 9.41280E-5
19886.718750; 9.99665E-5
19892.578125; 1.05799E-4
19898.437500; 1.01488E-4
19904.296875; 9.11270E-5
19910.156250; 8.97202E-5
19916.015625; 9.32761E-5
19921.875000; 9.74833E-5
19927.734375; 9.45017E-5
19933.593750; 9.21308E-5
19939.453125; 8.54688E-5
19945.312500; 8.36438E-5
19951.171875; 9.84294E-5
19957.031250; 9.75720E-5
19962.890625; 9.92921E-5
19968.750000; 1.00259E-4
19974.609375; 8.79222E-5
19980.468750; 9.02294E-5
19986.328125; 1.09322E-4
19992.187500; 1.06041E-4
19998.046875; 9.33061E-5
20003.906250; 9.27810E-5
20009.765625; 9.24913E-5
20015.625000; 9.54441E-5
20021.484375; 8.15399E-5
20027.343750; 9.55911E-5
20033.203125; 9.38574E-5
20039.062500; 9.53850E-5
20044.921875; 9.85766E-5
20050.781250; 9.51225E-5
20056.640625; 9.93085E-5
20062.500000; 9.37086E-5
20068.359375; 8.90207E-5
20074.218750; 9.40169E-5
20080.078125; 8.52406E-5
20085.937500; 8.98012E-5
20091.796875; 9.02137E-5
20097.656250; 9.86512E-5
20103.515625; 1.03553E-4
20109.375000; 1.00339E-4
20115.234375; 8.77212E-5
20121.093750; 9.11537E-5
20126.953125; 1.01685E-4
20132.812500; 1.06225E-4
20138.671875; 9.15501E-5
20144.531250; 9.11258E-5
20150.390625; 9.48183E-5
20156.250000; 9.10990E-5
20162.109375; 9.46953E-5
20167.968750; 9.78095E-5
20173.828125; 1.04442E-4
20179.687500; 1.04110E-4
20185.546875; 9.59729E-5
20191.406250; 9.64131E-5
20197.265625; 9.32782E-5
20203.125000; 9.76400E-5
20208.984375; 1.05299E-4
20214.843750; 1.05791E-4
20220.703125; 9.77469E-5
20226.562500; 9.01904E-5
20232.421875; 9.37881E-5
20238.281250; 9.80956E-5
20244.140625; 9.81458E-5
20250.000000; 9.18049E-5
20255.859375; 9.46043E-5
20261.718750; 1.00227E-4
20267.578125; 9.61880E-5
20273.437500; 9.03978E-5
20279.296875; 9.24723E-5
20285.156250; 1.01499E-4
20291.015625; 9.51692E-5
20296.875000; 9.02244E-5
20302.734375; 9.38601E-5
20308.593750; 9.95810E-5
20314.453125; 1.07675E-4
20320.312500; 1.04838E-4
20326.171875; 9.90353E-5
20332.031250; 9.49889E-5
20337.890625; 8.63334E-5
20343.750000; 1.00995E-4
20349.609375; 1.02422E-4
20355.468750; 9.42007E-5
20361.328125; 8.80589E-5
20367.187500; 9.92853E-5
20373.046875; 1.01438E-4
20378.906250; 9.58054E-5
20384.765625; 9.53605E-5
20390.625000; 1.00342E-4
20396.484375; 9.11040E-5
20402.343750; 1.07672E-4
20408.203125; 1.07110E-4
20414.062500; 1.11565E-4
20419.921875; 1.09360E-4
20425.781250; 8.74782E-5
20431.640625; 8.18559E-5
20437.500000; 9.37431E-5
20443.359375; 9.02145E-5
20449.218750; 9.57441E-5
20455.078125; 1.01199E-4
20460.937500; 1.01133E-4
20466.796875; 1.03242E-4
20472.656250; 1.03883E-4
20478.515625; 9.59609E-5
20484.375000; 8.63214E-5
20490.234375; 8.51750E-5
20496.093750; 9.19364E-5
20501.953125; 1.04745E-4
20507.812500; 9.70350E-5
20513.671875; 9.25251E-5
20519.531250; 8.98635E-5
20525.390625; 8.74275E-5
20531.250000; 1.00942E-4
20537.109375; 1.06092E-4
20542.968750; 9.94128E-5
20548.828125; 1.00061E-4
20554.687500; 9.51815E-5
20560.546875; 9.26040E-5
20566.406250; 1.00798E-4
20572.265625; 9.16707E-5
20578.125000; 9.40384E-5
20583.984375; 9.88169E-5
20589.843750; 9.88433E-5
20595.703125; 9.36351E-5
20601.562500; 9.45615E-5
20607.421875; 9.12394E-5
20613.281250; 8.58333E-5
20619.140625; 9.71101E-5
20625.000000; 9.59455E-5
20630.859375; 9.25792E-5
20636.718750; 9.95510E-5
20642.578125; 9.97977E-5
20648.437500; 9.41089E-5
20654.296875; 9.03960E-5
20660.156250; 1.01429E-4
20666.015625; 9.83849E-5
20671.875000; 9.21733E-5
20677.734375; 8.35639E-5
20683.593750; 9.46071E-5
20689.453125; 9.39413E-5
20695.312500; 9.24381E-5
20701.171875; 9.99849E-5
20707.031250; 9.97453E-5
20712.890625; 1.06571E-4
20718.750000; 1.05587E-4
20724.609375; 9.77341E-5
20730.468750; 9.92108E-5
20736.328125; 9.01458E-5
20742.187500; 1.02697E-4
20748.046875; 1.09093E-4
20753.906250; 9.63362E-5
20759.765625; 8.49484E-5
20765.625000; 8.85318E-5
20771.484375; 9.25319E-5
20777.343750; 9.37815E-5
20783.203125; 9.03882E-5
20789.062500; 9.72959E-5
20794.921875; 1.06657E-4
20800.781250; 9.90931E-5
20806.640625; 1.03503E-4
20812.500000; 1.06931E-4
20818.359375; 1.00280E-4
20824.218750; 9.36632E-5
20830.078125; 9.50421E-5
20835.937500; 9.33402E-5
20841.796875; 9.67187E-5
20847.656250; 9.68429E-5
20853.515625; 1.02772E-4
20859.375000; 1.01555E-4
20865.234375; 9.94164E-5
20871.093750; 9.77569E-5
20876.953125; 9.87726E-5
20882.812500; 9.08890E-5
20888.671875; 8.34006E-5
20894.531250; 8.68919E-5
20900.390625; 9.42798E-5
20906.250000; 1.05055E-4
20912.109375; 9.75483E-5
20917.968750; 9.63557E-5
20923.828125; 9.28019E-5
20929.687500; 9.57486E-5
20935.546875; 1.06712E-4
20941.406250; 1.10310E-4
20947.265625; 1.03736E-4
20953.125000; 1.07248E-4
20958.984375; 1.10371E-4
20964.843750; 1.00012E-4
20970.703125; 9.64485E-5
20976.562500; 9.33498E-5
20982.421875; 1.00534E-4
20988.281250; 9.83986E-5
20994.140625; 8.46847E-5
21000.000000; 9.02760E-5
21005.859375; 9.32157E-5
21011.718750; 1.05779E-4
21017.578125; 1.07442E-4
21023.437500; 9.72767E-5
21029.296875; 8.81069E-5
21035.156250; 9.78929E-5
21041.015625; 9.76814E-5
21046.875000; 9.80788E-5
21052.734375; 9.04164E-5
21058.593750; 9.54707E-5
21064.453125; 9.55430E-5
21070.312500; 9.51420E-5
21076.171875; 9.98606E-5
21082.031250; 1.00637E-4
21087.890625; 1.06989E-4
21093.750000; 9.33772E-5
21099.609375; 9.32676E-5
21105.468750; 8.91749E-5
21111.328125; 9.27917E-5
21117.187500; 9.64894E-5
21123.046875; 8.96453E-5
21128.906250; 9.37743E-5
21134.765625; 1.01771E-4
21140.625000; 9.01430E-5
21146.484375; 8.63788E-5
21152.343750; 1.03266E-4
21158.203125; 9.84435E-5
21164.062500; 9.61728E-5
21169.921875; 1.01002E-4
21175.781250; 9.16343E-5
21181.640625; 9.10773E-5
21187.500000; 8.87215E-5
21193.359375; 9.28614E-5
21199.218750; 9.59744E-5
21205.078125; 9.41151E-5
21210.937500; 9.53158E-5
21216.796875; 1.00084E-4
21222.656250; 1.04804E-4
21228.515625; 1.03440E-4
21234.375000; 1.15775E-4
21240.234375; 1.02092E-4
21246.093750; 8.94866E-5
21251.953125; 9.35088E-5
21257.812500; 9.93240E-5
21263.671875; 9.42632E-5
21269.531250; 9.04592E-5
21275.390625; 9.25853E-5
21281.250000; 9.34863E-5
21287.109375; 1.04664E-4
21292.968750; 9.95335E-5
21298.828125; 8.76099E-5
21304.687500; 9.43380E-5
21310.546875; 9.54753E-5
21316.406250; 9.15796E-5
21322.265625; 9.07674E-5
21328.125000; 1.06008E-4
21333.984375; 1.10587E-4
21339.843750; 1.03678E-4
21345.703125; 9.75188E-5
21351.562500; 1.00094E-4
21357.421875; 9.12458E-5
21363.281250; 1.04140E-4
21369.140625; 9.77193E-5
21375.000000; 9.27801E-5
21380.859375; 9.95540E-5
21386.718750; 1.05385E-4
21392.578125; 9.76834E-5
21398.437500; 8.97541E-5
21404.296875; 8.32705E-5
21410.156250; 9.39670E-5
21416.015625; 9.95266E-5
21421.875000; 1.05029E-4
21427.734375; 9.90595E-5
21433.593750; 9.31308E-5
21439.453125; 1.00786E-4
21445.312500; 9.43172E-5
21451.171875; 9.34144E-5
21457.031250; 9.74486E-5
21462.890625; 9.64728E-5
21468.750000; 1.01381E-4
21474.609375; 9.42430E-5
21480.468750; 9.61234E-5
21486.328125; 9.07840E-5
21492.187500; 9.18566E-5
21498.046875; 9.54157E-5
21503.906250; 1.00750E-4
21509.765625; 9.35226E-5
21515.625000; 9.16089E-5
21521.484375; 9.54615E-5
21527.343750; 8.52063E-5
21533.203125; 9.30145E-5
21539.062500; 9.04054E-5
21544.921875; 8.97596E-5
21550.781250; 9.10749E-5
21556.640625; 9.48130E-5
21562.500000; 9.80515E-5
21568.359375; 9.42575E-5
21574.218750; 1.02705E-4
21580.078125; 9.38826E-5
21585.937500; 9.17406E-5
21591.796875; 9.35704E-5
21597.656250; 8.94138E-5
21603.515625; 8.70331E-5
21609.375000; 8.57535E-5
21615.234375; 8.61180E-5
21621.093750; 8.97057E-5
21626.953125; 8.13412E-5
21632.812500; 9.41878E-5
21638.671875; 9.13843E-5
21644.531250; 8.74473E-5
21650.390625; 1.01408E-4
21656.250000; 9.37343E-5
21662.109375; 9.85208E-5
21667.968750; 9.29459E-5
21673.828125; 8.55599E-5
21679.687500; 8.53893E-5
21685.546875; 9.39620E-5
21691.406250; 9.45718E-5
21697.265625; 9.19477E-5
21703.125000; 8.61487E-5
21708.984375; 8.68986E-5
21714.843750; 9.33872E-5
21720.703125; 9.97181E-5
21726.562500; 1.02713E-4
21732.421875; 1.10967E-4
21738.281250; 1.03666E-4
21744.140625; 9.55871E-5
21750.000000; 9.70473E-5
21755.859375; 8.78363E-5
21761.718750; 1.03309E-4
21767.578125; 1.04454E-4
21773.437500; 9.78611E-5
21779.296875; 9.84847E-5
21785.156250; 1.01113E-4
21791.015625; 1.05204E-4
21796.875000; 8.86421E-5
21802.734375; 8.21855E-5
21808.593750; 9.43921E-5
21814.453125; 9.62865E-5
21820.312500; 9.52112E-5
21826.171875; 9.98930E-5
21832.031250; 1.03320E-4
21837.890625; 9.45811E-5
21843.750000; 8.53521E-5
21849.609375; 9.37277E-5
21855.468750; 8.86339E-5
21861.328125; 8.69464E-5
21867.187500; 9.39557E-5
21873.046875; 9.87800E-5
21878.906250; 8.76115E-5
21884.765625; 8.78855E-5
21890.625000; 9.41001E-5
21896.484375; 1.03761E-4
21902.343750; 8.95587E-5
21908.203125; 8.71734E-5
21914.062500; 9.11527E-5
21919.921875; 1.00255E-4
21925.781250; 1.01547E-4
21931.640625; 9.62349E-5
21937.500000; 9.61998E-5
21943.359375; 9.62065E-5
21949.218750; 8.86660E-5
21955.078125; 9.15193E-5
21960.937500; 8.60702E-5
21966.796875; 1.01349E-4
21972.656250; 9.63059E-5
21978.515625; 9.00386E-5
21984.375000; 8.85581E-5
21990.234375; 8.49245E-5
21996.093750; 8.15578E-5
22001.953125; 9.24516E-5
22007.812500; 8.60283E-5
22013.671875; 9.15980E-5
22019.531250; 9.10212E-5
22025.390625; 1.02426E-4
22031.250000; 1.00801E-4
22037.109375; 9.00910E-5
22042.968750; 9.28803E-5
22048.828125; 9.77256E-5
22054.687500; 9.98272E-5
22060.546875; 9.77368E-5
22066.406250; 9.40599E-5
22072.265625; 9.01550E-5
22078.125000; 8.98962E-5
22083.984375; 8.81089E-5
22089.843750; 8.79191E-5
22095.703125; 8.64780E-5
22101.562500; 9.20153E-5
22107.421875; 8.91774E-5
22113.281250; 9.48059E-5
22119.140625; 9.47631E-5
22125.000000; 9.79310E-5
22130.859375; 8.74994E-5
22136.718750; 8.70088E-5
22142.578125; 9.42204E-5
22148.437500; 8.63494E-5
22154.296875; 8.19164E-5
22160.156250; 8.91058E-5
22166.015625; 8.73245E-5
22171.875000; 8.28460E-5
22177.734375; 8.86979E-5
22183.593750; 9.47489E-5
22189.453125; 1.04339E-4
22195.312500; 1.04991E-4
22201.171875; 9.51631E-5
22207.031250; 9.93859E-5
22212.890625; 1.01228E-4
22218.750000; 1.02638E-4
22224.609375; 1.07709E-4
22230.468750; 1.03811E-4
22236.328125; 1.02004E-4
22242.187500; 1.00420E-4
22248.046875; 9.17680E-5
22253.906250; 9.27501E-5
22259.765625; 9.23916E-5
22265.625000; 8.69194E-5
22271.484375; 9.07133E-5
22277.343750; 8.84678E-5
22283.203125; 9.01353E-5
22289.062500; 1.02176E-4
22294.921875; 9.28613E-5
22300.781250; 8.22672E-5
22306.640625; 9.53489E-5
22312.500000; 8.57409E-5
22318.359375; 8.34301E-5
22324.218750; 9.84580E-5
22330.078125; 9.56885E-5
22335.937500; 8.47807E-5
22341.796875; 9.56404E-5
22347.656250; 1.03711E-4
22353.515625; 9.20907E-5
22359.375000; 8.57996E-5
22365.234375; 8.70017E-5
22371.093750; 8.24468E-5
22376.953125; 7.83772E-5
22382.812500; 8.73838E-5
22388.671875; 9.15405E-5
22394.531250; 9.57829E-5
22400.390625; 8.71367E-5
22406.250000; 8.71563E-5
22412.109375; 8.82540E-5
22417.968750; 9.93379E-5
22423.828125; 9.44228E-5
22429.687500; 9.04634E-5
22435.546875; 9.19641E-5
22441.406250; 8.57341E-5
22447.265625; 8.39087E-5
22453.125000; 9.05710E-5
22458.984375; 9.40628E-5
22464.843750; 9.01739E-5
22470.703125; 8.56432E-5
22476.562500; 9.17857E-5
22482.421875; 9.17990E-5
22488.281250; 9.46559E-5
22494.140625; 9.60261E-5
22500.000000; 9.07131E-5
22505.859375; 9.03351E-5
22511.718750; 8.66003E-5
22517.578125; 8.92526E-5
22523.437500; 8.76730E-5
22529.296875; 8.24552E-5
22535.156250; 8.74135E-5
22541.015625; 7.88486E-5
22546.875000; 8.62168E-5
22552.734375; 9.00717E-5
22558.593750; 8.89326E-5
22564.453125; 9.01746E-5
22570.312500; 9.43176E-5
22576.171875; 8.96193E-5
22582.031250; 8.71515E-5
22587.890625; 9.02138E-5
22593.750000; 9.75175E-5
22599.609375; 1.02705E-4
22605.468750; 9.41015E-5
22611.328125; 8.92492E-5
22617.187500; 8.37944E-5
22623.046875; 8.27980E-5
22628.906250; 8.17535E-5
22634.765625; 7.69688E-5
22640.625000; 7.41800E-5
22646.484375; 7.78887E-5
22652.343750; 8.28427E-5
22658.203125; 9.10104E-5
22664.062500; 9.35970E-5
22669.921875; 8.47923E-5
22675.781250; 8.04619E-5
22681.640625; 8.46751E-5
22687.500000; 8.33865E-5
22693.359375; 8.64321E-5
22699.218750; 8.82197E-5
22705.078125; 9.58565E-5
22710.937500; 9.07794E-5
22716.796875; 8.50826E-5
22722.656250; 8.28888E-5
22728.515625; 8.07188E-5
22734.375000; 8.70056E-5
22740.234375; 9.18239E-5
22746.093750; 8.98063E-5
22751.953125; 8.05338E-5
22757.812500; 8.68861E-5
22763.671875; 7.86952E-5
22769.531250; 7.58587E-5
22775.390625; 7.62363E-5
22781.250000; 7.78886E-5
22787.109375; 9.30018E-5
22792.968750; 9.18441E-5
22798.828125; 8.11414E-5
22804.687500; 7.93255E-5
22810.546875; 8.54648E-5
22816.406250; 7.67977E-5
22822.265625; 7.04808E-5
22828.125000; 7.61945E-5
22833.984375; 6.63777E-5
22839.843750; 7.50525E-5
22845.703125; 7.44264E-5
22851.562500; 7.61952E-5
22857.421875; 7.68269E-5
22863.281250; 7.42090E-5
22869.140625; 8.61910E-5
22875.000000; 8.75051E-5
22880.859375; 8.40803E-5
22886.718750; 7.98302E-5
22892.578125; 8.09271E-5
22898.437500; 8.34933E-5
22904.296875; 7.22772E-5
22910.156250; 7.40391E-5
22916.015625; 8.04945E-5
22921.875000; 7.42298E-5
22927.734375; 6.50562E-5
22933.593750; 6.75374E-5
22939.453125; 6.96964E-5
22945.312500; 6.99740E-5
22951.171875; 7.56110E-5
22957.031250; 8.00742E-5
22962.890625; 7.42997E-5
22968.750000; 6.73819E-5
22974.609375; 7.40641E-5
22980.468750; 7.48753E-5
22986.328125; 6.95003E-5
22992.187500; 6.81844E-5
22998.046875; 7.08817E-5
23003.906250; 7.42910E-5
23009.765625; 6.92997E-5
23015.625000; 7.03039E-5
23021.484375; 7.23655E-5
23027.343750; 7.47265E-5
23033.203125; 8.08583E-5
23039.062500; 7.36174E-5
23044.921875; 7.11141E-5
23050.781250; 7.42352E-5
23056.640625; 7.08712E-5
23062.500000; 7.38560E-5
23068.359375; 7.10018E-5
23074.218750; 6.73484E-5
23080.078125; 7.39452E-5
23085.937500; 7.23670E-5
23091.796875; 7.35629E-5
23097.656250; 7.04386E-5
23103.515625; 6.61191E-5
23109.375000; 7.02028E-5
23115.234375; 6.89593E-5
23121.093750; 5.91344E-5
23126.953125; 6.42408E-5
23132.812500; 6.58171E-5
23138.671875; 6.66468E-5
23144.531250; 6.37307E-5
23150.390625; 6.58313E-5
23156.250000; 6.74592E-5
23162.109375; 6.42794E-5
23167.968750; 6.51091E-5
23173.828125; 6.20650E-5
23179.687500; 6.16675E-5
23185.546875; 6.20989E-5
23191.406250; 6.70887E-5
23197.265625; 6.58014E-5
23203.125000; 6.15349E-5
23208.984375; 5.80420E-5
23214.843750; 5.92077E-5
23220.703125; 6.02755E-5
23226.562500; 6.63698E-5
23232.421875; 6.58945E-5
23238.281250; 6.25551E-5
23244.140625; 6.01038E-5
23250.000000; 6.28309E-5
23255.859375; 6.27616E-5
23261.718750; 5.88630E-5
23267.578125; 5.50695E-5
23273.437500; 5.09302E-5
23279.296875; 5.29976E-5
23285.156250; 5.79906E-5
23291.015625; 5.85238E-5
23296.875000; 5.67351E-5
23302.734375; 5.82104E-5
23308.593750; 6.21350E-5
23314.453125; 6.36780E-5
23320.312500; 5.73922E-5
23326.171875; 5.56696E-5
23332.031250; 5.10957E-5
23337.890625; 5.01993E-5
23343.750000; 5.80125E-5
23349.609375; 6.11906E-5
23355.468750; 6.12099E-5
23361.328125; 5.96976E-5
23367.187500; 6.01111E-5
23373.046875; 5.81089E-5
23378.906250; 5.67045E-5
23384.765625; 4.90691E-5
23390.625000; 5.08943E-5
23396.484375; 4.99300E-5
23402.343750; 5.21415E-5
23408.203125; 5.41671E-5
23414.062500; 5.09291E-5
23419.921875; 5.14684E-5
23425.781250; 4.51173E-5
23431.640625; 5.04581E-5
23437.500000; 5.28500E-5
23443.359375; 4.64090E-5
23449.218750; 4.68173E-5
23455.078125; 5.03792E-5
23460.937500; 4.93857E-5
23466.796875; 5.18410E-5
23472.656250; 5.08523E-5
23478.515625; 4.69667E-5
23484.375000; 4.63931E-5
23490.234375; 4.54495E-5
23496.093750; 4.55680E-5
23501.953125; 4.95432E-5
23507.812500; 4.79870E-5
23513.671875; 4.45910E-5
23519.531250; 4.51329E-5
23525.390625; 4.29855E-5
23531.250000; 4.46189E-5
23537.109375; 4.29405E-5
23542.968750; 4.47364E-5
23548.828125; 4.92144E-5
23554.687500; 4.54141E-5
23560.546875; 4.28124E-5
23566.406250; 4.51090E-5
23572.265625; 4.54179E-5
23578.125000; 4.24336E-5
23583.984375; 3.86434E-5
23589.843750; 4.02651E-5
23595.703125; 4.40980E-5
23601.562500; 4.39894E-5
23607.421875; 4.43504E-5
23613.281250; 3.86411E-5
23619.140625; 4.03938E-5
23625.000000; 4.16137E-5
23630.859375; 4.37185E-5
23636.718750; 4.48716E-5
23642.578125; 4.33045E-5
23648.437500; 3.76982E-5
23654.296875; 4.14162E-5
23660.156250; 3.86272E-5
23666.015625; 3.51293E-5
23671.875000; 3.75587E-5
23677.734375; 4.03352E-5
23683.593750; 4.04121E-5
23689.453125; 4.05545E-5
23695.312500; 3.48921E-5
23701.171875; 3.81904E-5
23707.031250; 3.98462E-5
23712.890625; 3.70901E-5
23718.750000; 3.67524E-5
23724.609375; 3.32576E-5
23730.468750; 3.33879E-5
23736.328125; 3.92749E-5
23742.187500; 3.58300E-5
23748.046875; 3.64709E-5
23753.906250; 3.65537E-5
23759.765625; 3.22096E-5
23765.625000; 3.66075E-5
23771.484375; 3.44061E-5
23777.343750; 3.67438E-5
23783.203125; 4.06314E-5
23789.062500; 3.63844E-5
23794.921875; 3.69995E-5
23800.781250; 3.66276E-5
23806.640625; 3.49763E-5
23812.500000; 3.66058E-5
23818.359375; 3.64280E-5
23824.218750; 3.77969E-5
23830.078125; 3.32496E-5
23835.937500; 3.24243E-5
23841.796875; 3.31562E-5
23847.656250; 3.65938E-5
23853.515625; 3.56673E-5
23859.375000; 3.23590E-5
23865.234375; 3.35943E-5
23871.093750; 3.75163E-5
23876.953125; 3.46939E-5
23882.812500; 3.18313E-5
23888.671875; 3.40407E-5
23894.531250; 3.37053E-5
23900.390625; 3.14875E-5
23906.250000; 2.90093E-5
23912.109375; 3.28566E-5
23917.968750; 3.50393E-5
23923.828125; 3.34018E-5
23929.687500; 3.49204E-5
23935.546875; 3.58205E-5
23941.406250; 3.45760E-5
23947.265625; 3.40792E-5
23953.125000; 3.50962E-5
23958.984375; 3.16579E-5
23964.843750; 3.41464E-5
23970.703125; 3.23309E-5
23976.562500; 3.21842E-5
23982.421875; 3.27798E-5
23988.281250; 3.29401E-5
23994.140625; 3.41839E-5
