* Measurement data measured by REW V5.31.3
* Source: PCM: default, no input selected, 2, volume: no control
* Format: 8192-point spectrum using Hann window and exponential averaging 0.97 
* Dated: Mar 9, 2025 1:10:04 PM
* REW Settings:
*  C-weighting compensation: Off
*  Target level: 75.0 dB
* Note: OSDEHA MU-OUTPUT; 8192-point spectrum using Hann window and exponential averaging 0.97  Input RMS 1.779 V 1.779 VC, 1.779 VA 1.779 V 22 - 22k UNW 959.5 uV >22k Distortion at 1,000.0 Hz, -35.00 dBFS: Gain: 29.68 dB THD: 0.028 % based on 21 harmonics  [0..22800 Hz] HHD: 0.022 %  [10 .. 22] N: 0.80 %  [0..22800 Hz] N+D: 4.397 mV A THD+N: 0.80 %  [0..22800 Hz] SNR: 42.0 dB ENOB: 13.0 bits 2nd harmonic 0.0063 % 155 deg 3rd harmonic 0.0060 % -34 deg 4th harmonic 0.0064 % -148 deg 5th harmonic 0.0062 % -79 deg 6th harmonic 0.0062 % 126 deg 7th harmonic 0.0061 % 34 deg 8th harmonic 0.0062 % 103 deg 9th harmonic 0.0063 % -17 deg 
* Measurement: OSDEHA MU-OUT 1.78V
* Smoothing: None
* Frequency Step: 5.859375 Hz
* Start Frequency: 5.859375 Hz
*
* Freq(Hz); V(V)
5.859375; 2.20241E-4
11.718750; 3.12074E-4
17.578125; 3.23469E-4
23.437500; 2.67938E-4
29.296875; 2.31752E-4
35.156250; 2.17608E-4
41.015625; 2.17893E-4
46.875000; 3.11878E-4
52.734375; 3.38394E-4
58.593750; 2.12413E-4
64.453125; 1.88478E-4
70.312500; 1.66835E-4
76.171875; 1.53324E-4
82.031250; 1.73789E-4
87.890625; 2.13600E-4
93.750000; 5.88002E-3
99.609375; 1.29338E-2
105.468750; 7.07685E-3
111.328125; 2.23854E-4
117.187500; 1.87929E-4
123.046875; 1.53689E-4
128.906250; 1.43674E-4
134.765625; 1.42073E-4
140.625000; 1.69796E-4
146.484375; 1.86777E-4
152.343750; 1.61834E-4
158.203125; 1.56250E-4
164.062500; 1.61896E-4
169.921875; 1.56523E-4
175.781250; 1.46794E-4
181.640625; 1.42615E-4
187.500000; 1.49097E-4
193.359375; 5.77685E-4
199.218750; 1.37586E-3
205.078125; 8.36367E-4
210.937500; 1.47618E-4
216.796875; 1.40426E-4
222.656250; 1.56692E-4
228.515625; 1.53816E-4
234.375000; 1.43676E-4
240.234375; 1.28803E-4
246.093750; 1.37161E-4
251.953125; 1.62557E-4
257.812500; 1.49812E-4
263.671875; 1.50058E-4
269.531250; 1.42372E-4
275.390625; 1.40961E-4
281.250000; 1.39857E-4
287.109375; 1.42292E-4
292.968750; 1.72976E-4
298.828125; 2.96490E-4
304.687500; 2.15404E-4
310.546875; 1.33285E-4
316.406250; 1.36057E-4
322.265625; 1.31276E-4
328.125000; 1.13621E-4
333.984375; 1.12168E-4
339.843750; 1.34215E-4
345.703125; 1.36179E-4
351.562500; 1.27176E-4
357.421875; 1.35338E-4
363.281250; 1.39649E-4
369.140625; 1.28189E-4
375.000000; 1.35285E-4
380.859375; 1.19815E-4
386.718750; 1.11816E-4
392.578125; 1.60681E-4
398.437500; 2.80824E-4
404.296875; 2.12411E-4
410.156250; 1.19901E-4
416.015625; 1.15171E-4
421.875000; 1.21099E-4
427.734375; 1.23272E-4
433.593750; 1.25299E-4
439.453125; 1.24261E-4
445.312500; 1.33588E-4
451.171875; 1.40444E-4
457.031250; 1.26464E-4
462.890625; 1.15063E-4
468.750000; 1.33531E-4
474.609375; 1.21426E-4
480.468750; 1.11422E-4
486.328125; 1.14868E-4
492.187500; 1.21148E-4
498.046875; 1.47045E-4
503.906250; 1.42453E-4
509.765625; 1.15472E-4
515.625000; 1.10343E-4
521.484375; 1.26553E-4
527.343750; 1.24911E-4
533.203125; 1.23554E-4
539.062500; 1.20928E-4
544.921875; 1.16012E-4
550.781250; 1.30314E-4
556.640625; 1.29352E-4
562.500000; 1.24613E-4
568.359375; 1.24822E-4
574.218750; 1.15258E-4
580.078125; 1.17334E-4
585.937500; 1.11608E-4
591.796875; 1.08627E-4
597.656250; 1.29333E-4
603.515625; 1.20752E-4
609.375000; 1.13872E-4
615.234375; 1.23641E-4
621.093750; 1.16847E-4
626.953125; 1.13213E-4
632.812500; 1.21495E-4
638.671875; 1.25972E-4
644.531250; 1.29118E-4
650.390625; 1.16193E-4
656.250000; 1.14863E-4
662.109375; 1.17065E-4
667.968750; 1.32934E-4
673.828125; 1.22594E-4
679.687500; 1.07822E-4
685.546875; 1.08214E-4
691.406250; 1.08844E-4
697.265625; 1.16559E-4
703.125000; 1.09625E-4
708.984375; 1.24637E-4
714.843750; 1.22567E-4
720.703125; 1.14774E-4
726.562500; 1.18729E-4
732.421875; 1.25152E-4
738.281250; 1.30508E-4
744.140625; 1.24673E-4
750.000000; 1.19823E-4
755.859375; 1.20199E-4
761.718750; 1.22648E-4
767.578125; 1.16968E-4
773.437500; 1.16318E-4
779.296875; 1.18556E-4
785.156250; 1.11082E-4
791.015625; 1.12377E-4
796.875000; 1.08897E-4
802.734375; 1.24759E-4
808.593750; 1.27102E-4
814.453125; 1.13284E-4
820.312500; 1.17467E-4
826.171875; 1.18831E-4
832.031250; 1.20605E-4
837.890625; 1.23136E-4
843.750000; 1.16246E-4
849.609375; 1.18545E-4
855.468750; 1.19721E-4
861.328125; 1.15944E-4
867.187500; 1.26868E-4
873.046875; 1.27838E-4
878.906250; 1.32211E-4
884.765625; 1.39433E-4
890.625000; 1.33071E-4
896.484375; 1.39450E-4
902.343750; 1.80801E-4
908.203125; 1.75130E-4
914.062500; 1.84542E-4
919.921875; 2.22585E-4
925.781250; 2.73026E-4
931.640625; 3.26621E-4
937.500000; 4.28433E-4
943.359375; 5.59684E-4
949.218750; 7.70496E-4
955.078125; 1.11848E-3
960.937500; 1.69307E-3
966.796875; 2.78288E-3
972.656250; 5.05958E-3
978.515625; 1.07554E-2
984.375000; 3.00815E-2
990.234375; 1.65511E-1
996.093750; 1.32402E0
1001.953125; 1.65502E0
1007.812500; 4.72865E-1
1013.671875; 4.72797E-2
1019.531250; 1.45596E-2
1025.390625; 6.35402E-3
1031.250000; 3.36157E-3
1037.109375; 1.98786E-3
1042.968750; 1.26323E-3
1048.828125; 8.70551E-4
1054.687500; 6.12185E-4
1060.546875; 4.67085E-4
1066.406250; 3.71158E-4
1072.265625; 2.88558E-4
1078.125000; 2.33641E-4
1083.984375; 1.97377E-4
1089.843750; 1.81789E-4
1095.703125; 1.53546E-4
1101.562500; 1.61896E-4
1107.421875; 1.40239E-4
1113.281250; 1.37504E-4
1119.140625; 1.32643E-4
1125.000000; 1.38063E-4
1130.859375; 1.21085E-4
1136.718750; 1.16568E-4
1142.578125; 1.12322E-4
1148.437500; 1.23407E-4
1154.296875; 1.15337E-4
1160.156250; 1.04571E-4
1166.015625; 1.14473E-4
1171.875000; 1.18802E-4
1177.734375; 1.16444E-4
1183.593750; 1.12127E-4
1189.453125; 1.11478E-4
1195.312500; 1.23601E-4
1201.171875; 1.21201E-4
1207.031250; 1.24191E-4
1212.890625; 1.17154E-4
1218.750000; 1.17787E-4
1224.609375; 1.17971E-4
1230.468750; 1.25154E-4
1236.328125; 1.22241E-4
1242.187500; 1.22656E-4
1248.046875; 1.27299E-4
1253.906250; 1.24812E-4
1259.765625; 1.11362E-4
1265.625000; 1.19087E-4
1271.484375; 1.18304E-4
1277.343750; 1.02874E-4
1283.203125; 1.12844E-4
1289.062500; 1.23227E-4
1294.921875; 1.19589E-4
1300.781250; 1.23120E-4
1306.640625; 1.17260E-4
1312.500000; 1.10557E-4
1318.359375; 1.15064E-4
1324.218750; 1.09633E-4
1330.078125; 1.13377E-4
1335.937500; 1.08571E-4
1341.796875; 1.15378E-4
1347.656250; 1.14622E-4
1353.515625; 1.13728E-4
1359.375000; 1.19238E-4
1365.234375; 1.24503E-4
1371.093750; 1.25122E-4
1376.953125; 1.20753E-4
1382.812500; 1.16266E-4
1388.671875; 1.17852E-4
1394.531250; 1.17416E-4
1400.390625; 1.17586E-4
1406.250000; 1.17673E-4
1412.109375; 1.09149E-4
1417.968750; 1.03480E-4
1423.828125; 1.05144E-4
1429.687500; 1.06456E-4
1435.546875; 1.09390E-4
1441.406250; 1.10836E-4
1447.265625; 1.10045E-4
1453.125000; 1.16030E-4
1458.984375; 1.12352E-4
1464.843750; 1.17723E-4
1470.703125; 1.04762E-4
1476.562500; 9.82864E-5
1482.421875; 1.09811E-4
1488.281250; 1.14073E-4
1494.140625; 1.21276E-4
1500.000000; 1.21088E-4
1505.859375; 1.19788E-4
1511.718750; 1.15112E-4
1517.578125; 1.06341E-4
1523.437500; 1.03641E-4
1529.296875; 1.06908E-4
1535.156250; 1.15697E-4
1541.015625; 1.09847E-4
1546.875000; 1.06486E-4
1552.734375; 1.22247E-4
1558.593750; 1.13892E-4
1564.453125; 1.10993E-4
1570.312500; 1.11947E-4
1576.171875; 1.13498E-4
1582.031250; 1.10215E-4
1587.890625; 1.19282E-4
1593.750000; 1.11486E-4
1599.609375; 1.11551E-4
1605.468750; 1.19400E-4
1611.328125; 1.15430E-4
1617.187500; 1.14395E-4
1623.046875; 1.21507E-4
1628.906250; 1.21421E-4
1634.765625; 1.12685E-4
1640.625000; 1.25375E-4
1646.484375; 1.23487E-4
1652.343750; 1.19658E-4
1658.203125; 1.27985E-4
1664.062500; 1.20968E-4
1669.921875; 1.10812E-4
1675.781250; 1.10138E-4
1681.640625; 1.13713E-4
1687.500000; 1.07885E-4
1693.359375; 1.16887E-4
1699.218750; 1.30127E-4
1705.078125; 1.25361E-4
1710.937500; 1.21741E-4
1716.796875; 1.21614E-4
1722.656250; 1.07214E-4
1728.515625; 1.00716E-4
1734.375000; 1.09603E-4
1740.234375; 1.11552E-4
1746.093750; 1.13170E-4
1751.953125; 9.99654E-5
1757.812500; 1.16326E-4
1763.671875; 1.25435E-4
1769.531250; 1.24979E-4
1775.390625; 1.25745E-4
1781.250000; 1.14029E-4
1787.109375; 1.04922E-4
1792.968750; 1.09002E-4
1798.828125; 1.06095E-4
1804.687500; 1.15426E-4
1810.546875; 1.18973E-4
1816.406250; 1.12853E-4
1822.265625; 1.10813E-4
1828.125000; 1.15457E-4
1833.984375; 1.17315E-4
1839.843750; 1.17529E-4
1845.703125; 1.16564E-4
1851.562500; 1.09914E-4
1857.421875; 1.14161E-4
1863.281250; 1.07690E-4
1869.140625; 1.05115E-4
1875.000000; 1.04695E-4
1880.859375; 1.05386E-4
1886.718750; 1.08971E-4
1892.578125; 1.15260E-4
1898.437500; 1.22938E-4
1904.296875; 1.23035E-4
1910.156250; 1.11318E-4
1916.015625; 1.25173E-4
1921.875000; 1.25942E-4
1927.734375; 1.17301E-4
1933.593750; 1.01456E-4
1939.453125; 9.30572E-5
1945.312500; 1.06837E-4
1951.171875; 1.05542E-4
1957.031250; 1.00682E-4
1962.890625; 1.15062E-4
1968.750000; 1.23815E-4
1974.609375; 1.11780E-4
1980.468750; 1.06589E-4
1986.328125; 1.12349E-4
1992.187500; 1.09594E-4
1998.046875; 1.01566E-4
2003.906250; 1.18139E-4
2009.765625; 1.22735E-4
2015.625000; 1.14912E-4
2021.484375; 1.08665E-4
2027.343750; 1.16137E-4
2033.203125; 1.20862E-4
2039.062500; 1.17516E-4
2044.921875; 9.88630E-5
2050.781250; 1.06109E-4
2056.640625; 1.03434E-4
2062.500000; 1.03780E-4
2068.359375; 1.04698E-4
2074.218750; 1.07331E-4
2080.078125; 1.13858E-4
2085.937500; 1.17957E-4
2091.796875; 1.03932E-4
2097.656250; 1.10748E-4
2103.515625; 1.11428E-4
2109.375000; 1.23982E-4
2115.234375; 1.19693E-4
2121.093750; 1.12715E-4
2126.953125; 1.10255E-4
2132.812500; 1.07583E-4
2138.671875; 1.14090E-4
2144.531250; 1.09650E-4
2150.390625; 1.02365E-4
2156.250000; 1.00824E-4
2162.109375; 9.85371E-5
2167.968750; 1.04759E-4
2173.828125; 1.15318E-4
2179.687500; 1.17739E-4
2185.546875; 1.21977E-4
2191.406250; 1.18698E-4
2197.265625; 1.14530E-4
2203.125000; 1.13807E-4
2208.984375; 1.20933E-4
2214.843750; 1.08653E-4
2220.703125; 1.26307E-4
2226.562500; 1.16012E-4
2232.421875; 1.07529E-4
2238.281250; 1.13966E-4
2244.140625; 1.06695E-4
2250.000000; 1.16463E-4
2255.859375; 1.21267E-4
2261.718750; 1.16169E-4
2267.578125; 1.15829E-4
2273.437500; 1.15410E-4
2279.296875; 1.00552E-4
2285.156250; 1.02977E-4
2291.015625; 1.06386E-4
2296.875000; 1.07661E-4
2302.734375; 1.07857E-4
2308.593750; 1.08604E-4
2314.453125; 1.12278E-4
2320.312500; 1.22298E-4
2326.171875; 1.08178E-4
2332.031250; 9.99966E-5
2337.890625; 1.09160E-4
2343.750000; 1.06578E-4
2349.609375; 1.10816E-4
2355.468750; 1.15907E-4
2361.328125; 1.08820E-4
2367.187500; 1.01645E-4
2373.046875; 1.04475E-4
2378.906250; 1.16958E-4
2384.765625; 1.00402E-4
2390.625000; 1.06201E-4
2396.484375; 1.14929E-4
2402.343750; 1.14456E-4
2408.203125; 1.08892E-4
2414.062500; 1.10802E-4
2419.921875; 1.13679E-4
2425.781250; 1.16561E-4
2431.640625; 1.13792E-4
2437.500000; 1.15506E-4
2443.359375; 1.13260E-4
2449.218750; 1.24833E-4
2455.078125; 1.18668E-4
2460.937500; 1.10334E-4
2466.796875; 1.13465E-4
2472.656250; 1.14709E-4
2478.515625; 1.21874E-4
2484.375000; 1.26835E-4
2490.234375; 1.27872E-4
2496.093750; 1.24421E-4
2501.953125; 1.10958E-4
2507.812500; 9.94817E-5
2513.671875; 1.05738E-4
2519.531250; 1.21429E-4
2525.390625; 1.14963E-4
2531.250000; 9.88760E-5
2537.109375; 9.95116E-5
2542.968750; 1.14897E-4
2548.828125; 1.25282E-4
2554.687500; 1.16486E-4
2560.546875; 1.08145E-4
2566.406250; 1.13028E-4
2572.265625; 1.06730E-4
2578.125000; 1.09816E-4
2583.984375; 1.09751E-4
2589.843750; 1.16576E-4
2595.703125; 1.22021E-4
2601.562500; 1.12253E-4
2607.421875; 1.11380E-4
2613.281250; 1.09322E-4
2619.140625; 1.08676E-4
2625.000000; 1.07579E-4
2630.859375; 1.00898E-4
2636.718750; 9.91085E-5
2642.578125; 9.55317E-5
2648.437500; 1.18527E-4
2654.296875; 1.17365E-4
2660.156250; 1.11350E-4
2666.015625; 1.03473E-4
2671.875000; 1.11532E-4
2677.734375; 1.04697E-4
2683.593750; 1.14577E-4
2689.453125; 1.09203E-4
2695.312500; 1.10241E-4
2701.171875; 1.02931E-4
2707.031250; 1.09874E-4
2712.890625; 1.09774E-4
2718.750000; 1.05406E-4
2724.609375; 1.06536E-4
2730.468750; 1.11142E-4
2736.328125; 1.09142E-4
2742.187500; 1.06803E-4
2748.046875; 1.21857E-4
2753.906250; 1.21128E-4
2759.765625; 1.10317E-4
2765.625000; 1.02627E-4
2771.484375; 1.04290E-4
2777.343750; 9.92737E-5
2783.203125; 1.17685E-4
2789.062500; 1.17369E-4
2794.921875; 1.07360E-4
2800.781250; 1.13436E-4
2806.640625; 1.21076E-4
2812.500000; 1.13548E-4
2818.359375; 1.07196E-4
2824.218750; 1.05689E-4
2830.078125; 1.04982E-4
2835.937500; 1.17782E-4
2841.796875; 1.15558E-4
2847.656250; 1.08498E-4
2853.515625; 1.16982E-4
2859.375000; 1.20357E-4
2865.234375; 1.12994E-4
2871.093750; 1.04782E-4
2876.953125; 1.05913E-4
2882.812500; 1.08045E-4
2888.671875; 1.17568E-4
2894.531250; 1.14594E-4
2900.390625; 1.19341E-4
2906.250000; 1.09266E-4
2912.109375; 9.12209E-5
2917.968750; 9.89507E-5
2923.828125; 1.12611E-4
2929.687500; 1.09160E-4
2935.546875; 1.09305E-4
2941.406250; 1.06954E-4
2947.265625; 1.08557E-4
2953.125000; 1.17672E-4
2958.984375; 1.24698E-4
2964.843750; 1.24630E-4
2970.703125; 1.10105E-4
2976.562500; 1.07682E-4
2982.421875; 1.11813E-4
2988.281250; 1.09820E-4
2994.140625; 1.03936E-4
3000.000000; 1.02847E-4
3005.859375; 1.06828E-4
3011.718750; 1.05466E-4
3017.578125; 1.04580E-4
3023.437500; 1.01782E-4
3029.296875; 9.93006E-5
3035.156250; 1.06573E-4
3041.015625; 1.15717E-4
3046.875000; 1.16183E-4
3052.734375; 1.15088E-4
3058.593750; 1.14423E-4
3064.453125; 1.01571E-4
3070.312500; 1.04541E-4
3076.171875; 1.07775E-4
3082.031250; 1.09488E-4
3087.890625; 1.10831E-4
3093.750000; 9.56710E-5
3099.609375; 9.01259E-5
3105.468750; 1.00974E-4
3111.328125; 1.11575E-4
3117.187500; 1.13741E-4
3123.046875; 1.25620E-4
3128.906250; 1.23584E-4
3134.765625; 1.06208E-4
3140.625000; 1.00387E-4
3146.484375; 1.04990E-4
3152.343750; 1.12363E-4
3158.203125; 1.13945E-4
3164.062500; 1.02869E-4
3169.921875; 1.14255E-4
3175.781250; 1.07787E-4
3181.640625; 1.13165E-4
3187.500000; 1.07471E-4
3193.359375; 1.09500E-4
3199.218750; 1.11711E-4
3205.078125; 1.05465E-4
3210.937500; 1.05565E-4
3216.796875; 1.02856E-4
3222.656250; 9.46773E-5
3228.515625; 1.06197E-4
3234.375000; 1.16912E-4
3240.234375; 1.14906E-4
3246.093750; 1.13578E-4
3251.953125; 1.26098E-4
3257.812500; 1.18711E-4
3263.671875; 1.09304E-4
3269.531250; 1.09079E-4
3275.390625; 1.20213E-4
3281.250000; 1.10612E-4
3287.109375; 1.05636E-4
3292.968750; 1.08046E-4
3298.828125; 1.11281E-4
3304.687500; 1.12860E-4
3310.546875; 1.15406E-4
3316.406250; 1.12948E-4
3322.265625; 9.73121E-5
3328.125000; 1.03919E-4
3333.984375; 1.07796E-4
3339.843750; 1.04663E-4
3345.703125; 9.66120E-5
3351.562500; 1.11916E-4
3357.421875; 1.08116E-4
3363.281250; 1.04677E-4
3369.140625; 1.09989E-4
3375.000000; 1.06635E-4
3380.859375; 1.07328E-4
3386.718750; 1.08918E-4
3392.578125; 1.10745E-4
3398.437500; 1.17123E-4
3404.296875; 1.16315E-4
3410.156250; 1.15907E-4
3416.015625; 1.06820E-4
3421.875000; 1.12300E-4
3427.734375; 1.15724E-4
3433.593750; 1.16733E-4
3439.453125; 1.14677E-4
3445.312500; 1.11216E-4
3451.171875; 1.13692E-4
3457.031250; 1.16649E-4
3462.890625; 1.05917E-4
3468.750000; 1.04102E-4
3474.609375; 1.00576E-4
3480.468750; 1.03304E-4
3486.328125; 1.12464E-4
3492.187500; 1.12262E-4
3498.046875; 1.09382E-4
3503.906250; 1.15090E-4
3509.765625; 1.12130E-4
3515.625000; 1.04070E-4
3521.484375; 1.10488E-4
3527.343750; 1.23680E-4
3533.203125; 1.20996E-4
3539.062500; 1.14626E-4
3544.921875; 1.06622E-4
3550.781250; 1.02798E-4
3556.640625; 9.92141E-5
3562.500000; 1.06356E-4
3568.359375; 1.03328E-4
3574.218750; 1.07638E-4
3580.078125; 1.05425E-4
3585.937500; 1.04187E-4
3591.796875; 1.08869E-4
3597.656250; 1.13428E-4
3603.515625; 1.11286E-4
3609.375000; 1.09056E-4
3615.234375; 1.18055E-4
3621.093750; 1.14989E-4
3626.953125; 1.10703E-4
3632.812500; 1.08255E-4
3638.671875; 1.11267E-4
3644.531250; 1.20190E-4
3650.390625; 1.20020E-4
3656.250000; 1.12218E-4
3662.109375; 1.12551E-4
3667.968750; 1.13617E-4
3673.828125; 1.05388E-4
3679.687500; 1.07332E-4
3685.546875; 1.05999E-4
3691.406250; 1.13600E-4
3697.265625; 1.02216E-4
3703.125000; 1.10036E-4
3708.984375; 1.06433E-4
3714.843750; 1.07049E-4
3720.703125; 1.07016E-4
3726.562500; 1.12248E-4
3732.421875; 1.10831E-4
3738.281250; 1.13295E-4
3744.140625; 1.13695E-4
3750.000000; 1.14745E-4
3755.859375; 9.95674E-5
3761.718750; 9.63245E-5
3767.578125; 1.01582E-4
3773.437500; 1.06369E-4
3779.296875; 1.06847E-4
3785.156250; 1.19456E-4
3791.015625; 1.16006E-4
3796.875000; 1.03850E-4
3802.734375; 1.13755E-4
3808.593750; 1.16406E-4
3814.453125; 1.07628E-4
3820.312500; 1.14814E-4
3826.171875; 1.03403E-4
3832.031250; 1.07563E-4
3837.890625; 1.07906E-4
3843.750000; 1.05876E-4
3849.609375; 1.06479E-4
3855.468750; 1.17572E-4
3861.328125; 1.19226E-4
3867.187500; 1.19049E-4
3873.046875; 1.01192E-4
3878.906250; 1.08055E-4
3884.765625; 1.11667E-4
3890.625000; 1.12972E-4
3896.484375; 1.09180E-4
3902.343750; 1.06463E-4
3908.203125; 1.10575E-4
3914.062500; 1.14369E-4
3919.921875; 1.10284E-4
3925.781250; 1.03527E-4
3931.640625; 1.12126E-4
3937.500000; 1.08003E-4
3943.359375; 1.18412E-4
3949.218750; 1.09037E-4
3955.078125; 1.08121E-4
3960.937500; 1.15485E-4
3966.796875; 1.17851E-4
3972.656250; 1.07070E-4
3978.515625; 1.08420E-4
3984.375000; 1.09311E-4
3990.234375; 1.09774E-4
3996.093750; 1.13723E-4
4001.953125; 1.17819E-4
4007.812500; 1.17497E-4
4013.671875; 1.19708E-4
4019.531250; 1.07140E-4
4025.390625; 1.09863E-4
4031.250000; 1.12734E-4
4037.109375; 1.08003E-4
4042.968750; 1.03032E-4
4048.828125; 1.06875E-4
4054.687500; 1.03881E-4
4060.546875; 1.14392E-4
4066.406250; 1.05725E-4
4072.265625; 1.04911E-4
4078.125000; 1.05428E-4
4083.984375; 1.03876E-4
4089.843750; 1.05806E-4
4095.703125; 1.07812E-4
4101.562500; 1.16709E-4
4107.421875; 1.12284E-4
4113.281250; 1.11139E-4
4119.140625; 1.06415E-4
4125.000000; 1.08290E-4
4130.859375; 1.10547E-4
4136.718750; 1.12317E-4
4142.578125; 1.18541E-4
4148.437500; 1.16031E-4
4154.296875; 1.11954E-4
4160.156250; 1.11566E-4
4166.015625; 1.10012E-4
4171.875000; 9.90504E-5
4177.734375; 1.02077E-4
4183.593750; 1.07953E-4
4189.453125; 1.02232E-4
4195.312500; 1.01142E-4
4201.171875; 9.96510E-5
4207.031250; 1.07134E-4
4212.890625; 1.10363E-4
4218.750000; 1.11109E-4
4224.609375; 1.07883E-4
4230.468750; 1.12457E-4
4236.328125; 1.22070E-4
4242.187500; 1.13388E-4
4248.046875; 1.12217E-4
4253.906250; 1.10697E-4
4259.765625; 1.06225E-4
4265.625000; 1.01542E-4
4271.484375; 1.05666E-4
4277.343750; 1.20267E-4
4283.203125; 1.24158E-4
4289.062500; 1.11069E-4
4294.921875; 1.12036E-4
4300.781250; 1.07276E-4
4306.640625; 1.01843E-4
4312.500000; 9.52493E-5
4318.359375; 1.02995E-4
4324.218750; 1.09696E-4
4330.078125; 1.05451E-4
4335.937500; 1.15509E-4
4341.796875; 1.23141E-4
4347.656250; 1.05433E-4
4353.515625; 9.95248E-5
4359.375000; 1.07005E-4
4365.234375; 1.05943E-4
4371.093750; 1.06610E-4
4376.953125; 1.15450E-4
4382.812500; 1.11138E-4
4388.671875; 1.08608E-4
4394.531250; 1.13542E-4
4400.390625; 1.15576E-4
4406.250000; 1.07087E-4
4412.109375; 1.04317E-4
4417.968750; 1.08048E-4
4423.828125; 1.08105E-4
4429.687500; 1.15936E-4
4435.546875; 1.12034E-4
4441.406250; 1.07919E-4
4447.265625; 1.17621E-4
4453.125000; 1.12263E-4
4458.984375; 1.06455E-4
4464.843750; 1.03510E-4
4470.703125; 1.08236E-4
4476.562500; 1.08615E-4
4482.421875; 1.21930E-4
4488.281250; 1.21934E-4
4494.140625; 1.12087E-4
4500.000000; 1.10103E-4
4505.859375; 1.03391E-4
4511.718750; 1.10601E-4
4517.578125; 1.05051E-4
4523.437500; 9.09750E-5
4529.296875; 1.09256E-4
4535.156250; 1.08972E-4
4541.015625; 1.14746E-4
4546.875000; 1.18444E-4
4552.734375; 1.11248E-4
4558.593750; 9.97428E-5
4564.453125; 1.01159E-4
4570.312500; 1.09019E-4
4576.171875; 1.07983E-4
4582.031250; 1.07398E-4
4587.890625; 1.11288E-4
4593.750000; 1.03661E-4
4599.609375; 1.09442E-4
4605.468750; 1.06597E-4
4611.328125; 9.45580E-5
4617.187500; 9.72924E-5
4623.046875; 1.08645E-4
4628.906250; 1.15833E-4
4634.765625; 1.18156E-4
4640.625000; 1.21238E-4
4646.484375; 1.05167E-4
4652.343750; 1.05673E-4
4658.203125; 1.06592E-4
4664.062500; 1.01380E-4
4669.921875; 1.09450E-4
4675.781250; 1.11392E-4
4681.640625; 1.09831E-4
4687.500000; 9.81435E-5
4693.359375; 1.00638E-4
4699.218750; 1.18284E-4
4705.078125; 1.13967E-4
4710.937500; 1.17148E-4
4716.796875; 1.18482E-4
4722.656250; 1.00091E-4
4728.515625; 1.09384E-4
4734.375000; 1.16654E-4
4740.234375; 1.07237E-4
4746.093750; 1.01911E-4
4751.953125; 1.05286E-4
4757.812500; 1.29150E-4
4763.671875; 1.16921E-4
4769.531250; 1.03011E-4
4775.390625; 1.20289E-4
4781.250000; 1.15474E-4
4787.109375; 1.07274E-4
4792.968750; 1.02830E-4
4798.828125; 1.11932E-4
4804.687500; 1.12091E-4
4810.546875; 1.04970E-4
4816.406250; 1.08366E-4
4822.265625; 1.16765E-4
4828.125000; 1.06267E-4
4833.984375; 9.99284E-5
4839.843750; 1.08134E-4
4845.703125; 1.05489E-4
4851.562500; 1.12953E-4
4857.421875; 1.10428E-4
4863.281250; 1.07361E-4
4869.140625; 1.07068E-4
4875.000000; 1.15930E-4
4880.859375; 1.09169E-4
4886.718750; 1.08237E-4
4892.578125; 1.04057E-4
4898.437500; 9.92951E-5
4904.296875; 1.01656E-4
4910.156250; 1.09612E-4
4916.015625; 1.16032E-4
4921.875000; 1.02320E-4
4927.734375; 1.05844E-4
4933.593750; 1.11581E-4
4939.453125; 1.17783E-4
4945.312500; 1.03131E-4
4951.171875; 1.04432E-4
4957.031250; 9.54984E-5
4962.890625; 9.96184E-5
4968.750000; 1.17330E-4
4974.609375; 1.23343E-4
4980.468750; 1.17958E-4
4986.328125; 1.11002E-4
4992.187500; 1.03956E-4
4998.046875; 1.06061E-4
5003.906250; 1.05520E-4
5009.765625; 1.09883E-4
5015.625000; 1.13585E-4
5021.484375; 1.10693E-4
5027.343750; 1.03618E-4
5033.203125; 1.07209E-4
5039.062500; 1.05186E-4
5044.921875; 1.12526E-4
5050.781250; 1.04838E-4
5056.640625; 1.11215E-4
5062.500000; 1.09864E-4
5068.359375; 1.15857E-4
5074.218750; 1.11778E-4
5080.078125; 1.14561E-4
5085.937500; 1.24064E-4
5091.796875; 1.02058E-4
5097.656250; 9.42654E-5
5103.515625; 1.06975E-4
5109.375000; 1.14660E-4
5115.234375; 1.07411E-4
5121.093750; 1.02694E-4
5126.953125; 1.02014E-4
5132.812500; 1.01367E-4
5138.671875; 1.02347E-4
5144.531250; 9.84831E-5
5150.390625; 1.09839E-4
5156.250000; 1.15022E-4
5162.109375; 1.09037E-4
5167.968750; 1.09104E-4
5173.828125; 1.06966E-4
5179.687500; 1.00733E-4
5185.546875; 1.02782E-4
5191.406250; 1.05308E-4
5197.265625; 1.06543E-4
5203.125000; 1.10103E-4
5208.984375; 1.11076E-4
5214.843750; 1.08964E-4
5220.703125; 1.00492E-4
5226.562500; 9.92171E-5
5232.421875; 1.05324E-4
5238.281250; 1.11923E-4
5244.140625; 1.17419E-4
5250.000000; 1.21415E-4
5255.859375; 1.10860E-4
5261.718750; 1.12215E-4
5267.578125; 1.10655E-4
5273.437500; 1.01695E-4
5279.296875; 1.11138E-4
5285.156250; 1.07235E-4
5291.015625; 1.02845E-4
5296.875000; 1.01665E-4
5302.734375; 1.11908E-4
5308.593750; 1.04314E-4
5314.453125; 1.04221E-4
5320.312500; 1.16339E-4
5326.171875; 1.19449E-4
5332.031250; 1.17651E-4
5337.890625; 1.19754E-4
5343.750000; 1.10500E-4
5349.609375; 1.08726E-4
5355.468750; 1.09870E-4
5361.328125; 1.01867E-4
5367.187500; 1.04533E-4
5373.046875; 1.08346E-4
5378.906250; 1.20382E-4
5384.765625; 1.13235E-4
5390.625000; 1.00049E-4
5396.484375; 1.05225E-4
5402.343750; 1.15359E-4
5408.203125; 1.18820E-4
5414.062500; 1.15581E-4
5419.921875; 1.20732E-4
5425.781250; 1.19883E-4
5431.640625; 1.26983E-4
5437.500000; 1.16469E-4
5443.359375; 1.06793E-4
5449.218750; 1.26095E-4
5455.078125; 1.20726E-4
5460.937500; 1.03405E-4
5466.796875; 9.87904E-5
5472.656250; 1.09150E-4
5478.515625; 1.04090E-4
5484.375000; 1.20649E-4
5490.234375; 1.26286E-4
5496.093750; 9.42189E-5
5501.953125; 1.02307E-4
5507.812500; 9.99615E-5
5513.671875; 9.48292E-5
5519.531250; 1.03505E-4
5525.390625; 1.10204E-4
5531.250000; 1.05966E-4
5537.109375; 1.09393E-4
5542.968750; 1.13463E-4
5548.828125; 1.08710E-4
5554.687500; 1.05436E-4
5560.546875; 1.11782E-4
5566.406250; 1.15006E-4
5572.265625; 1.15478E-4
5578.125000; 1.13961E-4
5583.984375; 1.03224E-4
5589.843750; 9.74972E-5
5595.703125; 1.12009E-4
5601.562500; 1.13913E-4
5607.421875; 1.11903E-4
5613.281250; 1.12179E-4
5619.140625; 1.08892E-4
5625.000000; 1.09848E-4
5630.859375; 1.12076E-4
5636.718750; 1.05098E-4
5642.578125; 9.56560E-5
5648.437500; 1.01509E-4
5654.296875; 1.14481E-4
5660.156250; 1.09785E-4
5666.015625; 1.17117E-4
5671.875000; 1.13838E-4
5677.734375; 1.08821E-4
5683.593750; 1.13569E-4
5689.453125; 1.09932E-4
5695.312500; 1.11866E-4
5701.171875; 1.06014E-4
5707.031250; 1.07226E-4
5712.890625; 1.15045E-4
5718.750000; 1.11384E-4
5724.609375; 1.04934E-4
5730.468750; 1.07902E-4
5736.328125; 1.21802E-4
5742.187500; 1.22898E-4
5748.046875; 1.18979E-4
5753.906250; 1.07185E-4
5759.765625; 1.06207E-4
5765.625000; 1.17037E-4
5771.484375; 1.15766E-4
5777.343750; 1.10232E-4
5783.203125; 1.02837E-4
5789.062500; 1.09553E-4
5794.921875; 1.03675E-4
5800.781250; 9.77929E-5
5806.640625; 1.00538E-4
5812.500000; 1.01415E-4
5818.359375; 8.84790E-5
5824.218750; 9.85107E-5
5830.078125; 1.04847E-4
5835.937500; 1.05796E-4
5841.796875; 1.14182E-4
5847.656250; 1.15105E-4
5853.515625; 1.15174E-4
5859.375000; 1.09737E-4
5865.234375; 1.12394E-4
5871.093750; 1.05598E-4
5876.953125; 1.11274E-4
5882.812500; 1.02838E-4
5888.671875; 1.01825E-4
5894.531250; 1.01126E-4
5900.390625; 9.74083E-5
5906.250000; 1.03640E-4
5912.109375; 1.07300E-4
5917.968750; 1.06582E-4
5923.828125; 1.07745E-4
5929.687500; 1.07509E-4
5935.546875; 1.14719E-4
5941.406250; 1.16561E-4
5947.265625; 1.08472E-4
5953.125000; 1.05483E-4
5958.984375; 1.09298E-4
5964.843750; 1.14044E-4
5970.703125; 1.10798E-4
5976.562500; 1.19486E-4
5982.421875; 1.26659E-4
5988.281250; 1.14014E-4
5994.140625; 1.04067E-4
6000.000000; 1.09499E-4
6005.859375; 1.04785E-4
6011.718750; 1.07090E-4
6017.578125; 1.05926E-4
6023.437500; 1.04035E-4
6029.296875; 1.11021E-4
6035.156250; 1.02073E-4
6041.015625; 1.14519E-4
6046.875000; 1.10027E-4
6052.734375; 1.09191E-4
6058.593750; 1.01346E-4
6064.453125; 9.56158E-5
6070.312500; 9.82529E-5
6076.171875; 1.08572E-4
6082.031250; 9.73375E-5
6087.890625; 1.02907E-4
6093.750000; 1.02966E-4
6099.609375; 9.69938E-5
6105.468750; 1.06406E-4
6111.328125; 1.14924E-4
6117.187500; 1.12969E-4
6123.046875; 1.08947E-4
6128.906250; 1.10342E-4
6134.765625; 1.08844E-4
6140.625000; 9.88122E-5
6146.484375; 1.01138E-4
6152.343750; 1.04125E-4
6158.203125; 1.08504E-4
6164.062500; 1.11076E-4
6169.921875; 1.14456E-4
6175.781250; 1.04543E-4
6181.640625; 9.87763E-5
6187.500000; 1.04265E-4
6193.359375; 1.00094E-4
6199.218750; 1.07348E-4
6205.078125; 1.12926E-4
6210.937500; 1.12571E-4
6216.796875; 1.17211E-4
6222.656250; 1.06521E-4
6228.515625; 9.88254E-5
6234.375000; 9.75677E-5
6240.234375; 9.91673E-5
6246.093750; 9.98167E-5
6251.953125; 1.03738E-4
6257.812500; 9.89664E-5
6263.671875; 9.54639E-5
6269.531250; 1.04084E-4
6275.390625; 1.06688E-4
6281.250000; 1.13160E-4
6287.109375; 1.17552E-4
6292.968750; 1.16223E-4
6298.828125; 1.13592E-4
6304.687500; 1.05990E-4
6310.546875; 1.07678E-4
6316.406250; 1.16589E-4
6322.265625; 1.30947E-4
6328.125000; 1.18228E-4
6333.984375; 1.08901E-4
6339.843750; 1.13705E-4
6345.703125; 1.08918E-4
6351.562500; 1.08449E-4
6357.421875; 1.07948E-4
6363.281250; 1.09342E-4
6369.140625; 1.08527E-4
6375.000000; 1.14047E-4
6380.859375; 1.17785E-4
6386.718750; 1.17521E-4
6392.578125; 1.13277E-4
6398.437500; 1.11468E-4
6404.296875; 1.05570E-4
6410.156250; 1.10549E-4
6416.015625; 1.11111E-4
6421.875000; 1.06283E-4
6427.734375; 9.88575E-5
6433.593750; 1.12524E-4
6439.453125; 1.18730E-4
6445.312500; 1.10828E-4
6451.171875; 1.09210E-4
6457.031250; 1.12560E-4
6462.890625; 1.13838E-4
6468.750000; 1.11562E-4
6474.609375; 1.10856E-4
6480.468750; 1.12036E-4
6486.328125; 1.04694E-4
6492.187500; 1.01248E-4
6498.046875; 1.02693E-4
6503.906250; 1.13245E-4
6509.765625; 1.23654E-4
6515.625000; 1.24576E-4
6521.484375; 1.09642E-4
6527.343750; 1.07275E-4
6533.203125; 9.91151E-5
6539.062500; 1.08512E-4
6544.921875; 1.06629E-4
6550.781250; 1.00407E-4
6556.640625; 1.02294E-4
6562.500000; 1.08370E-4
6568.359375; 1.12217E-4
6574.218750; 1.16533E-4
6580.078125; 1.11945E-4
6585.937500; 1.12952E-4
6591.796875; 1.19212E-4
6597.656250; 1.24279E-4
6603.515625; 1.22790E-4
6609.375000; 1.14539E-4
6615.234375; 1.15068E-4
6621.093750; 1.06574E-4
6626.953125; 1.04026E-4
6632.812500; 1.13310E-4
6638.671875; 1.17904E-4
6644.531250; 1.13272E-4
6650.390625; 1.02392E-4
6656.250000; 1.11380E-4
6662.109375; 1.17833E-4
6667.968750; 1.15574E-4
6673.828125; 1.17588E-4
6679.687500; 1.05710E-4
6685.546875; 1.10812E-4
6691.406250; 1.08125E-4
6697.265625; 1.03790E-4
6703.125000; 9.94442E-5
6708.984375; 1.00000E-4
6714.843750; 1.02756E-4
6720.703125; 9.41373E-5
6726.562500; 1.08302E-4
6732.421875; 1.16861E-4
6738.281250; 1.18676E-4
6744.140625; 1.00236E-4
6750.000000; 1.04087E-4
6755.859375; 1.08730E-4
6761.718750; 1.06657E-4
6767.578125; 1.02867E-4
6773.437500; 1.09532E-4
6779.296875; 1.04437E-4
6785.156250; 1.09578E-4
6791.015625; 1.23084E-4
6796.875000; 1.26497E-4
6802.734375; 1.12757E-4
6808.593750; 1.18085E-4
6814.453125; 1.15696E-4
6820.312500; 9.82926E-5
6826.171875; 1.07078E-4
6832.031250; 1.07830E-4
6837.890625; 1.11748E-4
6843.750000; 1.11792E-4
6849.609375; 1.04424E-4
6855.468750; 1.10797E-4
6861.328125; 1.05865E-4
6867.187500; 1.03948E-4
6873.046875; 1.09552E-4
6878.906250; 1.07944E-4
6884.765625; 1.19920E-4
6890.625000; 1.11040E-4
6896.484375; 1.00668E-4
6902.343750; 1.01863E-4
6908.203125; 1.04741E-4
6914.062500; 1.05496E-4
6919.921875; 1.10619E-4
6925.781250; 1.04321E-4
6931.640625; 1.04851E-4
6937.500000; 1.09812E-4
6943.359375; 1.04272E-4
6949.218750; 9.96010E-5
6955.078125; 1.03908E-4
6960.937500; 1.02237E-4
6966.796875; 1.12289E-4
6972.656250; 1.11019E-4
6978.515625; 1.19017E-4
6984.375000; 1.11629E-4
6990.234375; 1.02295E-4
6996.093750; 1.09611E-4
7001.953125; 1.10696E-4
7007.812500; 1.08441E-4
7013.671875; 1.10841E-4
7019.531250; 1.01170E-4
7025.390625; 1.01674E-4
7031.250000; 1.08203E-4
7037.109375; 1.03709E-4
7042.968750; 9.63386E-5
7048.828125; 1.05986E-4
7054.687500; 1.05298E-4
7060.546875; 1.05275E-4
7066.406250; 1.02873E-4
7072.265625; 9.49196E-5
7078.125000; 1.06431E-4
7083.984375; 1.10143E-4
7089.843750; 1.11295E-4
7095.703125; 1.06200E-4
7101.562500; 1.14024E-4
7107.421875; 1.11728E-4
7113.281250; 1.04342E-4
7119.140625; 1.03946E-4
7125.000000; 1.05583E-4
7130.859375; 1.09023E-4
7136.718750; 1.10509E-4
7142.578125; 1.13771E-4
7148.437500; 1.14956E-4
7154.296875; 1.13212E-4
7160.156250; 1.05096E-4
7166.015625; 1.01663E-4
7171.875000; 1.04048E-4
7177.734375; 1.09948E-4
7183.593750; 9.64565E-5
7189.453125; 9.63956E-5
7195.312500; 1.08863E-4
7201.171875; 1.09255E-4
7207.031250; 1.16446E-4
7212.890625; 1.20707E-4
7218.750000; 1.06266E-4
7224.609375; 1.15691E-4
7230.468750; 1.10134E-4
7236.328125; 1.13415E-4
7242.187500; 1.25686E-4
7248.046875; 1.12078E-4
7253.906250; 1.07694E-4
7259.765625; 1.16096E-4
7265.625000; 1.13123E-4
7271.484375; 1.03281E-4
7277.343750; 1.00053E-4
7283.203125; 1.10407E-4
7289.062500; 1.11074E-4
7294.921875; 1.16643E-4
7300.781250; 1.17764E-4
7306.640625; 1.11427E-4
7312.500000; 1.08046E-4
7318.359375; 1.06164E-4
7324.218750; 9.90132E-5
7330.078125; 1.02849E-4
7335.937500; 1.00150E-4
7341.796875; 9.75415E-5
7347.656250; 1.07374E-4
7353.515625; 1.10713E-4
7359.375000; 1.10322E-4
7365.234375; 1.09837E-4
7371.093750; 1.13206E-4
7376.953125; 1.14125E-4
7382.812500; 1.00433E-4
7388.671875; 1.00272E-4
7394.531250; 1.04406E-4
7400.390625; 1.14788E-4
7406.250000; 1.08955E-4
7412.109375; 1.01126E-4
7417.968750; 1.05848E-4
7423.828125; 1.07473E-4
7429.687500; 1.10647E-4
7435.546875; 1.04463E-4
7441.406250; 1.05214E-4
7447.265625; 1.13485E-4
7453.125000; 1.10986E-4
7458.984375; 1.12971E-4
7464.843750; 1.16077E-4
7470.703125; 1.06069E-4
7476.562500; 1.03926E-4
7482.421875; 1.24185E-4
7488.281250; 1.27077E-4
7494.140625; 1.14507E-4
7500.000000; 1.11188E-4
7505.859375; 1.12999E-4
7511.718750; 1.06956E-4
7517.578125; 1.05687E-4
7523.437500; 1.03261E-4
7529.296875; 1.04769E-4
7535.156250; 1.06502E-4
7541.015625; 1.05717E-4
7546.875000; 1.06210E-4
7552.734375; 9.38181E-5
7558.593750; 1.07656E-4
7564.453125; 1.00342E-4
7570.312500; 1.02114E-4
7576.171875; 1.04799E-4
7582.031250; 1.08581E-4
7587.890625; 1.15063E-4
7593.750000; 1.03247E-4
7599.609375; 1.07611E-4
7605.468750; 1.12640E-4
7611.328125; 1.00835E-4
7617.187500; 1.01917E-4
7623.046875; 1.00636E-4
7628.906250; 9.15498E-5
7634.765625; 9.59887E-5
7640.625000; 1.01546E-4
7646.484375; 9.66784E-5
7652.343750; 1.05400E-4
7658.203125; 1.14373E-4
7664.062500; 1.02968E-4
7669.921875; 9.89625E-5
7675.781250; 1.04882E-4
7681.640625; 1.03587E-4
7687.500000; 1.09611E-4
7693.359375; 1.12589E-4
7699.218750; 1.10118E-4
7705.078125; 1.06424E-4
7710.937500; 1.05025E-4
7716.796875; 1.07815E-4
7722.656250; 1.08083E-4
7728.515625; 1.14901E-4
7734.375000; 1.15652E-4
7740.234375; 1.01499E-4
7746.093750; 1.08034E-4
7751.953125; 1.14270E-4
7757.812500; 1.10599E-4
7763.671875; 1.13324E-4
7769.531250; 9.93022E-5
7775.390625; 1.10825E-4
7781.250000; 1.20874E-4
7787.109375; 1.06130E-4
7792.968750; 1.06409E-4
7798.828125; 1.08583E-4
7804.687500; 1.02063E-4
7810.546875; 1.08625E-4
7816.406250; 1.12356E-4
7822.265625; 1.06912E-4
7828.125000; 1.08471E-4
7833.984375; 1.14067E-4
7839.843750; 1.14085E-4
7845.703125; 1.01424E-4
7851.562500; 1.03522E-4
7857.421875; 1.01959E-4
7863.281250; 1.02543E-4
7869.140625; 1.10333E-4
7875.000000; 1.16198E-4
7880.859375; 1.09825E-4
7886.718750; 9.88789E-5
7892.578125; 9.94277E-5
7898.437500; 8.96397E-5
7904.296875; 1.03410E-4
7910.156250; 1.12938E-4
7916.015625; 1.12163E-4
7921.875000; 1.03543E-4
7927.734375; 9.22276E-5
7933.593750; 1.04527E-4
7939.453125; 1.18906E-4
7945.312500; 1.04283E-4
7951.171875; 1.10181E-4
7957.031250; 1.19646E-4
7962.890625; 1.13076E-4
7968.750000; 1.03101E-4
7974.609375; 1.04989E-4
7980.468750; 1.07626E-4
7986.328125; 1.22076E-4
7992.187500; 1.17322E-4
7998.046875; 1.11284E-4
8003.906250; 1.03384E-4
8009.765625; 1.07742E-4
8015.625000; 1.03791E-4
8021.484375; 1.11003E-4
8027.343750; 1.05999E-4
8033.203125; 1.10215E-4
8039.062500; 1.09915E-4
8044.921875; 1.02859E-4
8050.781250; 9.43335E-5
8056.640625; 1.04634E-4
8062.500000; 1.14764E-4
8068.359375; 1.12885E-4
8074.218750; 1.15994E-4
8080.078125; 1.21727E-4
8085.937500; 1.14845E-4
8091.796875; 1.04321E-4
8097.656250; 1.15043E-4
8103.515625; 1.09806E-4
8109.375000; 1.04797E-4
8115.234375; 1.03176E-4
8121.093750; 1.03763E-4
8126.953125; 1.00968E-4
8132.812500; 1.12014E-4
8138.671875; 1.13247E-4
8144.531250; 1.14285E-4
8150.390625; 1.01883E-4
8156.250000; 1.05808E-4
8162.109375; 1.10679E-4
8167.968750; 1.08556E-4
8173.828125; 1.10058E-4
8179.687500; 1.20863E-4
8185.546875; 1.22748E-4
8191.406250; 1.12071E-4
8197.265625; 1.19569E-4
8203.125000; 1.20278E-4
8208.984375; 1.04860E-4
8214.843750; 1.07915E-4
8220.703125; 1.06175E-4
8226.562500; 1.03816E-4
8232.421875; 1.20211E-4
8238.281250; 1.14258E-4
8244.140625; 1.04393E-4
8250.000000; 1.03215E-4
8255.859375; 1.05749E-4
8261.718750; 1.01315E-4
8267.578125; 1.04302E-4
8273.437500; 1.02887E-4
8279.296875; 1.08249E-4
8285.156250; 1.17441E-4
8291.015625; 1.09578E-4
8296.875000; 1.10481E-4
8302.734375; 9.72965E-5
8308.593750; 1.00906E-4
8314.453125; 1.07379E-4
8320.312500; 1.03782E-4
8326.171875; 9.87313E-5
8332.031250; 1.09875E-4
8337.890625; 1.16437E-4
8343.750000; 1.02428E-4
8349.609375; 9.74199E-5
8355.468750; 1.01963E-4
8361.328125; 1.02444E-4
8367.187500; 1.07243E-4
8373.046875; 1.01670E-4
8378.906250; 1.11842E-4
8384.765625; 1.03741E-4
8390.625000; 1.03809E-4
8396.484375; 1.07499E-4
8402.343750; 1.16977E-4
8408.203125; 1.11512E-4
8414.062500; 1.12414E-4
8419.921875; 1.21012E-4
8425.781250; 1.09289E-4
8431.640625; 1.07394E-4
8437.500000; 1.11764E-4
8443.359375; 1.13130E-4
8449.218750; 9.82385E-5
8455.078125; 1.00689E-4
8460.937500; 1.06432E-4
8466.796875; 1.08146E-4
8472.656250; 1.02839E-4
8478.515625; 1.13027E-4
8484.375000; 1.15406E-4
8490.234375; 1.05675E-4
8496.093750; 1.06498E-4
8501.953125; 9.82233E-5
8507.812500; 9.88699E-5
8513.671875; 1.15435E-4
8519.531250; 1.16929E-4
8525.390625; 1.12032E-4
8531.250000; 1.11755E-4
8537.109375; 1.08984E-4
8542.968750; 1.12037E-4
8548.828125; 1.07935E-4
8554.687500; 1.00904E-4
8560.546875; 1.10593E-4
8566.406250; 1.05584E-4
8572.265625; 9.91030E-5
8578.125000; 1.00810E-4
8583.984375; 1.01617E-4
8589.843750; 1.01302E-4
8595.703125; 1.02211E-4
8601.562500; 1.12266E-4
8607.421875; 1.18089E-4
8613.281250; 1.21859E-4
8619.140625; 1.14775E-4
8625.000000; 1.03551E-4
8630.859375; 1.03365E-4
8636.718750; 1.03079E-4
8642.578125; 9.63810E-5
8648.437500; 1.04275E-4
8654.296875; 1.09370E-4
8660.156250; 1.18616E-4
8666.015625; 1.17528E-4
8671.875000; 1.07248E-4
8677.734375; 1.01644E-4
8683.593750; 9.20031E-5
8689.453125; 9.35624E-5
8695.312500; 9.87741E-5
8701.171875; 1.09568E-4
8707.031250; 1.08631E-4
8712.890625; 1.06242E-4
8718.750000; 1.19847E-4
8724.609375; 1.14184E-4
8730.468750; 1.03734E-4
8736.328125; 1.03424E-4
8742.187500; 1.09280E-4
8748.046875; 1.16064E-4
8753.906250; 1.05101E-4
8759.765625; 1.07521E-4
8765.625000; 1.00419E-4
8771.484375; 1.01930E-4
8777.343750; 1.07924E-4
8783.203125; 1.11845E-4
8789.062500; 1.17126E-4
8794.921875; 1.09402E-4
8800.781250; 1.10028E-4
8806.640625; 1.04082E-4
8812.500000; 1.12066E-4
8818.359375; 1.11801E-4
8824.218750; 1.14566E-4
8830.078125; 1.24345E-4
8835.937500; 1.08400E-4
8841.796875; 1.07397E-4
8847.656250; 1.05281E-4
8853.515625; 1.03297E-4
8859.375000; 1.10303E-4
8865.234375; 1.06414E-4
8871.093750; 1.10673E-4
8876.953125; 1.05282E-4
8882.812500; 1.09261E-4
8888.671875; 1.00227E-4
8894.531250; 1.03684E-4
8900.390625; 1.11557E-4
8906.250000; 1.03890E-4
8912.109375; 9.63363E-5
8917.968750; 9.87164E-5
8923.828125; 1.08915E-4
8929.687500; 1.10465E-4
8935.546875; 1.04434E-4
8941.406250; 1.09595E-4
8947.265625; 1.09441E-4
8953.125000; 1.07803E-4
8958.984375; 1.13033E-4
8964.843750; 1.09100E-4
8970.703125; 1.04131E-4
8976.562500; 1.15879E-4
8982.421875; 1.22504E-4
8988.281250; 1.24999E-4
8994.140625; 1.09850E-4
9000.000000; 1.16770E-4
9005.859375; 1.04620E-4
9011.718750; 9.62166E-5
9017.578125; 1.10678E-4
9023.437500; 1.00535E-4
9029.296875; 9.69737E-5
9035.156250; 1.03960E-4
9041.015625; 1.10762E-4
9046.875000; 1.14408E-4
9052.734375; 1.15251E-4
9058.593750; 1.08529E-4
9064.453125; 1.17532E-4
9070.312500; 1.09108E-4
9076.171875; 1.06736E-4
9082.031250; 1.10892E-4
9087.890625; 1.06283E-4
9093.750000; 1.04756E-4
9099.609375; 1.13638E-4
9105.468750; 1.13902E-4
9111.328125; 1.00473E-4
9117.187500; 1.12944E-4
9123.046875; 1.02669E-4
9128.906250; 1.07933E-4
9134.765625; 1.10470E-4
9140.625000; 1.02526E-4
9146.484375; 9.62352E-5
9152.343750; 1.03741E-4
9158.203125; 1.12988E-4
9164.062500; 1.12344E-4
9169.921875; 1.11631E-4
9175.781250; 1.05391E-4
9181.640625; 1.03055E-4
9187.500000; 1.18947E-4
9193.359375; 1.11694E-4
9199.218750; 1.06413E-4
9205.078125; 1.01633E-4
9210.937500; 1.04412E-4
9216.796875; 9.93146E-5
9222.656250; 1.02773E-4
9228.515625; 1.02630E-4
9234.375000; 1.07778E-4
9240.234375; 1.06934E-4
9246.093750; 1.14512E-4
9251.953125; 1.21533E-4
9257.812500; 1.09473E-4
9263.671875; 1.06984E-4
9269.531250; 1.08665E-4
9275.390625; 1.09553E-4
9281.250000; 1.09847E-4
9287.109375; 1.05791E-4
9292.968750; 1.03437E-4
9298.828125; 1.00904E-4
9304.687500; 9.45035E-5
9310.546875; 9.53664E-5
9316.406250; 9.89496E-5
9322.265625; 9.88419E-5
9328.125000; 9.97609E-5
9333.984375; 1.00561E-4
9339.843750; 1.04424E-4
9345.703125; 1.07001E-4
9351.562500; 1.01398E-4
9357.421875; 1.10869E-4
9363.281250; 1.06928E-4
9369.140625; 1.08068E-4
9375.000000; 1.09766E-4
9380.859375; 1.04675E-4
9386.718750; 1.06844E-4
9392.578125; 1.11549E-4
9398.437500; 1.03310E-4
9404.296875; 1.10466E-4
9410.156250; 1.13207E-4
9416.015625; 1.12410E-4
9421.875000; 1.13182E-4
9427.734375; 9.90484E-5
9433.593750; 1.03202E-4
9439.453125; 1.20964E-4
9445.312500; 1.07774E-4
9451.171875; 9.99435E-5
9457.031250; 1.18775E-4
9462.890625; 1.17959E-4
9468.750000; 1.05355E-4
9474.609375; 1.04668E-4
9480.468750; 1.09088E-4
9486.328125; 1.09506E-4
9492.187500; 1.04807E-4
9498.046875; 1.08839E-4
9503.906250; 1.05072E-4
9509.765625; 1.22621E-4
9515.625000; 1.18727E-4
9521.484375; 1.05114E-4
9527.343750; 1.07807E-4
9533.203125; 1.04873E-4
9539.062500; 1.06816E-4
9544.921875; 1.07491E-4
9550.781250; 9.68372E-5
9556.640625; 9.09623E-5
9562.500000; 1.05717E-4
9568.359375; 1.16894E-4
9574.218750; 1.15130E-4
9580.078125; 1.07801E-4
9585.937500; 1.13726E-4
9591.796875; 1.13271E-4
9597.656250; 1.06621E-4
9603.515625; 1.03366E-4
9609.375000; 9.99617E-5
9615.234375; 9.54473E-5
9621.093750; 1.10912E-4
9626.953125; 1.09584E-4
9632.812500; 9.83938E-5
9638.671875; 1.08558E-4
9644.531250; 1.17338E-4
9650.390625; 1.11729E-4
9656.250000; 1.12033E-4
9662.109375; 1.06635E-4
9667.968750; 9.63987E-5
9673.828125; 9.86854E-5
9679.687500; 1.08661E-4
9685.546875; 1.09505E-4
9691.406250; 1.08605E-4
9697.265625; 1.04570E-4
9703.125000; 1.02611E-4
9708.984375; 1.04935E-4
9714.843750; 1.01905E-4
9720.703125; 1.06536E-4
9726.562500; 9.43566E-5
9732.421875; 9.97346E-5
9738.281250; 1.11494E-4
9744.140625; 1.07599E-4
9750.000000; 1.21978E-4
9755.859375; 1.15092E-4
9761.718750; 9.65813E-5
9767.578125; 1.08242E-4
9773.437500; 1.17867E-4
9779.296875; 1.09557E-4
9785.156250; 1.05666E-4
9791.015625; 1.11003E-4
9796.875000; 1.14248E-4
9802.734375; 1.08568E-4
9808.593750; 1.10614E-4
9814.453125; 1.24601E-4
9820.312500; 1.17655E-4
9826.171875; 1.10689E-4
9832.031250; 1.09965E-4
9837.890625; 1.05716E-4
9843.750000; 1.06624E-4
9849.609375; 9.46328E-5
9855.468750; 9.98991E-5
9861.328125; 1.14597E-4
9867.187500; 1.20444E-4
9873.046875; 1.06341E-4
9878.906250; 9.19847E-5
9884.765625; 9.90494E-5
9890.625000; 1.06982E-4
9896.484375; 1.07642E-4
9902.343750; 1.08239E-4
9908.203125; 9.99167E-5
9914.062500; 1.04831E-4
9919.921875; 1.01866E-4
9925.781250; 1.00678E-4
9931.640625; 1.01066E-4
9937.500000; 1.01751E-4
9943.359375; 1.07108E-4
9949.218750; 1.11086E-4
9955.078125; 1.12294E-4
9960.937500; 1.25662E-4
9966.796875; 1.13539E-4
9972.656250; 1.03720E-4
9978.515625; 9.82003E-5
9984.375000; 1.08180E-4
9990.234375; 1.13555E-4
9996.093750; 1.18194E-4
10001.953125; 1.11124E-4
10007.812500; 9.97970E-5
10013.671875; 1.04095E-4
10019.531250; 1.04940E-4
10025.390625; 9.83588E-5
10031.250000; 9.45449E-5
10037.109375; 1.00035E-4
10042.968750; 1.10790E-4
10048.828125; 1.14377E-4
10054.687500; 1.03107E-4
10060.546875; 1.02738E-4
10066.406250; 1.01668E-4
10072.265625; 1.05807E-4
10078.125000; 1.02347E-4
10083.984375; 1.07053E-4
10089.843750; 1.13062E-4
10095.703125; 1.15409E-4
10101.562500; 1.14862E-4
10107.421875; 1.06116E-4
10113.281250; 1.03590E-4
10119.140625; 9.54428E-5
10125.000000; 1.02966E-4
10130.859375; 1.06894E-4
10136.718750; 1.09458E-4
10142.578125; 1.08389E-4
10148.437500; 9.23710E-5
10154.296875; 9.58722E-5
10160.156250; 1.06120E-4
10166.015625; 1.15000E-4
10171.875000; 1.19807E-4
10177.734375; 1.08147E-4
10183.593750; 1.00527E-4
10189.453125; 1.05846E-4
10195.312500; 1.01875E-4
10201.171875; 1.12019E-4
10207.031250; 1.05297E-4
10212.890625; 1.06499E-4
10218.750000; 1.02211E-4
10224.609375; 1.03792E-4
10230.468750; 1.09460E-4
10236.328125; 1.17129E-4
10242.187500; 1.15895E-4
10248.046875; 1.17770E-4
10253.906250; 1.07923E-4
10259.765625; 9.68053E-5
10265.625000; 9.50477E-5
10271.484375; 1.05018E-4
10277.343750; 1.07779E-4
10283.203125; 1.00237E-4
10289.062500; 1.02160E-4
10294.921875; 1.00509E-4
10300.781250; 9.76148E-5
10306.640625; 1.09242E-4
10312.500000; 1.13413E-4
10318.359375; 1.14462E-4
10324.218750; 1.06749E-4
10330.078125; 1.00289E-4
10335.937500; 1.08624E-4
10341.796875; 1.12931E-4
10347.656250; 1.10021E-4
10353.515625; 1.05465E-4
10359.375000; 1.08136E-4
10365.234375; 1.00282E-4
10371.093750; 9.32984E-5
10376.953125; 9.67081E-5
10382.812500; 9.87686E-5
10388.671875; 1.11346E-4
10394.531250; 1.10604E-4
10400.390625; 1.05238E-4
10406.250000; 1.07889E-4
10412.109375; 1.03376E-4
10417.968750; 1.02622E-4
10423.828125; 1.09239E-4
10429.687500; 1.07202E-4
10435.546875; 1.12408E-4
10441.406250; 1.02903E-4
10447.265625; 9.74421E-5
10453.125000; 1.12344E-4
10458.984375; 1.19225E-4
10464.843750; 1.23185E-4
10470.703125; 1.09265E-4
10476.562500; 1.03025E-4
10482.421875; 1.07608E-4
10488.281250; 1.06094E-4
10494.140625; 1.06839E-4
10500.000000; 1.10793E-4
10505.859375; 1.12583E-4
10511.718750; 1.01415E-4
10517.578125; 9.77663E-5
10523.437500; 1.01839E-4
10529.296875; 9.92624E-5
10535.156250; 9.83507E-5
10541.015625; 1.03616E-4
10546.875000; 1.03608E-4
10552.734375; 1.09006E-4
10558.593750; 1.07036E-4
10564.453125; 1.07058E-4
10570.312500; 1.11540E-4
10576.171875; 1.12714E-4
10582.031250; 1.06573E-4
10587.890625; 1.12232E-4
10593.750000; 1.09892E-4
10599.609375; 9.53350E-5
10605.468750; 1.05615E-4
10611.328125; 1.08719E-4
10617.187500; 1.06641E-4
10623.046875; 1.11213E-4
10628.906250; 1.11997E-4
10634.765625; 1.05335E-4
10640.625000; 1.05220E-4
10646.484375; 1.07042E-4
10652.343750; 1.06728E-4
10658.203125; 1.08318E-4
10664.062500; 1.07868E-4
10669.921875; 1.02016E-4
10675.781250; 9.93871E-5
10681.640625; 1.01713E-4
10687.500000; 1.08158E-4
10693.359375; 1.07504E-4
10699.218750; 1.00892E-4
10705.078125; 1.10981E-4
10710.937500; 1.04294E-4
10716.796875; 1.01718E-4
10722.656250; 1.03071E-4
10728.515625; 1.01189E-4
10734.375000; 9.58786E-5
10740.234375; 1.07362E-4
10746.093750; 1.07396E-4
10751.953125; 1.14538E-4
10757.812500; 1.14747E-4
10763.671875; 1.10806E-4
10769.531250; 1.08937E-4
10775.390625; 1.11633E-4
10781.250000; 1.03973E-4
10787.109375; 9.69377E-5
10792.968750; 1.08023E-4
10798.828125; 1.02211E-4
10804.687500; 1.04216E-4
10810.546875; 1.07530E-4
10816.406250; 1.13957E-4
10822.265625; 1.10161E-4
10828.125000; 1.12352E-4
10833.984375; 1.13197E-4
10839.843750; 1.17983E-4
10845.703125; 1.11808E-4
10851.562500; 1.12506E-4
10857.421875; 1.01451E-4
10863.281250; 1.01319E-4
10869.140625; 1.03202E-4
10875.000000; 1.13974E-4
10880.859375; 1.11061E-4
10886.718750; 1.06159E-4
10892.578125; 1.01608E-4
10898.437500; 1.03606E-4
10904.296875; 1.11181E-4
10910.156250; 1.12359E-4
10916.015625; 1.00785E-4
10921.875000; 9.72559E-5
10927.734375; 9.97556E-5
10933.593750; 1.17309E-4
10939.453125; 1.21137E-4
10945.312500; 1.14041E-4
10951.171875; 1.11174E-4
10957.031250; 1.11121E-4
10962.890625; 1.03959E-4
10968.750000; 1.09849E-4
10974.609375; 1.15610E-4
10980.468750; 1.12723E-4
10986.328125; 1.10820E-4
10992.187500; 9.85436E-5
10998.046875; 1.00439E-4
11003.906250; 1.06721E-4
11009.765625; 1.06128E-4
11015.625000; 1.11960E-4
11021.484375; 1.13099E-4
11027.343750; 1.02933E-4
11033.203125; 1.00660E-4
11039.062500; 1.17190E-4
11044.921875; 1.19674E-4
11050.781250; 1.07026E-4
11056.640625; 9.04310E-5
11062.500000; 9.80069E-5
11068.359375; 1.05272E-4
11074.218750; 1.09630E-4
11080.078125; 1.04057E-4
11085.937500; 9.71002E-5
11091.796875; 1.00638E-4
11097.656250; 1.03573E-4
11103.515625; 1.10382E-4
11109.375000; 1.09890E-4
11115.234375; 9.99610E-5
11121.093750; 1.01183E-4
11126.953125; 1.09924E-4
11132.812500; 1.09816E-4
11138.671875; 9.80185E-5
11144.531250; 1.08786E-4
11150.390625; 1.10711E-4
11156.250000; 1.05517E-4
11162.109375; 1.14378E-4
11167.968750; 1.06293E-4
11173.828125; 1.07432E-4
11179.687500; 1.04423E-4
11185.546875; 1.04902E-4
11191.406250; 1.06181E-4
11197.265625; 1.09141E-4
11203.125000; 1.10878E-4
11208.984375; 1.13771E-4
11214.843750; 1.00145E-4
11220.703125; 9.57861E-5
11226.562500; 1.00562E-4
11232.421875; 1.01880E-4
11238.281250; 1.08552E-4
11244.140625; 1.05559E-4
11250.000000; 9.47759E-5
11255.859375; 1.05668E-4
11261.718750; 1.08407E-4
11267.578125; 1.05479E-4
11273.437500; 1.11394E-4
11279.296875; 9.70459E-5
11285.156250; 1.05086E-4
11291.015625; 9.69098E-5
11296.875000; 1.01328E-4
11302.734375; 9.87464E-5
11308.593750; 1.10519E-4
11314.453125; 1.23731E-4
11320.312500; 1.04451E-4
11326.171875; 9.63413E-5
11332.031250; 1.09349E-4
11337.890625; 1.00703E-4
11343.750000; 1.01141E-4
11349.609375; 1.02482E-4
11355.468750; 1.10719E-4
11361.328125; 1.08621E-4
11367.187500; 1.05222E-4
11373.046875; 9.67471E-5
11378.906250; 1.14437E-4
11384.765625; 1.21308E-4
11390.625000; 1.20041E-4
11396.484375; 1.11764E-4
11402.343750; 1.03130E-4
11408.203125; 1.01999E-4
11414.062500; 1.00696E-4
11419.921875; 9.76109E-5
11425.781250; 1.10565E-4
11431.640625; 1.16758E-4
11437.500000; 1.16292E-4
11443.359375; 1.15389E-4
11449.218750; 1.07465E-4
11455.078125; 1.12048E-4
11460.937500; 1.16357E-4
11466.796875; 1.01778E-4
11472.656250; 1.09248E-4
11478.515625; 1.05530E-4
11484.375000; 1.19996E-4
11490.234375; 1.20444E-4
11496.093750; 1.27383E-4
11501.953125; 1.28666E-4
11507.812500; 1.22375E-4
11513.671875; 1.07699E-4
11519.531250; 1.15970E-4
11525.390625; 1.07110E-4
11531.250000; 1.08834E-4
11537.109375; 1.06152E-4
11542.968750; 1.07320E-4
11548.828125; 1.03458E-4
11554.687500; 9.85821E-5
11560.546875; 9.31718E-5
11566.406250; 1.01884E-4
11572.265625; 1.05600E-4
11578.125000; 1.01371E-4
11583.984375; 1.06419E-4
11589.843750; 1.24471E-4
11595.703125; 1.19642E-4
11601.562500; 1.12345E-4
11607.421875; 1.08435E-4
11613.281250; 1.00661E-4
11619.140625; 1.10015E-4
11625.000000; 1.03819E-4
11630.859375; 9.95382E-5
11636.718750; 1.08008E-4
11642.578125; 1.13485E-4
11648.437500; 1.09048E-4
11654.296875; 1.09024E-4
11660.156250; 1.05064E-4
11666.015625; 1.04924E-4
11671.875000; 1.15969E-4
11677.734375; 1.20199E-4
11683.593750; 1.02762E-4
11689.453125; 9.44590E-5
11695.312500; 1.08749E-4
11701.171875; 1.11700E-4
11707.031250; 1.12483E-4
11712.890625; 9.45516E-5
11718.750000; 9.41438E-5
11724.609375; 9.80506E-5
11730.468750; 9.93544E-5
11736.328125; 1.17007E-4
11742.187500; 1.12584E-4
11748.046875; 9.65264E-5
11753.906250; 1.11028E-4
11759.765625; 1.01657E-4
11765.625000; 1.00950E-4
11771.484375; 9.54678E-5
11777.343750; 1.04591E-4
11783.203125; 1.06351E-4
11789.062500; 9.17785E-5
11794.921875; 9.47058E-5
11800.781250; 1.06788E-4
11806.640625; 1.01397E-4
11812.500000; 1.04200E-4
11818.359375; 9.88409E-5
11824.218750; 9.45002E-5
11830.078125; 1.04584E-4
11835.937500; 9.69434E-5
11841.796875; 1.07703E-4
11847.656250; 1.02700E-4
11853.515625; 1.02719E-4
11859.375000; 1.04337E-4
11865.234375; 1.11102E-4
11871.093750; 1.23052E-4
11876.953125; 1.11059E-4
11882.812500; 9.82691E-5
11888.671875; 1.07771E-4
11894.531250; 1.07292E-4
11900.390625; 1.01622E-4
11906.250000; 1.08203E-4
11912.109375; 1.00239E-4
11917.968750; 9.48475E-5
11923.828125; 9.54968E-5
11929.687500; 9.65319E-5
11935.546875; 9.25895E-5
11941.406250; 9.83758E-5
11947.265625; 1.08622E-4
11953.125000; 1.00052E-4
11958.984375; 9.98248E-5
11964.843750; 1.02532E-4
11970.703125; 1.12089E-4
11976.562500; 1.13522E-4
11982.421875; 1.04317E-4
11988.281250; 1.07252E-4
11994.140625; 1.02148E-4
12000.000000; 1.06112E-4
12005.859375; 1.04756E-4
12011.718750; 1.03485E-4
12017.578125; 1.01629E-4
12023.437500; 1.08016E-4
12029.296875; 1.15355E-4
12035.156250; 1.04124E-4
12041.015625; 1.09300E-4
12046.875000; 9.76530E-5
12052.734375; 9.75630E-5
12058.593750; 1.05401E-4
12064.453125; 1.12427E-4
12070.312500; 1.15436E-4
12076.171875; 1.12507E-4
12082.031250; 1.04859E-4
12087.890625; 1.00679E-4
12093.750000; 9.72581E-5
12099.609375; 1.00401E-4
12105.468750; 1.09658E-4
12111.328125; 1.20574E-4
12117.187500; 1.12347E-4
12123.046875; 9.38448E-5
12128.906250; 1.03216E-4
12134.765625; 1.06280E-4
12140.625000; 1.16411E-4
12146.484375; 1.04935E-4
12152.343750; 1.06169E-4
12158.203125; 1.12129E-4
12164.062500; 1.14603E-4
12169.921875; 1.22837E-4
12175.781250; 1.15870E-4
12181.640625; 1.03871E-4
12187.500000; 1.08028E-4
12193.359375; 1.13094E-4
12199.218750; 1.04461E-4
12205.078125; 9.78823E-5
12210.937500; 9.00811E-5
12216.796875; 9.77696E-5
12222.656250; 1.15696E-4
12228.515625; 1.06354E-4
12234.375000; 1.06739E-4
12240.234375; 1.10263E-4
12246.093750; 1.12040E-4
12251.953125; 1.02865E-4
12257.812500; 9.32651E-5
12263.671875; 1.05318E-4
12269.531250; 1.13761E-4
12275.390625; 1.11899E-4
12281.250000; 1.01787E-4
12287.109375; 9.72503E-5
12292.968750; 1.04410E-4
12298.828125; 1.15450E-4
12304.687500; 1.15649E-4
12310.546875; 1.09558E-4
12316.406250; 1.14543E-4
12322.265625; 1.04941E-4
12328.125000; 1.14295E-4
12333.984375; 1.08109E-4
12339.843750; 9.84730E-5
12345.703125; 1.02559E-4
12351.562500; 1.03600E-4
12357.421875; 1.05930E-4
12363.281250; 1.05990E-4
12369.140625; 1.01307E-4
12375.000000; 9.32460E-5
12380.859375; 9.74947E-5
12386.718750; 1.12993E-4
12392.578125; 1.20897E-4
12398.437500; 1.14123E-4
12404.296875; 1.14007E-4
12410.156250; 1.13553E-4
12416.015625; 1.09557E-4
12421.875000; 1.00904E-4
12427.734375; 1.06832E-4
12433.593750; 1.16712E-4
12439.453125; 1.11198E-4
12445.312500; 1.03595E-4
12451.171875; 1.12474E-4
12457.031250; 1.08615E-4
12462.890625; 1.00006E-4
12468.750000; 1.01313E-4
12474.609375; 1.00449E-4
12480.468750; 1.12481E-4
12486.328125; 1.08713E-4
12492.187500; 1.09869E-4
12498.046875; 1.09783E-4
12503.906250; 1.20195E-4
12509.765625; 1.13210E-4
12515.625000; 1.17406E-4
12521.484375; 1.07777E-4
12527.343750; 1.08611E-4
12533.203125; 1.20532E-4
12539.062500; 1.17066E-4
12544.921875; 1.14826E-4
12550.781250; 1.13977E-4
12556.640625; 1.13703E-4
12562.500000; 1.07541E-4
12568.359375; 9.48518E-5
12574.218750; 1.01457E-4
12580.078125; 1.13635E-4
12585.937500; 1.02634E-4
12591.796875; 9.89008E-5
12597.656250; 1.05045E-4
12603.515625; 1.06702E-4
12609.375000; 1.06269E-4
12615.234375; 1.04058E-4
12621.093750; 1.11222E-4
12626.953125; 1.06818E-4
12632.812500; 1.04767E-4
12638.671875; 1.13856E-4
12644.531250; 1.11923E-4
12650.390625; 1.01102E-4
12656.250000; 9.23254E-5
12662.109375; 1.05452E-4
12667.968750; 1.02284E-4
12673.828125; 1.13212E-4
12679.687500; 1.11953E-4
12685.546875; 1.11907E-4
12691.406250; 1.04568E-4
12697.265625; 1.03852E-4
12703.125000; 1.03419E-4
12708.984375; 1.13433E-4
12714.843750; 1.02178E-4
12720.703125; 1.01483E-4
12726.562500; 1.11358E-4
12732.421875; 1.08751E-4
12738.281250; 1.16588E-4
12744.140625; 1.21520E-4
12750.000000; 1.23654E-4
12755.859375; 1.12172E-4
12761.718750; 1.11467E-4
12767.578125; 1.10758E-4
12773.437500; 9.99416E-5
12779.296875; 1.06167E-4
12785.156250; 1.06115E-4
12791.015625; 1.03033E-4
12796.875000; 1.12292E-4
12802.734375; 1.15771E-4
12808.593750; 1.11482E-4
12814.453125; 1.02862E-4
12820.312500; 1.02961E-4
12826.171875; 1.11771E-4
12832.031250; 1.11845E-4
12837.890625; 1.12331E-4
12843.750000; 1.08064E-4
12849.609375; 1.01374E-4
12855.468750; 1.06034E-4
12861.328125; 1.18483E-4
12867.187500; 1.07102E-4
12873.046875; 1.09037E-4
12878.906250; 1.02610E-4
12884.765625; 9.50393E-5
12890.625000; 1.06147E-4
12896.484375; 1.12064E-4
12902.343750; 1.16995E-4
12908.203125; 1.13966E-4
12914.062500; 1.09645E-4
12919.921875; 1.05562E-4
12925.781250; 1.05850E-4
12931.640625; 1.08480E-4
12937.500000; 9.45682E-5
12943.359375; 9.53769E-5
12949.218750; 1.10520E-4
12955.078125; 1.13349E-4
12960.937500; 1.03704E-4
12966.796875; 1.05826E-4
12972.656250; 1.14867E-4
12978.515625; 1.08773E-4
12984.375000; 1.13578E-4
12990.234375; 1.07422E-4
12996.093750; 1.04302E-4
13001.953125; 1.02835E-4
13007.812500; 1.14852E-4
13013.671875; 1.17542E-4
13019.531250; 1.10480E-4
13025.390625; 1.09087E-4
13031.250000; 1.05079E-4
13037.109375; 1.06775E-4
13042.968750; 1.10514E-4
13048.828125; 1.01640E-4
13054.687500; 9.96567E-5
13060.546875; 1.04712E-4
13066.406250; 1.16227E-4
13072.265625; 1.06636E-4
13078.125000; 1.06503E-4
13083.984375; 1.12953E-4
13089.843750; 1.25577E-4
13095.703125; 1.03494E-4
13101.562500; 9.68726E-5
13107.421875; 9.99202E-5
13113.281250; 1.04889E-4
13119.140625; 1.18456E-4
13125.000000; 1.12500E-4
13130.859375; 1.11506E-4
13136.718750; 1.09970E-4
13142.578125; 1.04434E-4
13148.437500; 1.00251E-4
13154.296875; 1.10664E-4
13160.156250; 1.07785E-4
13166.015625; 9.40173E-5
13171.875000; 9.75675E-5
13177.734375; 9.62606E-5
13183.593750; 9.52159E-5
13189.453125; 1.05723E-4
13195.312500; 1.09588E-4
13201.171875; 1.10693E-4
13207.031250; 1.10772E-4
13212.890625; 1.08886E-4
13218.750000; 1.06185E-4
13224.609375; 1.08511E-4
13230.468750; 1.03504E-4
13236.328125; 9.02951E-5
13242.187500; 9.74164E-5
13248.046875; 1.08677E-4
13253.906250; 1.11488E-4
13259.765625; 9.97745E-5
13265.625000; 1.06902E-4
13271.484375; 1.15695E-4
13277.343750; 1.09190E-4
13283.203125; 1.04411E-4
13289.062500; 1.02470E-4
13294.921875; 9.38716E-5
13300.781250; 9.98013E-5
13306.640625; 1.07529E-4
13312.500000; 1.06724E-4
13318.359375; 1.08219E-4
13324.218750; 1.13915E-4
13330.078125; 1.00439E-4
13335.937500; 1.02135E-4
13341.796875; 1.07160E-4
13347.656250; 1.07279E-4
13353.515625; 1.17130E-4
13359.375000; 1.11711E-4
13365.234375; 9.70523E-5
13371.093750; 1.10586E-4
13376.953125; 1.13685E-4
13382.812500; 1.07479E-4
13388.671875; 1.04630E-4
13394.531250; 1.15120E-4
13400.390625; 1.21696E-4
13406.250000; 1.03835E-4
13412.109375; 1.04351E-4
13417.968750; 1.06738E-4
13423.828125; 1.17210E-4
13429.687500; 1.20509E-4
13435.546875; 1.10841E-4
13441.406250; 1.09535E-4
13447.265625; 1.07827E-4
13453.125000; 1.04035E-4
13458.984375; 9.45741E-5
13464.843750; 1.04011E-4
13470.703125; 1.02922E-4
13476.562500; 9.56416E-5
13482.421875; 1.07563E-4
13488.281250; 1.21419E-4
13494.140625; 1.22428E-4
13500.000000; 1.13837E-4
13505.859375; 1.01382E-4
13511.718750; 1.03070E-4
13517.578125; 1.04923E-4
13523.437500; 1.05319E-4
13529.296875; 1.10338E-4
13535.156250; 1.06106E-4
13541.015625; 1.01487E-4
13546.875000; 1.08400E-4
13552.734375; 1.11109E-4
13558.593750; 1.03220E-4
13564.453125; 1.06749E-4
13570.312500; 1.05127E-4
13576.171875; 1.03552E-4
13582.031250; 1.05259E-4
13587.890625; 1.09289E-4
13593.750000; 1.16001E-4
13599.609375; 1.01951E-4
13605.468750; 9.74787E-5
13611.328125; 1.12393E-4
13617.187500; 1.10110E-4
13623.046875; 1.09457E-4
13628.906250; 1.12846E-4
13634.765625; 1.07048E-4
13640.625000; 1.13007E-4
13646.484375; 1.04393E-4
13652.343750; 1.01845E-4
13658.203125; 1.01222E-4
13664.062500; 1.02917E-4
13669.921875; 1.14750E-4
13675.781250; 1.10581E-4
13681.640625; 1.00401E-4
13687.500000; 9.23929E-5
13693.359375; 9.55430E-5
13699.218750; 1.10753E-4
13705.078125; 1.12896E-4
13710.937500; 1.05112E-4
13716.796875; 9.92010E-5
13722.656250; 1.10041E-4
13728.515625; 1.09533E-4
13734.375000; 9.93641E-5
13740.234375; 9.97725E-5
13746.093750; 1.09259E-4
13751.953125; 9.88297E-5
13757.812500; 9.92601E-5
13763.671875; 9.84281E-5
13769.531250; 1.10915E-4
13775.390625; 1.10318E-4
13781.250000; 1.11881E-4
13787.109375; 1.17218E-4
13792.968750; 1.23098E-4
13798.828125; 1.10634E-4
13804.687500; 1.00661E-4
13810.546875; 1.00403E-4
13816.406250; 1.10173E-4
13822.265625; 1.21794E-4
13828.125000; 1.13133E-4
13833.984375; 1.04633E-4
13839.843750; 1.12254E-4
13845.703125; 1.04364E-4
13851.562500; 1.05207E-4
13857.421875; 1.00473E-4
13863.281250; 1.00996E-4
13869.140625; 1.05706E-4
13875.000000; 1.05781E-4
13880.859375; 1.00958E-4
13886.718750; 1.10432E-4
13892.578125; 1.16931E-4
13898.437500; 1.08799E-4
13904.296875; 1.07631E-4
13910.156250; 1.07844E-4
13916.015625; 1.06139E-4
13921.875000; 1.06097E-4
13927.734375; 1.13322E-4
13933.593750; 1.08485E-4
13939.453125; 1.11221E-4
13945.312500; 1.11615E-4
13951.171875; 1.07930E-4
13957.031250; 1.01475E-4
13962.890625; 1.08663E-4
13968.750000; 1.24490E-4
13974.609375; 1.08857E-4
13980.468750; 1.07309E-4
13986.328125; 1.19745E-4
13992.187500; 1.08438E-4
13998.046875; 1.02974E-4
14003.906250; 1.08995E-4
14009.765625; 1.15300E-4
14015.625000; 1.06938E-4
14021.484375; 1.01645E-4
14027.343750; 1.02653E-4
14033.203125; 1.02576E-4
14039.062500; 1.02500E-4
14044.921875; 1.06397E-4
14050.781250; 1.11066E-4
14056.640625; 9.94478E-5
14062.500000; 9.36874E-5
14068.359375; 1.02999E-4
14074.218750; 1.03389E-4
14080.078125; 9.73326E-5
14085.937500; 1.12494E-4
14091.796875; 1.06131E-4
14097.656250; 1.07586E-4
14103.515625; 1.15384E-4
14109.375000; 1.09685E-4
14115.234375; 1.09081E-4
14121.093750; 1.04848E-4
14126.953125; 1.07788E-4
14132.812500; 1.05938E-4
14138.671875; 9.47462E-5
14144.531250; 1.12110E-4
14150.390625; 1.12438E-4
14156.250000; 1.12870E-4
14162.109375; 1.20311E-4
14167.968750; 1.13413E-4
14173.828125; 1.06312E-4
14179.687500; 1.15616E-4
14185.546875; 1.02684E-4
14191.406250; 1.01864E-4
14197.265625; 1.04804E-4
14203.125000; 1.06793E-4
14208.984375; 9.62145E-5
14214.843750; 1.01548E-4
14220.703125; 1.00832E-4
14226.562500; 1.06836E-4
14232.421875; 1.05819E-4
14238.281250; 1.11116E-4
14244.140625; 1.19295E-4
14250.000000; 1.16046E-4
14255.859375; 1.00882E-4
14261.718750; 9.86822E-5
14267.578125; 1.00838E-4
14273.437500; 1.00630E-4
14279.296875; 1.01390E-4
14285.156250; 1.03919E-4
14291.015625; 1.09677E-4
14296.875000; 1.21248E-4
14302.734375; 1.09326E-4
14308.593750; 1.09546E-4
14314.453125; 1.14436E-4
14320.312500; 1.15869E-4
14326.171875; 1.05608E-4
14332.031250; 1.09621E-4
14337.890625; 1.19386E-4
14343.750000; 1.14874E-4
14349.609375; 1.12834E-4
14355.468750; 1.05813E-4
14361.328125; 9.28341E-5
14367.187500; 1.06564E-4
14373.046875; 1.06174E-4
14378.906250; 1.05075E-4
14384.765625; 1.03790E-4
14390.625000; 1.01668E-4
14396.484375; 1.02686E-4
14402.343750; 1.03014E-4
14408.203125; 9.43978E-5
14414.062500; 9.51420E-5
14419.921875; 1.03358E-4
14425.781250; 9.27228E-5
14431.640625; 9.98053E-5
14437.500000; 9.84367E-5
14443.359375; 1.00846E-4
14449.218750; 9.68363E-5
14455.078125; 1.04087E-4
14460.937500; 1.07165E-4
14466.796875; 1.12244E-4
14472.656250; 1.22093E-4
14478.515625; 1.13928E-4
14484.375000; 1.12734E-4
14490.234375; 1.17366E-4
14496.093750; 1.19053E-4
14501.953125; 1.18391E-4
14507.812500; 1.05330E-4
14513.671875; 1.05992E-4
14519.531250; 1.03656E-4
14525.390625; 1.06954E-4
14531.250000; 1.12696E-4
14537.109375; 1.12649E-4
14542.968750; 1.11288E-4
14548.828125; 1.18986E-4
14554.687500; 1.08019E-4
14560.546875; 1.02408E-4
14566.406250; 9.70816E-5
14572.265625; 1.05218E-4
14578.125000; 1.07658E-4
14583.984375; 1.06274E-4
14589.843750; 1.13505E-4
14595.703125; 1.06640E-4
14601.562500; 9.94134E-5
14607.421875; 1.12988E-4
14613.281250; 1.17743E-4
14619.140625; 1.03852E-4
14625.000000; 1.03722E-4
14630.859375; 9.65575E-5
14636.718750; 1.02754E-4
14642.578125; 1.03260E-4
14648.437500; 1.08644E-4
14654.296875; 1.07982E-4
14660.156250; 1.15113E-4
14666.015625; 1.14511E-4
14671.875000; 1.16057E-4
14677.734375; 1.19632E-4
14683.593750; 1.10655E-4
14689.453125; 1.03963E-4
14695.312500; 1.09029E-4
14701.171875; 1.15170E-4
14707.031250; 1.08241E-4
14712.890625; 1.09740E-4
14718.750000; 1.05825E-4
14724.609375; 1.11023E-4
14730.468750; 1.14879E-4
14736.328125; 1.05595E-4
14742.187500; 1.01777E-4
14748.046875; 1.06177E-4
14753.906250; 1.01683E-4
14759.765625; 1.02729E-4
14765.625000; 9.50896E-5
14771.484375; 9.93638E-5
14777.343750; 1.15039E-4
14783.203125; 1.06596E-4
14789.062500; 9.67186E-5
14794.921875; 9.72057E-5
14800.781250; 9.93644E-5
14806.640625; 1.05081E-4
14812.500000; 1.09656E-4
14818.359375; 1.04850E-4
14824.218750; 9.85180E-5
14830.078125; 1.11749E-4
14835.937500; 1.08604E-4
14841.796875; 9.96716E-5
14847.656250; 1.09567E-4
14853.515625; 1.14540E-4
14859.375000; 1.09047E-4
14865.234375; 9.86380E-5
14871.093750; 1.00354E-4
14876.953125; 1.07543E-4
14882.812500; 1.05793E-4
14888.671875; 1.12283E-4
14894.531250; 1.09301E-4
14900.390625; 1.03041E-4
14906.250000; 9.69284E-5
14912.109375; 1.00216E-4
14917.968750; 1.10613E-4
14923.828125; 1.07111E-4
14929.687500; 1.09857E-4
14935.546875; 1.07108E-4
14941.406250; 1.09209E-4
14947.265625; 9.89951E-5
14953.125000; 1.00518E-4
14958.984375; 1.10072E-4
14964.843750; 1.02282E-4
14970.703125; 1.04510E-4
14976.562500; 1.04190E-4
14982.421875; 9.87953E-5
14988.281250; 9.51159E-5
14994.140625; 1.04555E-4
15000.000000; 1.16575E-4
15005.859375; 1.03631E-4
15011.718750; 9.85659E-5
15017.578125; 1.02710E-4
15023.437500; 1.04372E-4
15029.296875; 1.06898E-4
15035.156250; 1.06404E-4
15041.015625; 9.82106E-5
15046.875000; 1.03761E-4
15052.734375; 1.00957E-4
15058.593750; 1.07965E-4
15064.453125; 1.13974E-4
15070.312500; 1.07908E-4
15076.171875; 9.34727E-5
15082.031250; 9.40860E-5
15087.890625; 9.06328E-5
15093.750000; 9.12391E-5
15099.609375; 1.13316E-4
15105.468750; 1.11740E-4
15111.328125; 1.06907E-4
15117.187500; 1.14080E-4
15123.046875; 1.10160E-4
15128.906250; 1.13779E-4
15134.765625; 1.11708E-4
15140.625000; 1.13895E-4
15146.484375; 1.12002E-4
15152.343750; 1.27747E-4
15158.203125; 1.19070E-4
15164.062500; 1.02715E-4
15169.921875; 1.06527E-4
15175.781250; 1.06215E-4
15181.640625; 1.06943E-4
15187.500000; 1.13060E-4
15193.359375; 1.17098E-4
15199.218750; 1.07183E-4
15205.078125; 1.13542E-4
15210.937500; 1.13348E-4
15216.796875; 9.48894E-5
15222.656250; 9.80122E-5
15228.515625; 9.73637E-5
15234.375000; 9.83214E-5
15240.234375; 1.08410E-4
15246.093750; 1.00067E-4
15251.953125; 1.00069E-4
15257.812500; 1.12907E-4
15263.671875; 1.16172E-4
15269.531250; 1.11761E-4
15275.390625; 1.16345E-4
15281.250000; 1.16367E-4
15287.109375; 1.04410E-4
15292.968750; 1.05750E-4
15298.828125; 1.18931E-4
15304.687500; 1.17560E-4
15310.546875; 1.11817E-4
15316.406250; 1.13387E-4
15322.265625; 1.09620E-4
15328.125000; 1.10128E-4
15333.984375; 1.11434E-4
15339.843750; 1.07854E-4
15345.703125; 1.06472E-4
15351.562500; 1.05149E-4
15357.421875; 1.06152E-4
15363.281250; 1.15723E-4
15369.140625; 1.07487E-4
15375.000000; 1.02158E-4
15380.859375; 1.04406E-4
15386.718750; 1.10157E-4
15392.578125; 9.54272E-5
15398.437500; 9.79223E-5
15404.296875; 1.05081E-4
15410.156250; 1.04873E-4
15416.015625; 9.91879E-5
15421.875000; 9.01871E-5
15427.734375; 9.93290E-5
15433.593750; 1.11643E-4
15439.453125; 9.88911E-5
15445.312500; 1.08880E-4
15451.171875; 1.11458E-4
15457.031250; 1.11051E-4
15462.890625; 1.06301E-4
15468.750000; 1.05176E-4
15474.609375; 1.00677E-4
15480.468750; 9.61544E-5
15486.328125; 1.02843E-4
15492.187500; 1.08082E-4
15498.046875; 1.03598E-4
15503.906250; 1.06715E-4
15509.765625; 1.12718E-4
15515.625000; 1.14560E-4
15521.484375; 1.08445E-4
15527.343750; 1.08824E-4
15533.203125; 1.04351E-4
15539.062500; 1.05862E-4
15544.921875; 1.02304E-4
15550.781250; 1.11908E-4
15556.640625; 1.07544E-4
15562.500000; 9.49364E-5
15568.359375; 9.90266E-5
15574.218750; 1.03948E-4
15580.078125; 1.07588E-4
15585.937500; 1.16971E-4
15591.796875; 1.13104E-4
15597.656250; 1.06311E-4
15603.515625; 1.08648E-4
15609.375000; 1.05374E-4
15615.234375; 1.09354E-4
15621.093750; 1.05509E-4
15626.953125; 9.91394E-5
15632.812500; 1.00838E-4
15638.671875; 1.00897E-4
15644.531250; 1.02551E-4
15650.390625; 9.93041E-5
15656.250000; 9.41916E-5
15662.109375; 9.89226E-5
15667.968750; 1.07526E-4
15673.828125; 9.37034E-5
15679.687500; 9.85719E-5
15685.546875; 1.13358E-4
15691.406250; 1.17361E-4
15697.265625; 1.18031E-4
15703.125000; 1.09039E-4
15708.984375; 1.12743E-4
15714.843750; 1.07405E-4
15720.703125; 1.13527E-4
15726.562500; 1.08213E-4
15732.421875; 1.07377E-4
15738.281250; 1.09171E-4
15744.140625; 1.05454E-4
15750.000000; 1.05998E-4
15755.859375; 1.12990E-4
15761.718750; 1.18173E-4
15767.578125; 1.08767E-4
15773.437500; 1.02046E-4
15779.296875; 1.01866E-4
15785.156250; 1.09533E-4
15791.015625; 1.08306E-4
15796.875000; 9.66798E-5
15802.734375; 1.10980E-4
15808.593750; 1.12071E-4
15814.453125; 1.03702E-4
15820.312500; 9.76603E-5
15826.171875; 1.06429E-4
15832.031250; 1.14304E-4
15837.890625; 1.10654E-4
15843.750000; 1.09190E-4
15849.609375; 1.13242E-4
15855.468750; 1.14076E-4
15861.328125; 1.08835E-4
15867.187500; 1.16668E-4
15873.046875; 1.15293E-4
15878.906250; 1.12260E-4
15884.765625; 1.03420E-4
15890.625000; 1.05756E-4
15896.484375; 1.05783E-4
15902.343750; 1.14644E-4
15908.203125; 1.18750E-4
15914.062500; 1.05498E-4
15919.921875; 1.00924E-4
15925.781250; 1.04866E-4
15931.640625; 1.02343E-4
15937.500000; 9.69033E-5
15943.359375; 9.85444E-5
15949.218750; 1.17177E-4
15955.078125; 1.11045E-4
15960.937500; 1.13781E-4
15966.796875; 1.14517E-4
15972.656250; 1.12879E-4
15978.515625; 1.03833E-4
15984.375000; 9.52053E-5
15990.234375; 9.82909E-5
15996.093750; 1.10441E-4
16001.953125; 1.05111E-4
16007.812500; 1.00280E-4
16013.671875; 1.05628E-4
16019.531250; 1.07582E-4
16025.390625; 1.09111E-4
16031.250000; 1.12494E-4
16037.109375; 1.04331E-4
16042.968750; 1.06459E-4
16048.828125; 9.83482E-5
16054.687500; 9.96738E-5
16060.546875; 9.45049E-5
16066.406250; 9.14807E-5
16072.265625; 8.83046E-5
16078.125000; 1.07212E-4
16083.984375; 1.07076E-4
16089.843750; 1.07041E-4
16095.703125; 1.10476E-4
16101.562500; 1.03075E-4
16107.421875; 1.03146E-4
16113.281250; 1.15756E-4
16119.140625; 1.04948E-4
16125.000000; 1.08717E-4
16130.859375; 1.13248E-4
16136.718750; 1.12814E-4
16142.578125; 1.10930E-4
16148.437500; 1.04295E-4
16154.296875; 1.03452E-4
16160.156250; 1.03304E-4
16166.015625; 1.05974E-4
16171.875000; 1.05150E-4
16177.734375; 1.05425E-4
16183.593750; 1.08543E-4
16189.453125; 1.14210E-4
16195.312500; 1.11651E-4
16201.171875; 1.01985E-4
16207.031250; 9.73454E-5
16212.890625; 1.03023E-4
16218.750000; 8.98663E-5
16224.609375; 9.10713E-5
16230.468750; 9.61375E-5
16236.328125; 1.10554E-4
16242.187500; 1.11989E-4
16248.046875; 1.09285E-4
16253.906250; 1.07324E-4
16259.765625; 1.20671E-4
16265.625000; 1.19827E-4
16271.484375; 1.02628E-4
16277.343750; 1.08895E-4
16283.203125; 1.05945E-4
16289.062500; 1.03968E-4
16294.921875; 1.08479E-4
16300.781250; 1.05868E-4
16306.640625; 1.14410E-4
16312.500000; 1.02879E-4
16318.359375; 9.90130E-5
16324.218750; 1.07529E-4
16330.078125; 1.01402E-4
16335.937500; 1.07017E-4
16341.796875; 1.11976E-4
16347.656250; 1.11668E-4
16353.515625; 1.15909E-4
16359.375000; 1.06533E-4
16365.234375; 1.08919E-4
16371.093750; 9.99715E-5
16376.953125; 9.64755E-5
16382.812500; 9.97457E-5
16388.671875; 1.01669E-4
16394.531250; 1.07142E-4
16400.390625; 1.14620E-4
16406.250000; 1.04157E-4
16412.109375; 9.38556E-5
16417.968750; 1.02665E-4
16423.828125; 1.07861E-4
16429.687500; 1.00998E-4
16435.546875; 1.00987E-4
16441.406250; 9.95204E-5
16447.265625; 1.12001E-4
16453.125000; 1.15362E-4
16458.984375; 1.12636E-4
16464.843750; 1.07559E-4
16470.703125; 1.05602E-4
16476.562500; 1.08877E-4
16482.421875; 1.04649E-4
16488.281250; 1.04362E-4
16494.140625; 1.15501E-4
16500.000000; 1.13847E-4
16505.859375; 1.05113E-4
16511.718750; 1.05879E-4
16517.578125; 1.09544E-4
16523.437500; 1.04319E-4
16529.296875; 9.91589E-5
16535.156250; 1.07306E-4
16541.015625; 1.02410E-4
16546.875000; 9.54069E-5
16552.734375; 1.06036E-4
16558.593750; 1.04101E-4
16564.453125; 1.01843E-4
16570.312500; 9.60903E-5
16576.171875; 9.47915E-5
16582.031250; 9.71849E-5
16587.890625; 1.05131E-4
16593.750000; 1.08507E-4
16599.609375; 9.62596E-5
16605.468750; 9.51203E-5
16611.328125; 9.51254E-5
16617.187500; 1.12342E-4
16623.046875; 1.08984E-4
16628.906250; 1.01112E-4
16634.765625; 1.06599E-4
16640.625000; 1.01106E-4
16646.484375; 1.06934E-4
16652.343750; 9.83640E-5
16658.203125; 1.02050E-4
16664.062500; 1.05608E-4
16669.921875; 1.04067E-4
16675.781250; 9.93962E-5
16681.640625; 1.08601E-4
16687.500000; 1.14204E-4
16693.359375; 1.06390E-4
16699.218750; 1.09715E-4
16705.078125; 1.03689E-4
16710.937500; 1.03807E-4
16716.796875; 1.02850E-4
16722.656250; 1.18245E-4
16728.515625; 1.16192E-4
16734.375000; 1.06692E-4
16740.234375; 1.07674E-4
16746.093750; 1.09261E-4
16751.953125; 1.07973E-4
16757.812500; 1.02995E-4
16763.671875; 1.01897E-4
16769.531250; 1.01571E-4
16775.390625; 1.09416E-4
16781.250000; 1.14211E-4
16787.109375; 1.16352E-4
16792.968750; 1.17080E-4
16798.828125; 1.09474E-4
16804.687500; 1.07207E-4
16810.546875; 1.11464E-4
16816.406250; 1.05860E-4
16822.265625; 9.99967E-5
16828.125000; 9.86250E-5
16833.984375; 1.05658E-4
16839.843750; 1.04569E-4
16845.703125; 1.10845E-4
16851.562500; 1.08475E-4
16857.421875; 1.15798E-4
16863.281250; 1.10822E-4
16869.140625; 1.05625E-4
16875.000000; 1.05261E-4
16880.859375; 1.05498E-4
16886.718750; 1.06872E-4
16892.578125; 1.04966E-4
16898.437500; 9.96771E-5
16904.296875; 9.88717E-5
16910.156250; 1.08183E-4
16916.015625; 1.03619E-4
16921.875000; 9.70837E-5
16927.734375; 1.00829E-4
16933.593750; 1.07988E-4
16939.453125; 1.09993E-4
16945.312500; 9.77314E-5
16951.171875; 9.55937E-5
16957.031250; 9.08734E-5
16962.890625; 9.85682E-5
16968.750000; 1.06070E-4
16974.609375; 1.02831E-4
16980.468750; 1.13717E-4
16986.328125; 1.10257E-4
16992.187500; 1.07619E-4
16998.046875; 1.10731E-4
17003.906250; 1.05612E-4
17009.765625; 1.06506E-4
17015.625000; 1.13732E-4
17021.484375; 1.17296E-4
17027.343750; 1.12458E-4
17033.203125; 1.08617E-4
17039.062500; 1.09109E-4
17044.921875; 1.02294E-4
17050.781250; 1.01321E-4
17056.640625; 9.29042E-5
17062.500000; 9.79107E-5
17068.359375; 1.01421E-4
17074.218750; 9.16011E-5
17080.078125; 9.84733E-5
17085.937500; 1.00852E-4
17091.796875; 1.03248E-4
17097.656250; 1.02203E-4
17103.515625; 1.14630E-4
17109.375000; 1.15635E-4
17115.234375; 1.10412E-4
17121.093750; 1.03502E-4
17126.953125; 1.00806E-4
17132.812500; 1.05914E-4
17138.671875; 1.14024E-4
17144.531250; 1.15158E-4
17150.390625; 1.12463E-4
17156.250000; 1.04306E-4
17162.109375; 1.01014E-4
17167.968750; 1.02287E-4
17173.828125; 1.08061E-4
17179.687500; 1.13890E-4
17185.546875; 1.08306E-4
17191.406250; 1.01737E-4
17197.265625; 9.93910E-5
17203.125000; 9.61419E-5
17208.984375; 1.06134E-4
17214.843750; 1.06206E-4
17220.703125; 1.01588E-4
17226.562500; 1.01171E-4
17232.421875; 1.12298E-4
17238.281250; 1.16665E-4
17244.140625; 1.11372E-4
17250.000000; 1.06955E-4
17255.859375; 1.04065E-4
17261.718750; 9.61363E-5
17267.578125; 9.86949E-5
17273.437500; 1.10396E-4
17279.296875; 1.10090E-4
17285.156250; 9.50259E-5
17291.015625; 1.01879E-4
17296.875000; 9.57347E-5
17302.734375; 9.70296E-5
17308.593750; 9.76611E-5
17314.453125; 9.50652E-5
17320.312500; 1.06665E-4
17326.171875; 1.09315E-4
17332.031250; 1.10428E-4
17337.890625; 1.11874E-4
17343.750000; 1.12197E-4
17349.609375; 1.00886E-4
17355.468750; 1.08251E-4
17361.328125; 1.13341E-4
17367.187500; 1.05922E-4
17373.046875; 1.05356E-4
17378.906250; 1.11488E-4
17384.765625; 1.08499E-4
17390.625000; 9.68390E-5
17396.484375; 9.73778E-5
17402.343750; 1.06281E-4
17408.203125; 1.14773E-4
17414.062500; 1.08901E-4
17419.921875; 1.15044E-4
17425.781250; 1.05927E-4
17431.640625; 9.96664E-5
17437.500000; 9.85280E-5
17443.359375; 1.16628E-4
17449.218750; 1.12983E-4
17455.078125; 9.41540E-5
17460.937500; 9.41395E-5
17466.796875; 1.09848E-4
17472.656250; 1.01936E-4
17478.515625; 9.94134E-5
17484.375000; 1.06248E-4
17490.234375; 9.07705E-5
17496.093750; 9.14880E-5
17501.953125; 1.00819E-4
17507.812500; 9.89958E-5
17513.671875; 9.65378E-5
17519.531250; 1.05693E-4
17525.390625; 1.11875E-4
17531.250000; 9.68032E-5
17537.109375; 9.77928E-5
17542.968750; 9.95980E-5
17548.828125; 9.39283E-5
17554.687500; 1.04064E-4
17560.546875; 1.17461E-4
17566.406250; 1.18556E-4
17572.265625; 1.15405E-4
17578.125000; 1.06440E-4
17583.984375; 1.06978E-4
17589.843750; 9.99112E-5
17595.703125; 9.69459E-5
17601.562500; 1.03221E-4
17607.421875; 1.11124E-4
17613.281250; 1.10692E-4
17619.140625; 1.02691E-4
17625.000000; 9.76529E-5
17630.859375; 1.00915E-4
17636.718750; 1.06545E-4
17642.578125; 1.11239E-4
17648.437500; 1.07870E-4
17654.296875; 1.09356E-4
17660.156250; 9.94925E-5
17666.015625; 9.36233E-5
17671.875000; 1.04360E-4
17677.734375; 1.13953E-4
17683.593750; 1.05161E-4
17689.453125; 1.02311E-4
17695.312500; 9.28021E-5
17701.171875; 1.03028E-4
17707.031250; 9.84070E-5
17712.890625; 1.04104E-4
17718.750000; 9.76089E-5
17724.609375; 9.06433E-5
17730.468750; 1.01887E-4
17736.328125; 1.11519E-4
17742.187500; 1.05867E-4
17748.046875; 9.89772E-5
17753.906250; 1.04014E-4
17759.765625; 1.00402E-4
17765.625000; 9.33368E-5
17771.484375; 9.80944E-5
17777.343750; 1.05475E-4
17783.203125; 1.03396E-4
17789.062500; 1.13715E-4
17794.921875; 1.11560E-4
17800.781250; 1.14249E-4
17806.640625; 1.11356E-4
17812.500000; 9.96719E-5
17818.359375; 9.73530E-5
17824.218750; 1.02719E-4
17830.078125; 1.03899E-4
17835.937500; 1.03282E-4
17841.796875; 1.05936E-4
17847.656250; 1.02775E-4
17853.515625; 9.86198E-5
17859.375000; 1.07192E-4
17865.234375; 1.02598E-4
17871.093750; 9.28932E-5
17876.953125; 9.61875E-5
17882.812500; 1.05294E-4
17888.671875; 1.06939E-4
17894.531250; 9.87455E-5
17900.390625; 9.57868E-5
17906.250000; 1.00556E-4
17912.109375; 1.10790E-4
17917.968750; 1.06145E-4
17923.828125; 1.06368E-4
17929.687500; 1.03717E-4
17935.546875; 9.34663E-5
17941.406250; 9.85790E-5
17947.265625; 1.00537E-4
17953.125000; 1.11102E-4
17958.984375; 1.14684E-4
17964.843750; 1.14538E-4
17970.703125; 1.03144E-4
17976.562500; 1.06914E-4
17982.421875; 9.87910E-5
17988.281250; 9.39240E-5
17994.140625; 9.74075E-5
18000.000000; 1.03426E-4
18005.859375; 1.13879E-4
18011.718750; 1.10725E-4
18017.578125; 1.07540E-4
18023.437500; 1.18727E-4
18029.296875; 1.13091E-4
18035.156250; 1.11593E-4
18041.015625; 9.42791E-5
18046.875000; 8.83382E-5
18052.734375; 9.77011E-5
18058.593750; 1.10500E-4
18064.453125; 1.18552E-4
18070.312500; 1.05237E-4
18076.171875; 1.14510E-4
18082.031250; 1.05984E-4
18087.890625; 9.69418E-5
18093.750000; 1.00748E-4
18099.609375; 9.90216E-5
18105.468750; 1.01917E-4
18111.328125; 1.04193E-4
18117.187500; 1.06256E-4
18123.046875; 9.33771E-5
18128.906250; 1.08657E-4
18134.765625; 1.07785E-4
18140.625000; 9.76799E-5
18146.484375; 1.03628E-4
18152.343750; 1.16650E-4
18158.203125; 1.10533E-4
18164.062500; 1.03473E-4
18169.921875; 1.04299E-4
18175.781250; 1.01001E-4
18181.640625; 9.22206E-5
18187.500000; 9.56280E-5
18193.359375; 1.13075E-4
18199.218750; 1.07129E-4
18205.078125; 1.05258E-4
18210.937500; 1.04515E-4
18216.796875; 9.76527E-5
18222.656250; 1.01968E-4
18228.515625; 1.12083E-4
18234.375000; 1.08047E-4
18240.234375; 9.71154E-5
18246.093750; 1.01901E-4
18251.953125; 1.06511E-4
18257.812500; 1.06090E-4
18263.671875; 1.03241E-4
18269.531250; 9.80348E-5
18275.390625; 1.00883E-4
18281.250000; 1.05878E-4
18287.109375; 1.03878E-4
18292.968750; 1.09047E-4
18298.828125; 1.05395E-4
18304.687500; 1.07563E-4
18310.546875; 1.05356E-4
18316.406250; 1.01943E-4
18322.265625; 9.80817E-5
18328.125000; 1.01754E-4
18333.984375; 9.70664E-5
18339.843750; 1.01046E-4
18345.703125; 1.18318E-4
18351.562500; 1.16287E-4
18357.421875; 1.03949E-4
18363.281250; 9.90867E-5
18369.140625; 9.88334E-5
18375.000000; 9.43084E-5
18380.859375; 1.01457E-4
18386.718750; 1.03787E-4
18392.578125; 1.01981E-4
18398.437500; 1.01351E-4
18404.296875; 9.19695E-5
18410.156250; 1.06572E-4
18416.015625; 1.15653E-4
18421.875000; 1.04968E-4
18427.734375; 1.07172E-4
18433.593750; 1.00487E-4
18439.453125; 1.01854E-4
18445.312500; 1.04422E-4
18451.171875; 1.17077E-4
18457.031250; 1.08569E-4
18462.890625; 1.03965E-4
18468.750000; 1.01772E-4
18474.609375; 1.03621E-4
18480.468750; 1.00562E-4
18486.328125; 1.05942E-4
18492.187500; 1.10632E-4
18498.046875; 1.10534E-4
18503.906250; 1.16966E-4
18509.765625; 1.11793E-4
18515.625000; 1.08240E-4
18521.484375; 1.11881E-4
18527.343750; 1.09418E-4
18533.203125; 1.02891E-4
18539.062500; 9.67595E-5
18544.921875; 1.03739E-4
18550.781250; 1.08341E-4
18556.640625; 1.00616E-4
18562.500000; 1.08101E-4
18568.359375; 9.94112E-5
18574.218750; 9.94672E-5
18580.078125; 1.08999E-4
18585.937500; 1.10495E-4
18591.796875; 1.04703E-4
18597.656250; 1.06845E-4
18603.515625; 9.96741E-5
18609.375000; 1.01423E-4
18615.234375; 1.11308E-4
18621.093750; 9.81373E-5
18626.953125; 1.06310E-4
18632.812500; 9.87376E-5
18638.671875; 1.06778E-4
18644.531250; 1.09334E-4
18650.390625; 1.04707E-4
18656.250000; 1.02971E-4
18662.109375; 1.04411E-4
18667.968750; 1.11584E-4
18673.828125; 1.19276E-4
18679.687500; 1.06523E-4
18685.546875; 9.82877E-5
18691.406250; 1.10083E-4
18697.265625; 1.09509E-4
18703.125000; 1.08294E-4
18708.984375; 1.07058E-4
18714.843750; 1.02368E-4
18720.703125; 1.12442E-4
18726.562500; 1.01563E-4
18732.421875; 1.07269E-4
18738.281250; 1.02168E-4
18744.140625; 1.03411E-4
18750.000000; 1.10568E-4
18755.859375; 1.02099E-4
18761.718750; 9.86848E-5
18767.578125; 1.01950E-4
18773.437500; 1.01639E-4
18779.296875; 9.79937E-5
18785.156250; 9.28235E-5
18791.015625; 9.09428E-5
18796.875000; 1.01358E-4
18802.734375; 1.18806E-4
18808.593750; 1.15578E-4
18814.453125; 9.86396E-5
18820.312500; 1.10587E-4
18826.171875; 1.01147E-4
18832.031250; 1.01350E-4
18837.890625; 9.98527E-5
18843.750000; 1.05098E-4
18849.609375; 1.09829E-4
18855.468750; 9.46180E-5
18861.328125; 1.00512E-4
18867.187500; 1.09783E-4
18873.046875; 1.09391E-4
18878.906250; 1.01780E-4
18884.765625; 9.81495E-5
18890.625000; 1.05550E-4
18896.484375; 1.10063E-4
18902.343750; 1.10311E-4
18908.203125; 1.08781E-4
18914.062500; 1.20608E-4
18919.921875; 1.17459E-4
18925.781250; 1.13670E-4
18931.640625; 1.12379E-4
18937.500000; 1.07363E-4
18943.359375; 1.02179E-4
18949.218750; 1.05165E-4
18955.078125; 1.06147E-4
18960.937500; 9.82236E-5
18966.796875; 1.01437E-4
18972.656250; 1.20513E-4
18978.515625; 1.13857E-4
18984.375000; 1.06443E-4
18990.234375; 1.10422E-4
18996.093750; 1.09389E-4
19001.953125; 1.09336E-4
19007.812500; 1.08437E-4
19013.671875; 1.08165E-4
19019.531250; 1.07658E-4
19025.390625; 9.74671E-5
19031.250000; 9.56680E-5
19037.109375; 1.05903E-4
19042.968750; 1.22848E-4
19048.828125; 1.23765E-4
19054.687500; 1.11728E-4
19060.546875; 1.08130E-4
19066.406250; 1.09051E-4
19072.265625; 1.21430E-4
19078.125000; 1.22002E-4
19083.984375; 1.12339E-4
19089.843750; 1.05638E-4
19095.703125; 1.06220E-4
19101.562500; 1.06143E-4
19107.421875; 1.12541E-4
19113.281250; 1.04500E-4
19119.140625; 1.06370E-4
19125.000000; 1.09407E-4
19130.859375; 1.07867E-4
19136.718750; 1.06336E-4
19142.578125; 1.05529E-4
19148.437500; 1.11317E-4
19154.296875; 1.02842E-4
19160.156250; 1.00001E-4
19166.015625; 1.14852E-4
19171.875000; 1.05822E-4
19177.734375; 9.59065E-5
19183.593750; 1.06106E-4
19189.453125; 9.91490E-5
19195.312500; 1.07271E-4
19201.171875; 1.01366E-4
19207.031250; 9.43386E-5
19212.890625; 9.35286E-5
19218.750000; 8.75038E-5
19224.609375; 1.00264E-4
19230.468750; 1.12454E-4
19236.328125; 9.99693E-5
19242.187500; 1.04400E-4
19248.046875; 1.07748E-4
19253.906250; 1.05823E-4
19259.765625; 9.84163E-5
19265.625000; 9.19678E-5
19271.484375; 1.10115E-4
19277.343750; 1.09294E-4
19283.203125; 1.08371E-4
19289.062500; 1.14743E-4
19294.921875; 1.12161E-4
19300.781250; 1.05838E-4
19306.640625; 9.67742E-5
19312.500000; 1.00398E-4
19318.359375; 9.96563E-5
19324.218750; 1.05661E-4
19330.078125; 1.01544E-4
19335.937500; 9.45365E-5
19341.796875; 9.40358E-5
19347.656250; 9.95742E-5
19353.515625; 9.72089E-5
19359.375000; 9.39985E-5
19365.234375; 9.24130E-5
19371.093750; 9.06454E-5
19376.953125; 9.66845E-5
19382.812500; 1.08186E-4
19388.671875; 9.94489E-5
19394.531250; 9.87962E-5
19400.390625; 1.10155E-4
19406.250000; 1.02671E-4
19412.109375; 1.02190E-4
19417.968750; 1.13801E-4
19423.828125; 1.08058E-4
19429.687500; 1.01224E-4
19435.546875; 1.08896E-4
19441.406250; 1.12382E-4
19447.265625; 1.14320E-4
19453.125000; 1.00007E-4
19458.984375; 9.47474E-5
19464.843750; 9.22414E-5
19470.703125; 1.09281E-4
19476.562500; 1.03865E-4
19482.421875; 9.83183E-5
19488.281250; 1.00843E-4
19494.140625; 1.07103E-4
19500.000000; 9.68721E-5
19505.859375; 1.01333E-4
19511.718750; 1.00923E-4
19517.578125; 1.00085E-4
19523.437500; 1.04078E-4
19529.296875; 1.12268E-4
19535.156250; 1.08608E-4
19541.015625; 1.02645E-4
19546.875000; 1.03606E-4
19552.734375; 1.05526E-4
19558.593750; 1.04359E-4
19564.453125; 1.05142E-4
19570.312500; 1.04789E-4
19576.171875; 1.08437E-4
19582.031250; 1.09407E-4
19587.890625; 1.03208E-4
19593.750000; 1.03012E-4
19599.609375; 1.01276E-4
19605.468750; 1.05981E-4
19611.328125; 9.93836E-5
19617.187500; 1.05838E-4
19623.046875; 1.08941E-4
19628.906250; 1.03825E-4
19634.765625; 1.04130E-4
19640.625000; 1.06963E-4
19646.484375; 1.10161E-4
19652.343750; 1.07957E-4
19658.203125; 1.06531E-4
19664.062500; 1.06200E-4
19669.921875; 1.09446E-4
19675.781250; 1.06268E-4
19681.640625; 1.05409E-4
19687.500000; 1.06323E-4
19693.359375; 1.05548E-4
19699.218750; 1.09686E-4
19705.078125; 9.85835E-5
19710.937500; 9.79470E-5
19716.796875; 1.17038E-4
19722.656250; 1.12149E-4
19728.515625; 1.00496E-4
19734.375000; 1.06653E-4
19740.234375; 1.11324E-4
19746.093750; 1.05719E-4
19751.953125; 1.01309E-4
19757.812500; 9.96739E-5
19763.671875; 1.11759E-4
19769.531250; 1.08998E-4
19775.390625; 1.10904E-4
19781.250000; 1.10364E-4
19787.109375; 1.07459E-4
19792.968750; 1.08382E-4
19798.828125; 1.00079E-4
19804.687500; 9.21121E-5
19810.546875; 9.35591E-5
19816.406250; 9.66596E-5
19822.265625; 9.69458E-5
19828.125000; 9.83140E-5
19833.984375; 1.07547E-4
19839.843750; 1.06103E-4
19845.703125; 1.04817E-4
19851.562500; 9.92932E-5
19857.421875; 1.00531E-4
19863.281250; 1.02498E-4
19869.140625; 1.05584E-4
19875.000000; 1.10421E-4
19880.859375; 1.06653E-4
19886.718750; 1.05769E-4
19892.578125; 9.86366E-5
19898.437500; 9.82195E-5
19904.296875; 1.03595E-4
19910.156250; 1.07348E-4
19916.015625; 9.88635E-5
19921.875000; 9.48211E-5
19927.734375; 1.06995E-4
19933.593750; 1.17763E-4
19939.453125; 1.08409E-4
19945.312500; 1.15603E-4
19951.171875; 1.13109E-4
19957.031250; 1.08496E-4
19962.890625; 1.05684E-4
19968.750000; 9.97679E-5
19974.609375; 9.51896E-5
19980.468750; 9.69908E-5
19986.328125; 9.67010E-5
19992.187500; 1.11271E-4
19998.046875; 1.08931E-4
20003.906250; 1.09196E-4
20009.765625; 9.55496E-5
20015.625000; 9.29498E-5
20021.484375; 9.69877E-5
20027.343750; 1.05580E-4
20033.203125; 1.14406E-4
20039.062500; 1.17310E-4
20044.921875; 1.15155E-4
20050.781250; 1.08130E-4
20056.640625; 1.07490E-4
20062.500000; 1.03238E-4
20068.359375; 1.02580E-4
20074.218750; 9.93519E-5
20080.078125; 9.97436E-5
20085.937500; 9.66908E-5
20091.796875; 9.70990E-5
20097.656250; 1.03529E-4
20103.515625; 1.00856E-4
20109.375000; 1.00843E-4
20115.234375; 1.07522E-4
20121.093750; 1.09355E-4
20126.953125; 1.00302E-4
20132.812500; 1.07123E-4
20138.671875; 1.04813E-4
20144.531250; 9.48052E-5
20150.390625; 9.79579E-5
20156.250000; 1.06191E-4
20162.109375; 1.06994E-4
20167.968750; 1.03890E-4
20173.828125; 9.57055E-5
20179.687500; 9.51868E-5
20185.546875; 9.77224E-5
20191.406250; 1.12235E-4
20197.265625; 1.06066E-4
20203.125000; 1.02440E-4
20208.984375; 1.05986E-4
20214.843750; 1.01019E-4
20220.703125; 1.14162E-4
20226.562500; 1.06154E-4
20232.421875; 1.02677E-4
20238.281250; 1.04296E-4
20244.140625; 9.63768E-5
20250.000000; 9.28371E-5
20255.859375; 9.22394E-5
20261.718750; 1.03017E-4
20267.578125; 1.03678E-4
20273.437500; 1.08239E-4
20279.296875; 9.86043E-5
20285.156250; 9.19716E-5
20291.015625; 9.39886E-5
20296.875000; 9.81305E-5
20302.734375; 1.05394E-4
20308.593750; 1.06904E-4
20314.453125; 9.56646E-5
20320.312500; 9.47423E-5
20326.171875; 1.01430E-4
20332.031250; 1.01004E-4
20337.890625; 1.05702E-4
20343.750000; 1.08038E-4
20349.609375; 1.01157E-4
20355.468750; 1.04722E-4
20361.328125; 1.09221E-4
20367.187500; 9.91906E-5
20373.046875; 1.09823E-4
20378.906250; 1.08054E-4
20384.765625; 9.84618E-5
20390.625000; 9.79604E-5
20396.484375; 1.00001E-4
20402.343750; 9.30343E-5
20408.203125; 1.06365E-4
20414.062500; 1.04716E-4
20419.921875; 1.01564E-4
20425.781250; 1.09291E-4
20431.640625; 1.07427E-4
20437.500000; 1.03274E-4
20443.359375; 1.08327E-4
20449.218750; 1.05860E-4
20455.078125; 1.01391E-4
20460.937500; 1.03795E-4
20466.796875; 1.01783E-4
20472.656250; 9.38515E-5
20478.515625; 1.15049E-4
20484.375000; 1.08523E-4
20490.234375; 1.08122E-4
20496.093750; 1.03455E-4
20501.953125; 1.03485E-4
20507.812500; 1.02493E-4
20513.671875; 1.18273E-4
20519.531250; 1.11675E-4
20525.390625; 1.04372E-4
20531.250000; 9.83437E-5
20537.109375; 1.00016E-4
20542.968750; 9.05358E-5
20548.828125; 1.02813E-4
20554.687500; 1.08828E-4
20560.546875; 1.06206E-4
20566.406250; 1.02933E-4
20572.265625; 1.00758E-4
20578.125000; 1.08418E-4
20583.984375; 1.10760E-4
20589.843750; 1.08871E-4
20595.703125; 1.12271E-4
20601.562500; 1.02608E-4
20607.421875; 9.56220E-5
20613.281250; 9.85336E-5
20619.140625; 9.68258E-5
20625.000000; 9.80445E-5
20630.859375; 1.05899E-4
20636.718750; 1.04552E-4
20642.578125; 8.97691E-5
20648.437500; 8.86163E-5
20654.296875; 9.40198E-5
20660.156250; 1.09575E-4
20666.015625; 9.58157E-5
20671.875000; 1.02068E-4
20677.734375; 1.14039E-4
20683.593750; 1.03841E-4
20689.453125; 1.07965E-4
20695.312500; 1.09411E-4
20701.171875; 1.08488E-4
20707.031250; 1.00140E-4
20712.890625; 1.02735E-4
20718.750000; 9.80019E-5
20724.609375; 9.93395E-5
20730.468750; 1.00458E-4
20736.328125; 1.08533E-4
20742.187500; 1.03193E-4
20748.046875; 1.03833E-4
20753.906250; 1.04828E-4
20759.765625; 1.06019E-4
20765.625000; 1.07532E-4
20771.484375; 1.02161E-4
20777.343750; 1.05175E-4
20783.203125; 9.45312E-5
20789.062500; 9.30852E-5
20794.921875; 1.06905E-4
20800.781250; 1.10134E-4
20806.640625; 9.61419E-5
20812.500000; 1.03120E-4
20818.359375; 1.00910E-4
20824.218750; 1.07383E-4
20830.078125; 1.09413E-4
20835.937500; 1.13952E-4
20841.796875; 1.13963E-4
20847.656250; 1.14681E-4
20853.515625; 1.09177E-4
20859.375000; 1.11752E-4
20865.234375; 1.14805E-4
20871.093750; 1.11055E-4
20876.953125; 1.06711E-4
20882.812500; 1.15374E-4
20888.671875; 1.02214E-4
20894.531250; 1.05001E-4
20900.390625; 1.15212E-4
20906.250000; 1.04718E-4
20912.109375; 1.09773E-4
20917.968750; 1.07032E-4
20923.828125; 1.00603E-4
20929.687500; 1.02957E-4
20935.546875; 9.88451E-5
20941.406250; 9.69203E-5
20947.265625; 9.75851E-5
20953.125000; 1.04310E-4
20958.984375; 1.12127E-4
20964.843750; 1.02534E-4
20970.703125; 9.91639E-5
20976.562500; 1.03149E-4
20982.421875; 1.10509E-4
20988.281250; 1.18401E-4
20994.140625; 1.06199E-4
21000.000000; 9.55115E-5
21005.859375; 1.02737E-4
21011.718750; 1.02504E-4
21017.578125; 9.79185E-5
21023.437500; 1.03846E-4
21029.296875; 1.11059E-4
21035.156250; 1.07163E-4
21041.015625; 1.08720E-4
21046.875000; 1.09980E-4
21052.734375; 1.15545E-4
21058.593750; 1.09236E-4
21064.453125; 1.09344E-4
21070.312500; 1.01737E-4
21076.171875; 9.99419E-5
21082.031250; 1.13007E-4
21087.890625; 1.13345E-4
21093.750000; 1.06928E-4
21099.609375; 9.29724E-5
21105.468750; 9.52169E-5
21111.328125; 9.72481E-5
21117.187500; 9.90726E-5
21123.046875; 1.06374E-4
21128.906250; 1.03420E-4
21134.765625; 1.00579E-4
21140.625000; 9.48011E-5
21146.484375; 9.97519E-5
21152.343750; 1.02362E-4
21158.203125; 9.70692E-5
21164.062500; 1.11553E-4
21169.921875; 1.14560E-4
21175.781250; 9.95448E-5
21181.640625; 9.49155E-5
21187.500000; 1.02451E-4
21193.359375; 1.03920E-4
21199.218750; 9.26870E-5
21205.078125; 9.96426E-5
21210.937500; 9.97512E-5
21216.796875; 1.04374E-4
21222.656250; 9.87284E-5
21228.515625; 9.18845E-5
21234.375000; 9.92745E-5
21240.234375; 1.00530E-4
21246.093750; 1.02879E-4
21251.953125; 9.29465E-5
21257.812500; 9.51749E-5
21263.671875; 1.01256E-4
21269.531250; 8.86284E-5
21275.390625; 9.31014E-5
21281.250000; 9.45057E-5
21287.109375; 1.06847E-4
21292.968750; 1.07558E-4
21298.828125; 1.02541E-4
21304.687500; 1.04035E-4
21310.546875; 1.00206E-4
21316.406250; 1.01812E-4
21322.265625; 9.78972E-5
21328.125000; 9.48285E-5
21333.984375; 1.00550E-4
21339.843750; 1.12932E-4
21345.703125; 1.10560E-4
21351.562500; 9.90915E-5
21357.421875; 1.02681E-4
21363.281250; 1.02505E-4
21369.140625; 1.10925E-4
21375.000000; 9.86233E-5
21380.859375; 1.05589E-4
21386.718750; 1.02623E-4
21392.578125; 1.13463E-4
21398.437500; 1.07182E-4
21404.296875; 1.02164E-4
21410.156250; 8.98887E-5
21416.015625; 9.46825E-5
21421.875000; 1.06969E-4
21427.734375; 1.03592E-4
21433.593750; 1.04124E-4
21439.453125; 1.12068E-4
21445.312500; 9.82444E-5
21451.171875; 1.01098E-4
21457.031250; 1.05755E-4
21462.890625; 1.10377E-4
21468.750000; 1.10652E-4
21474.609375; 1.13477E-4
21480.468750; 1.03913E-4
21486.328125; 1.12071E-4
21492.187500; 1.08875E-4
21498.046875; 9.61350E-5
21503.906250; 1.11494E-4
21509.765625; 1.15391E-4
21515.625000; 9.73181E-5
21521.484375; 9.37100E-5
21527.343750; 1.07899E-4
21533.203125; 1.09917E-4
21539.062500; 1.03529E-4
21544.921875; 9.98724E-5
21550.781250; 1.10351E-4
21556.640625; 1.04043E-4
21562.500000; 9.40789E-5
21568.359375; 9.97878E-5
21574.218750; 1.07617E-4
21580.078125; 1.03303E-4
21585.937500; 1.08648E-4
21591.796875; 1.12298E-4
21597.656250; 1.06671E-4
21603.515625; 9.55797E-5
21609.375000; 1.01097E-4
21615.234375; 1.02073E-4
21621.093750; 1.01124E-4
21626.953125; 1.08817E-4
21632.812500; 1.08256E-4
21638.671875; 1.01939E-4
21644.531250; 1.07082E-4
21650.390625; 1.04278E-4
21656.250000; 1.03408E-4
21662.109375; 1.06497E-4
21667.968750; 9.60245E-5
21673.828125; 9.27166E-5
21679.687500; 9.48185E-5
21685.546875; 9.31771E-5
21691.406250; 9.46372E-5
21697.265625; 1.07467E-4
21703.125000; 1.14315E-4
21708.984375; 1.10357E-4
21714.843750; 1.08060E-4
21720.703125; 1.01793E-4
21726.562500; 9.97051E-5
21732.421875; 1.06114E-4
21738.281250; 1.15381E-4
21744.140625; 1.07446E-4
21750.000000; 1.01387E-4
21755.859375; 1.06123E-4
21761.718750; 1.08610E-4
21767.578125; 1.04481E-4
21773.437500; 9.22875E-5
21779.296875; 8.89868E-5
21785.156250; 1.14107E-4
21791.015625; 1.13177E-4
21796.875000; 9.81053E-5
21802.734375; 1.10086E-4
21808.593750; 1.06677E-4
21814.453125; 9.94143E-5
21820.312500; 1.08546E-4
21826.171875; 1.11878E-4
21832.031250; 1.14124E-4
21837.890625; 1.00454E-4
21843.750000; 9.67086E-5
21849.609375; 1.00291E-4
21855.468750; 1.10740E-4
21861.328125; 1.18389E-4
21867.187500; 1.05612E-4
21873.046875; 9.66372E-5
21878.906250; 1.04632E-4
21884.765625; 1.08756E-4
21890.625000; 1.02992E-4
21896.484375; 1.02978E-4
21902.343750; 1.10395E-4
21908.203125; 1.11058E-4
21914.062500; 1.00938E-4
21919.921875; 9.97448E-5
21925.781250; 9.56847E-5
21931.640625; 9.02485E-5
21937.500000; 9.96053E-5
21943.359375; 1.00333E-4
21949.218750; 9.53953E-5
21955.078125; 9.79893E-5
21960.937500; 9.57210E-5
21966.796875; 1.01267E-4
21972.656250; 1.05924E-4
21978.515625; 1.04387E-4
21984.375000; 9.79367E-5
21990.234375; 1.05200E-4
21996.093750; 9.81970E-5
22001.953125; 9.98854E-5
22007.812500; 1.02783E-4
22013.671875; 1.00751E-4
22019.531250; 9.66604E-5
22025.390625; 1.00340E-4
22031.250000; 9.23594E-5
22037.109375; 9.69795E-5
22042.968750; 1.05121E-4
22048.828125; 1.08268E-4
22054.687500; 9.89757E-5
22060.546875; 9.12044E-5
22066.406250; 9.17777E-5
22072.265625; 9.28749E-5
22078.125000; 1.00803E-4
22083.984375; 1.03244E-4
22089.843750; 1.04125E-4
22095.703125; 9.99474E-5
22101.562500; 1.06895E-4
22107.421875; 1.06000E-4
22113.281250; 1.08291E-4
22119.140625; 9.55534E-5
22125.000000; 8.90229E-5
22130.859375; 9.68067E-5
22136.718750; 9.92208E-5
22142.578125; 1.08980E-4
22148.437500; 1.05882E-4
22154.296875; 1.03878E-4
22160.156250; 1.06921E-4
22166.015625; 1.05514E-4
22171.875000; 1.03205E-4
22177.734375; 9.72877E-5
22183.593750; 9.73001E-5
22189.453125; 1.02143E-4
22195.312500; 1.02435E-4
22201.171875; 9.95951E-5
22207.031250; 1.03836E-4
22212.890625; 1.05859E-4
22218.750000; 1.02679E-4
22224.609375; 1.06342E-4
22230.468750; 1.02559E-4
22236.328125; 1.09350E-4
22242.187500; 9.86003E-5
22248.046875; 9.93221E-5
22253.906250; 9.75129E-5
22259.765625; 9.64201E-5
22265.625000; 1.02175E-4
22271.484375; 1.08549E-4
22277.343750; 1.18862E-4
22283.203125; 1.03666E-4
22289.062500; 9.62573E-5
22294.921875; 9.75564E-5
22300.781250; 8.37715E-5
22306.640625; 8.56893E-5
22312.500000; 9.89548E-5
22318.359375; 9.69616E-5
22324.218750; 1.04762E-4
22330.078125; 9.04106E-5
22335.937500; 9.91988E-5
22341.796875; 9.38738E-5
22347.656250; 8.40032E-5
22353.515625; 8.85560E-5
22359.375000; 9.39269E-5
22365.234375; 1.01007E-4
22371.093750; 1.01156E-4
22376.953125; 9.83097E-5
22382.812500; 1.02664E-4
22388.671875; 9.64574E-5
22394.531250; 9.92603E-5
22400.390625; 1.04084E-4
22406.250000; 9.61992E-5
22412.109375; 9.31668E-5
22417.968750; 1.01536E-4
22423.828125; 1.07913E-4
22429.687500; 1.08005E-4
22435.546875; 1.05280E-4
22441.406250; 1.00707E-4
22447.265625; 1.00261E-4
22453.125000; 9.81251E-5
22458.984375; 1.03870E-4
22464.843750; 1.03186E-4
22470.703125; 9.53145E-5
22476.562500; 9.99514E-5
22482.421875; 9.85811E-5
22488.281250; 9.38160E-5
22494.140625; 9.21225E-5
22500.000000; 8.89541E-5
22505.859375; 9.68449E-5
22511.718750; 9.94221E-5
22517.578125; 9.00808E-5
22523.437500; 9.95819E-5
22529.296875; 9.68620E-5
22535.156250; 9.27076E-5
22541.015625; 9.43014E-5
22546.875000; 9.62936E-5
22552.734375; 9.37344E-5
22558.593750; 9.88858E-5
22564.453125; 1.00399E-4
22570.312500; 9.67911E-5
22576.171875; 8.89676E-5
22582.031250; 8.88070E-5
22587.890625; 9.87036E-5
22593.750000; 1.00662E-4
22599.609375; 9.74034E-5
22605.468750; 9.59938E-5
22611.328125; 8.97659E-5
22617.187500; 9.17736E-5
22623.046875; 9.82200E-5
22628.906250; 9.62847E-5
22634.765625; 9.72547E-5
22640.625000; 9.05284E-5
22646.484375; 8.66959E-5
22652.343750; 8.94056E-5
22658.203125; 8.61208E-5
22664.062500; 9.38656E-5
22669.921875; 9.83180E-5
22675.781250; 9.76260E-5
22681.640625; 9.60777E-5
22687.500000; 9.13616E-5
22693.359375; 9.04209E-5
22699.218750; 9.24255E-5
22705.078125; 9.57576E-5
22710.937500; 8.39073E-5
22716.796875; 9.31525E-5
22722.656250; 9.42666E-5
22728.515625; 7.76734E-5
22734.375000; 8.89984E-5
22740.234375; 9.10034E-5
22746.093750; 8.64088E-5
22751.953125; 9.39093E-5
22757.812500; 9.34414E-5
22763.671875; 8.64142E-5
22769.531250; 9.28598E-5
22775.390625; 9.71110E-5
22781.250000; 9.31955E-5
22787.109375; 9.03872E-5
22792.968750; 8.49471E-5
22798.828125; 8.87743E-5
22804.687500; 9.15997E-5
22810.546875; 9.78233E-5
22816.406250; 8.48680E-5
22822.265625; 8.56465E-5
22828.125000; 9.43221E-5
22833.984375; 9.56473E-5
22839.843750; 8.81682E-5
22845.703125; 7.43026E-5
22851.562500; 8.85365E-5
22857.421875; 8.34934E-5
22863.281250; 8.95061E-5
22869.140625; 8.86787E-5
22875.000000; 8.17322E-5
22880.859375; 8.14660E-5
22886.718750; 8.32414E-5
22892.578125; 8.88884E-5
22898.437500; 9.42449E-5
22904.296875; 8.48900E-5
22910.156250; 8.30970E-5
22916.015625; 8.28214E-5
22921.875000; 7.56418E-5
22927.734375; 7.91204E-5
22933.593750; 8.12705E-5
22939.453125; 7.72169E-5
22945.312500; 7.96209E-5
22951.171875; 8.40729E-5
22957.031250; 8.17564E-5
22962.890625; 8.50323E-5
22968.750000; 8.34171E-5
22974.609375; 8.52734E-5
22980.468750; 8.11450E-5
22986.328125; 7.65072E-5
22992.187500; 8.28182E-5
22998.046875; 8.44002E-5
23003.906250; 8.34911E-5
23009.765625; 7.41473E-5
23015.625000; 7.08054E-5
23021.484375; 7.86933E-5
23027.343750; 7.90354E-5
23033.203125; 8.18966E-5
23039.062500; 8.16151E-5
23044.921875; 7.51244E-5
23050.781250; 6.71281E-5
23056.640625; 7.26494E-5
23062.500000; 7.29717E-5
23068.359375; 6.95811E-5
23074.218750; 6.45533E-5
23080.078125; 6.72781E-5
23085.937500; 7.96019E-5
23091.796875; 7.92207E-5
23097.656250; 7.31147E-5
23103.515625; 7.02835E-5
23109.375000; 7.27300E-5
23115.234375; 7.53500E-5
23121.093750; 6.63087E-5
23126.953125; 6.53209E-5
23132.812500; 6.67337E-5
23138.671875; 7.01884E-5
23144.531250; 7.52797E-5
23150.390625; 7.05866E-5
23156.250000; 7.09348E-5
23162.109375; 6.84538E-5
23167.968750; 6.47249E-5
23173.828125; 7.19999E-5
23179.687500; 7.54437E-5
23185.546875; 7.36750E-5
23191.406250; 7.72603E-5
23197.265625; 7.21485E-5
23203.125000; 6.49145E-5
23208.984375; 6.72293E-5
23214.843750; 6.56180E-5
23220.703125; 6.93870E-5
23226.562500; 6.96616E-5
23232.421875; 6.26955E-5
23238.281250; 6.57246E-5
23244.140625; 7.05519E-5
23250.000000; 7.29196E-5
23255.859375; 6.47408E-5
23261.718750; 6.03754E-5
23267.578125; 5.94170E-5
23273.437500; 6.23888E-5
23279.296875; 6.04882E-5
23285.156250; 6.12787E-5
23291.015625; 6.19718E-5
23296.875000; 5.99142E-5
23302.734375; 5.83509E-5
23308.593750; 6.48867E-5
23314.453125; 6.48961E-5
23320.312500; 6.84755E-5
23326.171875; 6.11654E-5
23332.031250; 6.01639E-5
23337.890625; 6.40446E-5
23343.750000; 5.83193E-5
23349.609375; 5.70012E-5
23355.468750; 6.09166E-5
23361.328125; 6.23211E-5
23367.187500; 6.09410E-5
23373.046875; 5.71264E-5
23378.906250; 5.80379E-5
23384.765625; 6.29608E-5
23390.625000; 5.86924E-5
23396.484375; 5.88598E-5
23402.343750; 6.07864E-5
23408.203125; 5.75870E-5
23414.062500; 5.70637E-5
23419.921875; 5.59127E-5
23425.781250; 5.52014E-5
23431.640625; 5.83321E-5
23437.500000; 5.87516E-5
23443.359375; 5.75400E-5
23449.218750; 6.25293E-5
23455.078125; 5.62170E-5
23460.937500; 5.46347E-5
23466.796875; 5.70587E-5
23472.656250; 5.20269E-5
23478.515625; 5.20281E-5
23484.375000; 5.52693E-5
23490.234375; 5.02744E-5
23496.093750; 4.66462E-5
23501.953125; 4.26605E-5
23507.812500; 4.26702E-5
23513.671875; 4.72521E-5
23519.531250; 5.26953E-5
23525.390625; 5.36471E-5
23531.250000; 4.83417E-5
23537.109375; 5.10748E-5
23542.968750; 5.01725E-5
23548.828125; 4.75585E-5
23554.687500; 4.72848E-5
23560.546875; 4.13981E-5
23566.406250; 3.58853E-5
23572.265625; 4.02323E-5
23578.125000; 4.50597E-5
23583.984375; 4.64683E-5
23589.843750; 4.64971E-5
23595.703125; 4.62148E-5
23601.562500; 4.34747E-5
23607.421875; 4.88286E-5
23613.281250; 4.88173E-5
23619.140625; 4.66852E-5
23625.000000; 4.39683E-5
23630.859375; 3.99224E-5
23636.718750; 3.94605E-5
23642.578125; 4.16482E-5
23648.437500; 4.40981E-5
23654.296875; 4.25121E-5
23660.156250; 3.92894E-5
23666.015625; 4.28222E-5
23671.875000; 4.67113E-5
23677.734375; 4.70026E-5
23683.593750; 4.58247E-5
23689.453125; 4.50007E-5
23695.312500; 4.20376E-5
23701.171875; 3.84477E-5
23707.031250; 4.01513E-5
23712.890625; 4.35975E-5
23718.750000; 4.52737E-5
23724.609375; 4.54037E-5
23730.468750; 4.05015E-5
23736.328125; 4.20539E-5
23742.187500; 4.06634E-5
23748.046875; 3.64958E-5
23753.906250; 3.53421E-5
23759.765625; 3.71815E-5
23765.625000; 3.75614E-5
23771.484375; 4.40677E-5
23777.343750; 4.18286E-5
23783.203125; 4.14125E-5
23789.062500; 4.09120E-5
23794.921875; 4.10561E-5
23800.781250; 3.92742E-5
23806.640625; 3.64145E-5
23812.500000; 3.82631E-5
23818.359375; 3.87025E-5
23824.218750; 3.85826E-5
23830.078125; 3.57325E-5
23835.937500; 3.38630E-5
23841.796875; 4.09611E-5
23847.656250; 3.92315E-5
23853.515625; 3.58895E-5
23859.375000; 3.90727E-5
23865.234375; 4.13632E-5
23871.093750; 3.77600E-5
23876.953125; 3.67612E-5
23882.812500; 3.79278E-5
23888.671875; 4.11469E-5
23894.531250; 3.68134E-5
23900.390625; 3.59664E-5
23906.250000; 3.77749E-5
23912.109375; 3.71528E-5
23917.968750; 3.41019E-5
23923.828125; 3.56907E-5
23929.687500; 3.80028E-5
23935.546875; 3.99826E-5
23941.406250; 3.68711E-5
23947.265625; 3.66113E-5
23953.125000; 3.86405E-5
23958.984375; 4.07323E-5
23964.843750; 3.77052E-5
23970.703125; 3.45947E-5
23976.562500; 3.40230E-5
23982.421875; 3.12486E-5
23988.281250; 3.20859E-5
23994.140625; 3.32241E-5
