* Measurement data measured by REW V5.31.3
* Source: PCM: default, no input selected, 2, volume: no control
* Format: 8192-point spectrum using Hann window and exponential averaging 0.97 
* Dated: Mar 9, 2025 12:48:48 PM
* REW Settings:
*  C-weighting compensation: Off
*  Target level: 75.0 dB
* Note: OSDEHA ANODE-OUTPUT; 8192-point spectrum using Hann window and exponential averaging 0.97  Input RMS 31.60 V 31.60 VC, 31.60 VA 31.60 V 22 - 22k UNW 873.5 uV >22k Distortion at 1,000.0 Hz, -10.01 dBFS: Gain: 29.34 dB THD: 0.022 % based on 21 harmonics  [0..22800 Hz] HHD: 0.0012 %  [10 .. 22] N: 0.040 %  [0..22800 Hz] N+D: 8.848 mV A THD+N: 0.045 %  [0..22800 Hz] SNR: 68.0 dB ENOB: 13.0 bits 2nd harmonic 0.021 % -154 deg 3rd harmonic 0.0032 % -6 deg 4th harmonic 0.0013 % -175 deg 5th harmonic 0.00054 % 68 deg 6th harmonic 0.00046 % -7 deg 7th harmonic 0.00040 % 114 deg 8th harmonic 0.00038 % 143 deg 9th harmonic 0.00032 % -104 deg 
* Measurement: OSDEHA A-OUIT 31V
* Smoothing: None
* Frequency Step: 5.859375 Hz
* Start Frequency: 5.859375 Hz
*
* Freq(Hz); V(V)
5.859375; 2.81478E-4
11.718750; 2.94393E-4
17.578125; 2.46473E-4
23.437500; 2.05734E-4
29.296875; 1.72209E-4
35.156250; 1.46434E-4
41.015625; 1.65371E-4
46.875000; 3.74436E-4
52.734375; 3.92774E-4
58.593750; 1.55068E-4
64.453125; 1.45154E-4
70.312500; 1.32484E-4
76.171875; 1.28123E-4
82.031250; 1.30845E-4
87.890625; 1.71095E-4
93.750000; 5.11249E-3
99.609375; 1.13639E-2
105.468750; 6.30683E-3
111.328125; 2.03464E-4
117.187500; 1.27257E-4
123.046875; 1.12041E-4
128.906250; 1.13866E-4
134.765625; 1.25991E-4
140.625000; 1.23222E-4
146.484375; 1.44298E-4
152.343750; 1.57083E-4
158.203125; 1.22132E-4
164.062500; 1.23464E-4
169.921875; 1.19538E-4
175.781250; 1.11477E-4
181.640625; 1.09468E-4
187.500000; 1.14901E-4
193.359375; 6.23722E-4
199.218750; 1.53857E-3
205.078125; 9.55455E-4
210.937500; 1.43821E-4
216.796875; 1.14625E-4
222.656250; 1.10205E-4
228.515625; 1.01245E-4
234.375000; 1.13663E-4
240.234375; 1.13893E-4
246.093750; 1.36409E-4
251.953125; 1.40374E-4
257.812500; 1.04821E-4
263.671875; 1.16745E-4
269.531250; 1.12245E-4
275.390625; 1.16424E-4
281.250000; 1.04379E-4
287.109375; 1.08397E-4
292.968750; 1.44808E-4
298.828125; 2.53637E-4
304.687500; 2.06405E-4
310.546875; 1.33636E-4
316.406250; 1.22795E-4
322.265625; 1.21413E-4
328.125000; 1.19700E-4
333.984375; 1.09278E-4
339.843750; 1.17762E-4
345.703125; 1.48837E-4
351.562500; 1.64816E-4
357.421875; 1.29819E-4
363.281250; 1.29871E-4
369.140625; 1.14047E-4
375.000000; 1.14297E-4
380.859375; 1.16591E-4
386.718750; 1.15449E-4
392.578125; 1.65097E-4
398.437500; 4.35112E-4
404.296875; 3.39925E-4
410.156250; 1.13716E-4
416.015625; 1.10484E-4
421.875000; 1.27630E-4
427.734375; 1.19990E-4
433.593750; 1.07128E-4
439.453125; 1.08001E-4
445.312500; 1.27182E-4
451.171875; 1.42544E-4
457.031250; 1.17954E-4
462.890625; 1.11312E-4
468.750000; 1.24447E-4
474.609375; 1.19138E-4
480.468750; 1.26533E-4
486.328125; 1.11869E-4
492.187500; 1.24588E-4
498.046875; 2.98793E-4
503.906250; 2.55570E-4
509.765625; 1.13541E-4
515.625000; 1.15490E-4
521.484375; 1.15264E-4
527.343750; 1.07863E-4
533.203125; 1.07692E-4
539.062500; 1.16533E-4
544.921875; 1.21983E-4
550.781250; 1.08910E-4
556.640625; 1.23130E-4
562.500000; 1.23208E-4
568.359375; 1.09082E-4
574.218750; 1.10146E-4
580.078125; 1.25634E-4
585.937500; 1.28330E-4
591.796875; 1.29868E-4
597.656250; 1.28811E-4
603.515625; 1.27494E-4
609.375000; 1.16522E-4
615.234375; 1.19366E-4
621.093750; 1.22054E-4
626.953125; 1.21535E-4
632.812500; 1.11977E-4
638.671875; 1.21458E-4
644.531250; 1.31783E-4
650.390625; 1.28568E-4
656.250000; 1.26740E-4
662.109375; 1.21603E-4
667.968750; 1.19734E-4
673.828125; 1.14082E-4
679.687500; 1.20325E-4
685.546875; 1.27398E-4
691.406250; 1.24224E-4
697.265625; 2.12947E-4
703.125000; 2.20968E-4
708.984375; 1.26156E-4
714.843750; 1.25074E-4
720.703125; 1.27525E-4
726.562500; 1.47704E-4
732.421875; 1.38813E-4
738.281250; 1.47194E-4
744.140625; 1.62627E-4
750.000000; 1.80147E-4
755.859375; 1.73495E-4
761.718750; 1.54341E-4
767.578125; 1.85723E-4
773.437500; 1.80078E-4
779.296875; 1.84878E-4
785.156250; 2.18217E-4
791.015625; 2.17049E-4
796.875000; 2.66540E-4
802.734375; 2.71758E-4
808.593750; 2.73022E-4
814.453125; 2.98336E-4
820.312500; 3.15947E-4
826.171875; 3.57700E-4
832.031250; 3.89727E-4
837.890625; 4.08302E-4
843.750000; 4.89850E-4
849.609375; 5.31011E-4
855.468750; 5.90075E-4
861.328125; 6.63221E-4
867.187500; 7.61381E-4
873.046875; 8.72400E-4
878.906250; 9.80759E-4
884.765625; 1.16679E-3
890.625000; 1.34071E-3
896.484375; 1.60305E-3
902.343750; 1.87836E-3
908.203125; 2.28803E-3
914.062500; 2.77667E-3
919.921875; 3.43822E-3
925.781250; 4.29827E-3
931.640625; 5.53378E-3
937.500000; 7.24340E-3
943.359375; 9.74627E-3
949.218750; 1.35585E-2
955.078125; 1.96589E-2
960.937500; 3.00805E-2
966.796875; 4.94011E-2
972.656250; 8.98291E-2
978.515625; 1.90870E-1
984.375000; 5.34454E-1
990.234375; 2.93953E0
996.093750; 2.35162E1
1001.953125; 2.93952E1
1007.812500; 8.39862E0
1013.671875; 8.39882E-1
1019.531250; 2.58403E-1
1025.390625; 1.13066E-1
1031.250000; 5.95069E-2
1037.109375; 3.51498E-2
1042.968750; 2.25128E-2
1048.828125; 1.52663E-2
1054.687500; 1.08437E-2
1060.546875; 7.97403E-3
1066.406250; 6.01732E-3
1072.265625; 4.68275E-3
1078.125000; 3.69351E-3
1083.984375; 2.96844E-3
1089.843750; 2.44880E-3
1095.703125; 1.98408E-3
1101.562500; 1.69967E-3
1107.421875; 1.42745E-3
1113.281250; 1.20062E-3
1119.140625; 1.04842E-3
1125.000000; 9.04786E-4
1130.859375; 7.84299E-4
1136.718750; 7.11482E-4
1142.578125; 6.03446E-4
1148.437500; 5.61964E-4
1154.296875; 4.66391E-4
1160.156250; 4.60088E-4
1166.015625; 3.93508E-4
1171.875000; 3.63217E-4
1177.734375; 3.21190E-4
1183.593750; 3.13685E-4
1189.453125; 2.73130E-4
1195.312500; 2.71377E-4
1201.171875; 2.47973E-4
1207.031250; 2.31823E-4
1212.890625; 2.08008E-4
1218.750000; 1.99601E-4
1224.609375; 1.82597E-4
1230.468750; 1.91344E-4
1236.328125; 1.78591E-4
1242.187500; 1.57709E-4
1248.046875; 1.62777E-4
1253.906250; 1.47132E-4
1259.765625; 1.50135E-4
1265.625000; 1.37179E-4
1271.484375; 1.30359E-4
1277.343750; 1.37133E-4
1283.203125; 1.25002E-4
1289.062500; 1.30609E-4
1294.921875; 1.36994E-4
1300.781250; 1.37265E-4
1306.640625; 1.25597E-4
1312.500000; 1.21161E-4
1318.359375; 1.26239E-4
1324.218750; 1.19706E-4
1330.078125; 1.11899E-4
1335.937500; 1.17380E-4
1341.796875; 1.19745E-4
1347.656250; 1.32709E-4
1353.515625; 1.30653E-4
1359.375000; 1.09865E-4
1365.234375; 1.20990E-4
1371.093750; 1.08003E-4
1376.953125; 1.10731E-4
1382.812500; 9.32635E-5
1388.671875; 1.06570E-4
1394.531250; 1.15377E-4
1400.390625; 1.23466E-4
1406.250000; 1.22275E-4
1412.109375; 1.11438E-4
1417.968750; 1.22607E-4
1423.828125; 1.19162E-4
1429.687500; 1.20139E-4
1435.546875; 1.05618E-4
1441.406250; 9.21296E-5
1447.265625; 1.09775E-4
1453.125000; 1.04675E-4
1458.984375; 1.04005E-4
1464.843750; 1.11640E-4
1470.703125; 1.05275E-4
1476.562500; 1.12700E-4
1482.421875; 1.16315E-4
1488.281250; 1.08700E-4
1494.140625; 1.05831E-4
1500.000000; 1.05764E-4
1505.859375; 1.04813E-4
1511.718750; 1.00487E-4
1517.578125; 9.86124E-5
1523.437500; 1.06943E-4
1529.296875; 1.02133E-4
1535.156250; 9.38753E-5
1541.015625; 1.04595E-4
1546.875000; 1.09187E-4
1552.734375; 1.17217E-4
1558.593750; 1.09939E-4
1564.453125; 1.00658E-4
1570.312500; 9.91979E-5
1576.171875; 9.04484E-5
1582.031250; 9.98451E-5
1587.890625; 1.01480E-4
1593.750000; 1.03129E-4
1599.609375; 1.15544E-4
1605.468750; 1.18434E-4
1611.328125; 1.20984E-4
1617.187500; 1.08018E-4
1623.046875; 9.75103E-5
1628.906250; 1.04747E-4
1634.765625; 1.00597E-4
1640.625000; 1.03461E-4
1646.484375; 1.05718E-4
1652.343750; 1.01557E-4
1658.203125; 1.01137E-4
1664.062500; 1.02845E-4
1669.921875; 1.16288E-4
1675.781250; 1.09659E-4
1681.640625; 9.73663E-5
1687.500000; 1.06093E-4
1693.359375; 1.14346E-4
1699.218750; 1.20245E-4
1705.078125; 1.11364E-4
1710.937500; 1.14491E-4
1716.796875; 1.11950E-4
1722.656250; 1.10632E-4
1728.515625; 1.01966E-4
1734.375000; 1.06635E-4
1740.234375; 1.13287E-4
1746.093750; 1.11603E-4
1751.953125; 1.01870E-4
1757.812500; 1.03019E-4
1763.671875; 1.07414E-4
1769.531250; 9.70563E-5
1775.390625; 1.01145E-4
1781.250000; 1.03591E-4
1787.109375; 1.16243E-4
1792.968750; 1.07985E-4
1798.828125; 1.05633E-4
1804.687500; 1.20820E-4
1810.546875; 1.25767E-4
1816.406250; 1.09647E-4
1822.265625; 1.13690E-4
1828.125000; 1.16073E-4
1833.984375; 1.11316E-4
1839.843750; 1.11963E-4
1845.703125; 1.21911E-4
1851.562500; 1.29566E-4
1857.421875; 1.19673E-4
1863.281250; 1.04780E-4
1869.140625; 1.05452E-4
1875.000000; 1.11224E-4
1880.859375; 1.00334E-4
1886.718750; 1.12407E-4
1892.578125; 1.14182E-4
1898.437500; 1.25146E-4
1904.296875; 1.18674E-4
1910.156250; 1.10493E-4
1916.015625; 1.07625E-4
1921.875000; 1.01246E-4
1927.734375; 9.93300E-5
1933.593750; 1.11111E-4
1939.453125; 1.15129E-4
1945.312500; 1.03210E-4
1951.171875; 9.60041E-5
1957.031250; 1.03803E-4
1962.890625; 1.05191E-4
1968.750000; 1.08395E-4
1974.609375; 1.04596E-4
1980.468750; 1.23951E-4
1986.328125; 2.06008E-4
1992.187500; 1.77721E-3
1998.046875; 6.24713E-3
2003.906250; 5.00510E-3
2009.765625; 6.33009E-4
2015.625000; 1.56485E-4
2021.484375; 1.20907E-4
2027.343750; 1.16179E-4
2033.203125; 1.14555E-4
2039.062500; 1.05814E-4
2044.921875; 1.11593E-4
2050.781250; 1.09307E-4
2056.640625; 9.98420E-5
2062.500000; 1.00730E-4
2068.359375; 1.07174E-4
2074.218750; 1.10720E-4
2080.078125; 1.06909E-4
2085.937500; 1.01159E-4
2091.796875; 1.03517E-4
2097.656250; 1.00456E-4
2103.515625; 9.78928E-5
2109.375000; 9.34264E-5
2115.234375; 9.38160E-5
2121.093750; 9.72861E-5
2126.953125; 1.02694E-4
2132.812500; 1.07971E-4
2138.671875; 1.00804E-4
2144.531250; 1.01186E-4
2150.390625; 9.75719E-5
2156.250000; 9.80725E-5
2162.109375; 1.07394E-4
2167.968750; 1.10020E-4
2173.828125; 1.03989E-4
2179.687500; 1.04516E-4
2185.546875; 1.07929E-4
2191.406250; 1.07327E-4
2197.265625; 1.09683E-4
2203.125000; 1.21862E-4
2208.984375; 1.20868E-4
2214.843750; 1.13611E-4
2220.703125; 1.07681E-4
2226.562500; 9.82643E-5
2232.421875; 9.40298E-5
2238.281250; 9.75922E-5
2244.140625; 1.02156E-4
2250.000000; 1.04778E-4
2255.859375; 1.19019E-4
2261.718750; 1.01171E-4
2267.578125; 9.34215E-5
2273.437500; 9.68683E-5
2279.296875; 9.95557E-5
2285.156250; 1.05860E-4
2291.015625; 9.87670E-5
2296.875000; 9.38736E-5
2302.734375; 9.45440E-5
2308.593750; 1.03485E-4
2314.453125; 1.06338E-4
2320.312500; 1.05720E-4
2326.171875; 1.08487E-4
2332.031250; 1.01964E-4
2337.890625; 1.07523E-4
2343.750000; 1.10021E-4
2349.609375; 1.10190E-4
2355.468750; 1.00014E-4
2361.328125; 9.21468E-5
2367.187500; 9.48905E-5
2373.046875; 1.06522E-4
2378.906250; 1.14134E-4
2384.765625; 1.09185E-4
2390.625000; 1.11534E-4
2396.484375; 1.12923E-4
2402.343750; 1.05254E-4
2408.203125; 1.03189E-4
2414.062500; 1.11625E-4
2419.921875; 1.09497E-4
2425.781250; 9.89580E-5
2431.640625; 9.41041E-5
2437.500000; 9.37814E-5
2443.359375; 9.86349E-5
2449.218750; 1.06922E-4
2455.078125; 1.03203E-4
2460.937500; 1.09350E-4
2466.796875; 1.04610E-4
2472.656250; 1.07660E-4
2478.515625; 1.11200E-4
2484.375000; 1.09736E-4
2490.234375; 1.10235E-4
2496.093750; 1.14843E-4
2501.953125; 1.14931E-4
2507.812500; 1.04197E-4
2513.671875; 9.84579E-5
2519.531250; 1.12461E-4
2525.390625; 1.16364E-4
2531.250000; 1.03749E-4
2537.109375; 9.27932E-5
2542.968750; 9.78392E-5
2548.828125; 9.05054E-5
2554.687500; 1.04878E-4
2560.546875; 1.08380E-4
2566.406250; 1.04220E-4
2572.265625; 1.08334E-4
2578.125000; 1.10158E-4
2583.984375; 1.11395E-4
2589.843750; 1.15507E-4
2595.703125; 1.04909E-4
2601.562500; 9.99357E-5
2607.421875; 9.47422E-5
2613.281250; 1.06475E-4
2619.140625; 1.04786E-4
2625.000000; 9.98594E-5
2630.859375; 1.00161E-4
2636.718750; 1.01401E-4
2642.578125; 1.05863E-4
2648.437500; 1.17723E-4
2654.296875; 1.16908E-4
2660.156250; 1.10000E-4
2666.015625; 1.11869E-4
2671.875000; 1.15702E-4
2677.734375; 1.11644E-4
2683.593750; 9.92696E-5
2689.453125; 9.78254E-5
2695.312500; 1.07098E-4
2701.171875; 1.05528E-4
2707.031250; 9.98158E-5
2712.890625; 9.50815E-5
2718.750000; 1.03755E-4
2724.609375; 1.05252E-4
2730.468750; 1.05778E-4
2736.328125; 9.99366E-5
2742.187500; 1.07326E-4
2748.046875; 1.06767E-4
2753.906250; 9.94308E-5
2759.765625; 8.95635E-5
2765.625000; 9.59143E-5
2771.484375; 1.17366E-4
2777.343750; 1.06591E-4
2783.203125; 1.07394E-4
2789.062500; 1.09028E-4
2794.921875; 1.09544E-4
2800.781250; 1.15437E-4
2806.640625; 1.07067E-4
2812.500000; 1.02058E-4
2818.359375; 9.78221E-5
2824.218750; 1.07684E-4
2830.078125; 1.16035E-4
2835.937500; 1.05336E-4
2841.796875; 1.01337E-4
2847.656250; 9.84369E-5
2853.515625; 1.06204E-4
2859.375000; 1.12250E-4
2865.234375; 1.11887E-4
2871.093750; 1.09927E-4
2876.953125; 1.07756E-4
2882.812500; 1.07734E-4
2888.671875; 1.24106E-4
2894.531250; 1.07474E-4
2900.390625; 1.04177E-4
2906.250000; 1.11745E-4
2912.109375; 1.03909E-4
2917.968750; 9.83079E-5
2923.828125; 1.02213E-4
2929.687500; 1.14004E-4
2935.546875; 1.17946E-4
2941.406250; 1.07956E-4
2947.265625; 1.05036E-4
2953.125000; 1.09840E-4
2958.984375; 1.00571E-4
2964.843750; 9.16862E-5
2970.703125; 9.52248E-5
2976.562500; 1.07289E-4
2982.421875; 1.08132E-4
2988.281250; 1.09909E-4
2994.140625; 4.96108E-4
3000.000000; 9.77676E-4
3005.859375; 4.98824E-4
3011.718750; 1.02727E-4
3017.578125; 9.74128E-5
3023.437500; 1.00421E-4
3029.296875; 1.14126E-4
3035.156250; 1.06951E-4
3041.015625; 1.05291E-4
3046.875000; 1.11648E-4
3052.734375; 1.03195E-4
3058.593750; 1.11906E-4
3064.453125; 1.00653E-4
3070.312500; 9.59651E-5
3076.171875; 1.06153E-4
3082.031250; 1.13295E-4
3087.890625; 1.18840E-4
3093.750000; 1.24068E-4
3099.609375; 1.11858E-4
3105.468750; 1.05767E-4
3111.328125; 1.09016E-4
3117.187500; 1.06658E-4
3123.046875; 9.90736E-5
3128.906250; 9.46229E-5
3134.765625; 1.05589E-4
3140.625000; 1.08446E-4
3146.484375; 9.90481E-5
3152.343750; 9.51727E-5
3158.203125; 1.10136E-4
3164.062500; 1.05503E-4
3169.921875; 1.00443E-4
3175.781250; 1.03331E-4
3181.640625; 9.02502E-5
3187.500000; 9.51361E-5
3193.359375; 9.34062E-5
3199.218750; 1.02744E-4
3205.078125; 1.14908E-4
3210.937500; 1.13631E-4
3216.796875; 1.07232E-4
3222.656250; 1.13245E-4
3228.515625; 1.02759E-4
3234.375000; 9.91351E-5
3240.234375; 1.07538E-4
3246.093750; 1.03534E-4
3251.953125; 1.08961E-4
3257.812500; 1.06724E-4
3263.671875; 1.12473E-4
3269.531250; 1.10239E-4
3275.390625; 1.10146E-4
3281.250000; 1.07249E-4
3287.109375; 1.07406E-4
3292.968750; 1.20880E-4
3298.828125; 1.26372E-4
3304.687500; 1.09216E-4
3310.546875; 9.68950E-5
3316.406250; 1.03271E-4
3322.265625; 1.01844E-4
3328.125000; 1.06097E-4
3333.984375; 1.12705E-4
3339.843750; 1.04858E-4
3345.703125; 9.92300E-5
3351.562500; 9.90112E-5
3357.421875; 1.07362E-4
3363.281250; 1.03029E-4
3369.140625; 9.94304E-5
3375.000000; 1.00425E-4
3380.859375; 1.06025E-4
3386.718750; 9.60895E-5
3392.578125; 9.95720E-5
3398.437500; 1.01524E-4
3404.296875; 9.77998E-5
3410.156250; 9.99566E-5
3416.015625; 9.97828E-5
3421.875000; 9.87214E-5
3427.734375; 9.09487E-5
3433.593750; 1.02283E-4
3439.453125; 9.76733E-5
3445.312500; 9.91163E-5
3451.171875; 1.14260E-4
3457.031250; 1.13490E-4
3462.890625; 1.11230E-4
3468.750000; 1.04518E-4
3474.609375; 1.01308E-4
3480.468750; 1.08272E-4
3486.328125; 1.03511E-4
3492.187500; 9.97489E-5
3498.046875; 9.76769E-5
3503.906250; 1.01650E-4
3509.765625; 1.12348E-4
3515.625000; 1.10737E-4
3521.484375; 9.90542E-5
3527.343750; 9.66543E-5
3533.203125; 1.00416E-4
3539.062500; 1.06810E-4
3544.921875; 1.05392E-4
3550.781250; 1.11361E-4
3556.640625; 1.02941E-4
3562.500000; 9.28555E-5
3568.359375; 1.03611E-4
3574.218750; 1.06268E-4
3580.078125; 1.04533E-4
3585.937500; 1.05400E-4
3591.796875; 1.02828E-4
3597.656250; 1.06414E-4
3603.515625; 1.07211E-4
3609.375000; 1.04298E-4
3615.234375; 1.05933E-4
3621.093750; 1.03981E-4
3626.953125; 1.09050E-4
3632.812500; 1.05498E-4
3638.671875; 9.59803E-5
3644.531250; 9.14674E-5
3650.390625; 9.59952E-5
3656.250000; 1.07127E-4
3662.109375; 1.03362E-4
3667.968750; 1.09297E-4
3673.828125; 1.15850E-4
3679.687500; 1.06821E-4
3685.546875; 1.09348E-4
3691.406250; 1.16527E-4
3697.265625; 1.19046E-4
3703.125000; 1.03496E-4
3708.984375; 9.85425E-5
3714.843750; 1.03313E-4
3720.703125; 9.60019E-5
3726.562500; 9.65740E-5
3732.421875; 9.53230E-5
3738.281250; 9.30894E-5
3744.140625; 9.90138E-5
3750.000000; 9.63249E-5
3755.859375; 9.58885E-5
3761.718750; 9.46071E-5
3767.578125; 9.97226E-5
3773.437500; 1.14591E-4
3779.296875; 1.10920E-4
3785.156250; 1.07113E-4
3791.015625; 1.01449E-4
3796.875000; 9.65240E-5
3802.734375; 1.07806E-4
3808.593750; 1.05958E-4
3814.453125; 1.11787E-4
3820.312500; 1.10251E-4
3826.171875; 1.01463E-4
3832.031250; 9.96823E-5
3837.890625; 9.78822E-5
3843.750000; 1.10125E-4
3849.609375; 1.07302E-4
3855.468750; 9.31059E-5
3861.328125; 9.35126E-5
3867.187500; 1.00754E-4
3873.046875; 1.00971E-4
3878.906250; 1.04159E-4
3884.765625; 1.06029E-4
3890.625000; 1.02599E-4
3896.484375; 9.77674E-5
3902.343750; 9.86218E-5
3908.203125; 1.04197E-4
3914.062500; 1.04867E-4
3919.921875; 1.09690E-4
3925.781250; 1.18322E-4
3931.640625; 1.08991E-4
3937.500000; 1.07684E-4
3943.359375; 1.17669E-4
3949.218750; 1.07622E-4
3955.078125; 1.02661E-4
3960.937500; 1.11020E-4
3966.796875; 1.24149E-4
3972.656250; 1.03419E-4
3978.515625; 9.93641E-5
3984.375000; 9.70640E-5
3990.234375; 1.01135E-4
3996.093750; 2.66811E-4
4001.953125; 3.24724E-4
4007.812500; 1.32209E-4
4013.671875; 1.03876E-4
4019.531250; 9.73121E-5
4025.390625; 9.79064E-5
4031.250000; 1.04918E-4
4037.109375; 1.02060E-4
4042.968750; 1.00132E-4
4048.828125; 1.03674E-4
4054.687500; 1.00731E-4
4060.546875; 1.03099E-4
4066.406250; 9.84199E-5
4072.265625; 1.01217E-4
4078.125000; 1.03404E-4
4083.984375; 1.08668E-4
4089.843750; 9.66538E-5
4095.703125; 9.56647E-5
4101.562500; 1.05679E-4
4107.421875; 1.02181E-4
4113.281250; 1.08268E-4
4119.140625; 1.06018E-4
4125.000000; 1.11188E-4
4130.859375; 1.02397E-4
4136.718750; 1.00312E-4
4142.578125; 1.04342E-4
4148.437500; 1.11255E-4
4154.296875; 1.02297E-4
4160.156250; 8.63406E-5
4166.015625; 9.95956E-5
4171.875000; 9.70194E-5
4177.734375; 9.78768E-5
4183.593750; 1.03211E-4
4189.453125; 1.06295E-4
4195.312500; 1.03442E-4
4201.171875; 1.02910E-4
4207.031250; 1.06248E-4
4212.890625; 1.09969E-4
4218.750000; 1.16105E-4
4224.609375; 1.11802E-4
4230.468750; 1.11238E-4
4236.328125; 1.04408E-4
4242.187500; 1.08469E-4
4248.046875; 1.12982E-4
4253.906250; 1.08790E-4
4259.765625; 9.73090E-5
4265.625000; 9.40674E-5
4271.484375; 1.02022E-4
4277.343750; 1.12261E-4
4283.203125; 1.10316E-4
4289.062500; 1.13481E-4
4294.921875; 1.12492E-4
4300.781250; 1.18577E-4
4306.640625; 1.02317E-4
4312.500000; 8.57265E-5
4318.359375; 9.46595E-5
4324.218750; 9.70720E-5
4330.078125; 9.61225E-5
4335.937500; 9.72144E-5
4341.796875; 1.08324E-4
4347.656250; 1.06796E-4
4353.515625; 1.20786E-4
4359.375000; 1.08246E-4
4365.234375; 9.37859E-5
4371.093750; 9.58626E-5
4376.953125; 1.00567E-4
4382.812500; 1.15668E-4
4388.671875; 1.17767E-4
4394.531250; 1.09221E-4
4400.390625; 1.09603E-4
4406.250000; 1.03321E-4
4412.109375; 1.09564E-4
4417.968750; 1.02205E-4
4423.828125; 1.03990E-4
4429.687500; 1.09038E-4
4435.546875; 1.25938E-4
4441.406250; 1.22560E-4
4447.265625; 1.09673E-4
4453.125000; 1.15078E-4
4458.984375; 1.14408E-4
4464.843750; 1.09199E-4
4470.703125; 1.00479E-4
4476.562500; 1.09360E-4
4482.421875; 1.11002E-4
4488.281250; 1.00402E-4
4494.140625; 1.06380E-4
4500.000000; 1.08338E-4
4505.859375; 1.04004E-4
4511.718750; 9.99869E-5
4517.578125; 9.25386E-5
4523.437500; 9.61555E-5
4529.296875; 9.90438E-5
4535.156250; 1.12910E-4
4541.015625; 1.26540E-4
4546.875000; 1.17092E-4
4552.734375; 1.07340E-4
4558.593750; 9.58614E-5
4564.453125; 9.97081E-5
4570.312500; 1.07345E-4
4576.171875; 1.05651E-4
4582.031250; 1.03880E-4
4587.890625; 1.02464E-4
4593.750000; 1.03558E-4
4599.609375; 9.97216E-5
4605.468750; 9.66871E-5
4611.328125; 9.81794E-5
4617.187500; 1.03806E-4
4623.046875; 1.13403E-4
4628.906250; 1.16072E-4
4634.765625; 1.14981E-4
4640.625000; 1.02871E-4
4646.484375; 1.02137E-4
4652.343750; 1.02132E-4
4658.203125; 1.05303E-4
4664.062500; 9.90432E-5
4669.921875; 1.03722E-4
4675.781250; 1.08760E-4
4681.640625; 9.88473E-5
4687.500000; 1.03436E-4
4693.359375; 1.03447E-4
4699.218750; 1.01177E-4
4705.078125; 9.15613E-5
4710.937500; 9.75073E-5
4716.796875; 1.09695E-4
4722.656250; 1.14569E-4
4728.515625; 1.11578E-4
4734.375000; 1.08047E-4
4740.234375; 9.42211E-5
4746.093750; 9.95152E-5
4751.953125; 1.01725E-4
4757.812500; 1.06059E-4
4763.671875; 1.09084E-4
4769.531250; 1.16816E-4
4775.390625; 1.14611E-4
4781.250000; 1.04411E-4
4787.109375; 1.01097E-4
4792.968750; 1.08111E-4
4798.828125; 9.65451E-5
4804.687500; 1.04924E-4
4810.546875; 1.10540E-4
4816.406250; 1.01083E-4
4822.265625; 9.22819E-5
4828.125000; 9.31668E-5
4833.984375; 1.05836E-4
4839.843750; 1.13405E-4
4845.703125; 1.11801E-4
4851.562500; 1.02344E-4
4857.421875; 9.98136E-5
4863.281250; 1.07862E-4
4869.140625; 1.04951E-4
4875.000000; 1.04282E-4
4880.859375; 9.71064E-5
4886.718750; 1.02357E-4
4892.578125; 1.12819E-4
4898.437500; 1.11642E-4
4904.296875; 1.21213E-4
4910.156250; 1.12522E-4
4916.015625; 9.42146E-5
4921.875000; 9.47214E-5
4927.734375; 1.08422E-4
4933.593750; 1.11146E-4
4939.453125; 1.17496E-4
4945.312500; 1.11935E-4
4951.171875; 1.05185E-4
4957.031250; 1.01968E-4
4962.890625; 9.51014E-5
4968.750000; 1.05027E-4
4974.609375; 1.14148E-4
4980.468750; 1.09426E-4
4986.328125; 1.02586E-4
4992.187500; 1.23907E-4
4998.046875; 2.24532E-4
5003.906250; 1.85723E-4
5009.765625; 1.08542E-4
5015.625000; 1.07884E-4
5021.484375; 1.02713E-4
5027.343750; 1.03468E-4
5033.203125; 1.03319E-4
5039.062500; 1.05657E-4
5044.921875; 9.69272E-5
5050.781250; 1.00832E-4
5056.640625; 9.71382E-5
5062.500000; 9.08086E-5
5068.359375; 9.93774E-5
5074.218750; 1.05587E-4
5080.078125; 1.13932E-4
5085.937500; 1.06597E-4
5091.796875; 1.02725E-4
5097.656250; 1.07372E-4
5103.515625; 1.02343E-4
5109.375000; 1.01283E-4
5115.234375; 1.04165E-4
5121.093750; 1.03923E-4
5126.953125; 1.04165E-4
5132.812500; 1.03075E-4
5138.671875; 1.07305E-4
5144.531250; 1.06503E-4
5150.390625; 9.69883E-5
5156.250000; 1.02616E-4
5162.109375; 1.11053E-4
5167.968750; 1.11704E-4
5173.828125; 9.84371E-5
5179.687500; 1.05144E-4
5185.546875; 1.06257E-4
5191.406250; 1.02388E-4
5197.265625; 9.72968E-5
5203.125000; 9.92057E-5
5208.984375; 9.22554E-5
5214.843750; 9.38573E-5
5220.703125; 9.54912E-5
5226.562500; 1.11853E-4
5232.421875; 1.15519E-4
5238.281250; 1.12387E-4
5244.140625; 1.05835E-4
5250.000000; 9.74455E-5
5255.859375; 1.09283E-4
5261.718750; 1.03286E-4
5267.578125; 9.18216E-5
5273.437500; 9.34070E-5
5279.296875; 1.02593E-4
5285.156250; 1.07498E-4
5291.015625; 1.04606E-4
5296.875000; 1.16812E-4
5302.734375; 1.20075E-4
5308.593750; 1.12553E-4
5314.453125; 1.10777E-4
5320.312500; 9.98311E-5
5326.171875; 9.46959E-5
5332.031250; 1.00187E-4
5337.890625; 1.05543E-4
5343.750000; 9.77874E-5
5349.609375; 9.70774E-5
5355.468750; 1.10125E-4
5361.328125; 1.16843E-4
5367.187500; 1.16251E-4
5373.046875; 1.07815E-4
5378.906250; 1.10782E-4
5384.765625; 1.08666E-4
5390.625000; 1.05161E-4
5396.484375; 1.03062E-4
5402.343750; 1.00928E-4
5408.203125; 1.02780E-4
5414.062500; 1.06384E-4
5419.921875; 1.01752E-4
5425.781250; 1.00843E-4
5431.640625; 1.04850E-4
5437.500000; 1.09863E-4
5443.359375; 1.07382E-4
5449.218750; 1.09101E-4
5455.078125; 1.04567E-4
5460.937500; 1.02757E-4
5466.796875; 9.38854E-5
5472.656250; 9.95233E-5
5478.515625; 1.01682E-4
5484.375000; 8.82880E-5
5490.234375; 9.29552E-5
5496.093750; 9.33760E-5
5501.953125; 1.07964E-4
5507.812500; 1.02646E-4
5513.671875; 1.04743E-4
5519.531250; 9.67237E-5
5525.390625; 9.77980E-5
5531.250000; 1.04352E-4
5537.109375; 1.04213E-4
5542.968750; 1.06545E-4
5548.828125; 1.04102E-4
5554.687500; 1.03423E-4
5560.546875; 9.64798E-5
5566.406250; 1.07850E-4
5572.265625; 1.06758E-4
5578.125000; 1.01418E-4
5583.984375; 9.21485E-5
5589.843750; 1.01837E-4
5595.703125; 1.13006E-4
5601.562500; 1.12739E-4
5607.421875; 1.09029E-4
5613.281250; 1.01933E-4
5619.140625; 1.05693E-4
5625.000000; 1.04038E-4
5630.859375; 9.76373E-5
5636.718750; 1.02085E-4
5642.578125; 1.05812E-4
5648.437500; 1.03277E-4
5654.296875; 1.04657E-4
5660.156250; 1.10463E-4
5666.015625; 1.13237E-4
5671.875000; 1.01456E-4
5677.734375; 9.86859E-5
5683.593750; 9.41100E-5
5689.453125; 1.06369E-4
5695.312500; 1.06061E-4
5701.171875; 1.07114E-4
5707.031250; 1.06914E-4
5712.890625; 9.96873E-5
5718.750000; 1.05141E-4
5724.609375; 1.07825E-4
5730.468750; 9.09678E-5
5736.328125; 1.02597E-4
5742.187500; 1.00951E-4
5748.046875; 9.90281E-5
5753.906250; 1.04566E-4
5759.765625; 1.05171E-4
5765.625000; 1.02291E-4
5771.484375; 1.04302E-4
5777.343750; 1.01734E-4
5783.203125; 9.97453E-5
5789.062500; 1.02862E-4
5794.921875; 1.06096E-4
5800.781250; 1.20005E-4
5806.640625; 1.06861E-4
5812.500000; 1.01260E-4
5818.359375; 1.00178E-4
5824.218750; 9.93748E-5
5830.078125; 1.00524E-4
5835.937500; 9.78004E-5
5841.796875; 9.68815E-5
5847.656250; 1.04404E-4
5853.515625; 1.12525E-4
5859.375000; 1.12731E-4
5865.234375; 1.00192E-4
5871.093750; 9.91949E-5
5876.953125; 9.92147E-5
5882.812500; 9.99097E-5
5888.671875; 9.78014E-5
5894.531250; 1.04659E-4
5900.390625; 1.05659E-4
5906.250000; 1.04125E-4
5912.109375; 1.04227E-4
5917.968750; 9.69928E-5
5923.828125; 1.03599E-4
5929.687500; 1.04473E-4
5935.546875; 1.07876E-4
5941.406250; 1.09333E-4
5947.265625; 1.15045E-4
5953.125000; 1.06378E-4
5958.984375; 1.09534E-4
5964.843750; 1.10456E-4
5970.703125; 1.09762E-4
5976.562500; 1.01464E-4
5982.421875; 1.13130E-4
5988.281250; 1.02993E-4
5994.140625; 1.31075E-4
6000.000000; 1.99761E-4
6005.859375; 1.24374E-4
6011.718750; 9.81372E-5
6017.578125; 1.04627E-4
6023.437500; 1.06714E-4
6029.296875; 1.07242E-4
6035.156250; 1.12771E-4
6041.015625; 1.10291E-4
6046.875000; 1.06862E-4
6052.734375; 1.06615E-4
6058.593750; 9.59041E-5
6064.453125; 9.82802E-5
6070.312500; 1.01603E-4
6076.171875; 1.01910E-4
6082.031250; 1.01563E-4
6087.890625; 1.07932E-4
6093.750000; 1.03971E-4
6099.609375; 1.11312E-4
6105.468750; 1.11555E-4
6111.328125; 1.05671E-4
6117.187500; 1.01646E-4
6123.046875; 1.02589E-4
6128.906250; 1.05734E-4
6134.765625; 1.03180E-4
6140.625000; 1.12068E-4
6146.484375; 1.11653E-4
6152.343750; 1.04659E-4
6158.203125; 9.83745E-5
6164.062500; 1.04808E-4
6169.921875; 1.12838E-4
6175.781250; 1.02034E-4
6181.640625; 9.95983E-5
6187.500000; 1.08842E-4
6193.359375; 9.93715E-5
6199.218750; 9.22738E-5
6205.078125; 1.07163E-4
6210.937500; 1.08482E-4
6216.796875; 1.15891E-4
6222.656250; 1.10754E-4
6228.515625; 1.22070E-4
6234.375000; 1.14698E-4
6240.234375; 1.05734E-4
6246.093750; 1.05988E-4
6251.953125; 1.09206E-4
6257.812500; 1.02714E-4
6263.671875; 1.17783E-4
6269.531250; 1.02433E-4
6275.390625; 1.04659E-4
6281.250000; 1.02229E-4
6287.109375; 1.05910E-4
6292.968750; 1.01264E-4
6298.828125; 1.01225E-4
6304.687500; 9.20961E-5
6310.546875; 9.68670E-5
6316.406250; 1.02491E-4
6322.265625; 9.65380E-5
6328.125000; 1.06539E-4
6333.984375; 1.01207E-4
6339.843750; 8.96109E-5
6345.703125; 9.34574E-5
6351.562500; 1.05905E-4
6357.421875; 1.07628E-4
6363.281250; 9.75202E-5
6369.140625; 9.11438E-5
6375.000000; 9.47532E-5
6380.859375; 9.90328E-5
6386.718750; 9.63691E-5
6392.578125; 8.74664E-5
6398.437500; 9.22740E-5
6404.296875; 1.04329E-4
6410.156250; 1.05347E-4
6416.015625; 1.17198E-4
6421.875000; 1.13094E-4
6427.734375; 1.04138E-4
6433.593750; 1.15669E-4
6439.453125; 1.07727E-4
6445.312500; 9.86271E-5
6451.171875; 1.06615E-4
6457.031250; 1.03364E-4
6462.890625; 1.03708E-4
6468.750000; 1.20642E-4
6474.609375; 1.05533E-4
6480.468750; 1.00315E-4
6486.328125; 9.96228E-5
6492.187500; 9.90806E-5
6498.046875; 9.65063E-5
6503.906250; 9.75913E-5
6509.765625; 1.00981E-4
6515.625000; 1.02293E-4
6521.484375; 1.00609E-4
6527.343750; 1.02287E-4
6533.203125; 1.09589E-4
6539.062500; 1.12649E-4
6544.921875; 1.10713E-4
6550.781250; 9.81388E-5
6556.640625; 1.03312E-4
6562.500000; 1.03057E-4
6568.359375; 9.61234E-5
6574.218750; 1.09757E-4
6580.078125; 1.20883E-4
6585.937500; 1.10531E-4
6591.796875; 1.10236E-4
6597.656250; 9.95616E-5
6603.515625; 1.02414E-4
6609.375000; 1.11906E-4
6615.234375; 1.07874E-4
6621.093750; 1.03134E-4
6626.953125; 1.00019E-4
6632.812500; 1.07927E-4
6638.671875; 1.15046E-4
6644.531250; 1.06927E-4
6650.390625; 1.15388E-4
6656.250000; 1.17258E-4
6662.109375; 1.02410E-4
6667.968750; 1.13023E-4
6673.828125; 1.08574E-4
6679.687500; 1.00698E-4
6685.546875; 9.63430E-5
6691.406250; 1.10807E-4
6697.265625; 1.06763E-4
6703.125000; 9.06085E-5
6708.984375; 9.95088E-5
6714.843750; 8.99087E-5
6720.703125; 9.09572E-5
6726.562500; 1.03457E-4
6732.421875; 1.09313E-4
6738.281250; 1.09968E-4
6744.140625; 9.19567E-5
6750.000000; 1.00798E-4
6755.859375; 1.14870E-4
6761.718750; 1.15667E-4
6767.578125; 1.19880E-4
6773.437500; 1.13692E-4
6779.296875; 1.12449E-4
6785.156250; 1.02150E-4
6791.015625; 1.06336E-4
6796.875000; 1.06104E-4
6802.734375; 1.06105E-4
6808.593750; 1.15821E-4
6814.453125; 1.09695E-4
6820.312500; 1.12881E-4
6826.171875; 1.08598E-4
6832.031250; 1.04594E-4
6837.890625; 1.04481E-4
6843.750000; 1.00892E-4
6849.609375; 9.36994E-5
6855.468750; 9.81626E-5
6861.328125; 1.03543E-4
6867.187500; 1.07461E-4
6873.046875; 9.96081E-5
6878.906250; 9.47828E-5
6884.765625; 9.67876E-5
6890.625000; 1.01517E-4
6896.484375; 1.09679E-4
6902.343750; 1.04001E-4
6908.203125; 1.06677E-4
6914.062500; 1.12541E-4
6919.921875; 1.11202E-4
6925.781250; 1.00778E-4
6931.640625; 9.27292E-5
6937.500000; 1.01570E-4
6943.359375; 1.09164E-4
6949.218750; 1.04091E-4
6955.078125; 1.10188E-4
6960.937500; 1.05059E-4
6966.796875; 9.19011E-5
6972.656250; 9.95571E-5
6978.515625; 9.73277E-5
6984.375000; 1.02586E-4
6990.234375; 1.05977E-4
6996.093750; 1.41701E-4
7001.953125; 1.59039E-4
7007.812500; 1.02816E-4
7013.671875; 9.73699E-5
7019.531250; 9.94855E-5
7025.390625; 1.04752E-4
7031.250000; 1.04811E-4
7037.109375; 9.88570E-5
7042.968750; 1.02784E-4
7048.828125; 1.07535E-4
7054.687500; 1.08823E-4
7060.546875; 1.06964E-4
7066.406250; 9.75686E-5
7072.265625; 1.02161E-4
7078.125000; 1.11422E-4
7083.984375; 1.07678E-4
7089.843750; 1.11080E-4
7095.703125; 1.08042E-4
7101.562500; 1.07415E-4
7107.421875; 1.04729E-4
7113.281250; 1.03968E-4
7119.140625; 1.08222E-4
7125.000000; 1.08538E-4
7130.859375; 1.11219E-4
7136.718750; 9.38727E-5
7142.578125; 9.09199E-5
7148.437500; 1.03817E-4
7154.296875; 1.09554E-4
7160.156250; 1.05172E-4
7166.015625; 9.69051E-5
7171.875000; 8.93146E-5
7177.734375; 1.01384E-4
7183.593750; 1.05451E-4
7189.453125; 1.04401E-4
7195.312500; 1.02241E-4
7201.171875; 9.25790E-5
7207.031250; 9.03867E-5
7212.890625; 1.04951E-4
7218.750000; 1.20538E-4
7224.609375; 1.09393E-4
7230.468750; 1.04901E-4
7236.328125; 9.71306E-5
7242.187500; 9.75397E-5
7248.046875; 1.11892E-4
7253.906250; 1.13195E-4
7259.765625; 1.15751E-4
7265.625000; 1.07197E-4
7271.484375; 1.03298E-4
7277.343750; 1.01400E-4
7283.203125; 9.48211E-5
7289.062500; 9.15848E-5
7294.921875; 9.71401E-5
7300.781250; 1.14295E-4
7306.640625; 1.16471E-4
7312.500000; 1.11919E-4
7318.359375; 1.07285E-4
7324.218750; 9.85754E-5
7330.078125; 9.69584E-5
7335.937500; 1.10168E-4
7341.796875; 1.15859E-4
7347.656250; 1.10893E-4
7353.515625; 1.10501E-4
7359.375000; 1.02614E-4
7365.234375; 9.23428E-5
7371.093750; 9.95095E-5
7376.953125; 1.07596E-4
7382.812500; 1.11448E-4
7388.671875; 1.12644E-4
7394.531250; 9.70388E-5
7400.390625; 9.32005E-5
7406.250000; 9.41958E-5
7412.109375; 9.89611E-5
7417.968750; 1.01770E-4
7423.828125; 1.03760E-4
7429.687500; 9.65303E-5
7435.546875; 8.91904E-5
7441.406250; 9.99694E-5
7447.265625; 1.09046E-4
7453.125000; 1.07901E-4
7458.984375; 9.97953E-5
7464.843750; 1.12687E-4
7470.703125; 1.02810E-4
7476.562500; 1.04328E-4
7482.421875; 1.10349E-4
7488.281250; 1.07248E-4
7494.140625; 9.61140E-5
7500.000000; 1.04005E-4
7505.859375; 1.04997E-4
7511.718750; 1.07393E-4
7517.578125; 1.01398E-4
7523.437500; 9.66489E-5
7529.296875; 1.09724E-4
7535.156250; 1.07385E-4
7541.015625; 1.06467E-4
7546.875000; 1.00907E-4
7552.734375; 1.02561E-4
7558.593750; 1.01305E-4
7564.453125; 1.01405E-4
7570.312500; 9.87384E-5
7576.171875; 1.05994E-4
7582.031250; 1.01135E-4
7587.890625; 1.01471E-4
7593.750000; 1.09436E-4
7599.609375; 1.02384E-4
7605.468750; 1.15163E-4
7611.328125; 1.04296E-4
7617.187500; 9.93916E-5
7623.046875; 1.00372E-4
7628.906250; 9.65720E-5
7634.765625; 1.02327E-4
7640.625000; 1.00024E-4
7646.484375; 1.08562E-4
7652.343750; 1.19217E-4
7658.203125; 1.12070E-4
7664.062500; 1.02069E-4
7669.921875; 9.55148E-5
7675.781250; 1.01935E-4
7681.640625; 1.07450E-4
7687.500000; 1.11993E-4
7693.359375; 1.09778E-4
7699.218750; 1.15432E-4
7705.078125; 1.08123E-4
7710.937500; 9.29548E-5
7716.796875; 9.55013E-5
7722.656250; 1.02775E-4
7728.515625; 9.93099E-5
7734.375000; 8.89595E-5
7740.234375; 9.87814E-5
7746.093750; 1.09882E-4
7751.953125; 1.11369E-4
7757.812500; 9.68897E-5
7763.671875; 9.48550E-5
7769.531250; 9.54160E-5
7775.390625; 9.80140E-5
7781.250000; 1.03144E-4
7787.109375; 1.12584E-4
7792.968750; 1.16304E-4
7798.828125; 1.12722E-4
7804.687500; 1.00746E-4
7810.546875; 1.00596E-4
7816.406250; 1.03348E-4
7822.265625; 1.10113E-4
7828.125000; 1.05880E-4
7833.984375; 1.02471E-4
7839.843750; 1.08138E-4
7845.703125; 1.10877E-4
7851.562500; 1.15352E-4
7857.421875; 1.09750E-4
7863.281250; 9.75665E-5
7869.140625; 9.31861E-5
7875.000000; 1.00382E-4
7880.859375; 1.08748E-4
7886.718750; 1.09366E-4
7892.578125; 1.04795E-4
7898.437500; 1.05774E-4
7904.296875; 9.39420E-5
7910.156250; 1.00347E-4
7916.015625; 9.98407E-5
7921.875000; 1.04260E-4
7927.734375; 1.05011E-4
7933.593750; 9.81020E-5
7939.453125; 9.16761E-5
7945.312500; 9.27553E-5
7951.171875; 1.00106E-4
7957.031250; 9.85704E-5
7962.890625; 9.71729E-5
7968.750000; 1.03229E-4
7974.609375; 9.93490E-5
7980.468750; 1.05196E-4
7986.328125; 1.07346E-4
7992.187500; 1.17439E-4
7998.046875; 1.51205E-4
8003.906250; 1.19830E-4
8009.765625; 9.58361E-5
8015.625000; 9.78727E-5
8021.484375; 1.00081E-4
8027.343750; 9.58445E-5
8033.203125; 9.35606E-5
8039.062500; 9.00702E-5
8044.921875; 9.73690E-5
8050.781250; 9.81466E-5
8056.640625; 1.00845E-4
8062.500000; 1.06490E-4
8068.359375; 1.06210E-4
8074.218750; 9.79861E-5
8080.078125; 8.71451E-5
8085.937500; 9.31685E-5
8091.796875; 9.51814E-5
8097.656250; 9.70319E-5
8103.515625; 1.02841E-4
8109.375000; 9.91238E-5
8115.234375; 1.01577E-4
8121.093750; 1.16016E-4
8126.953125; 1.14698E-4
8132.812500; 1.00045E-4
8138.671875; 9.80547E-5
8144.531250; 9.90252E-5
8150.390625; 1.02431E-4
8156.250000; 9.01157E-5
8162.109375; 9.38964E-5
8167.968750; 9.73540E-5
8173.828125; 8.59617E-5
8179.687500; 1.01089E-4
8185.546875; 1.07498E-4
8191.406250; 1.06705E-4
8197.265625; 1.06571E-4
8203.125000; 1.06566E-4
8208.984375; 1.09707E-4
8214.843750; 1.08525E-4
8220.703125; 1.08763E-4
8226.562500; 1.09799E-4
8232.421875; 1.02912E-4
8238.281250; 1.06191E-4
8244.140625; 1.10902E-4
8250.000000; 1.12073E-4
8255.859375; 9.43009E-5
8261.718750; 9.98698E-5
8267.578125; 1.05361E-4
8273.437500; 1.01200E-4
8279.296875; 1.06097E-4
8285.156250; 1.09028E-4
8291.015625; 1.07663E-4
8296.875000; 1.06733E-4
8302.734375; 1.03191E-4
8308.593750; 9.50894E-5
8314.453125; 9.95941E-5
8320.312500; 1.02617E-4
8326.171875; 1.03328E-4
8332.031250; 9.73219E-5
8337.890625; 1.02581E-4
8343.750000; 1.17624E-4
8349.609375; 1.22434E-4
8355.468750; 1.12411E-4
8361.328125; 1.02766E-4
8367.187500; 9.71659E-5
8373.046875; 9.58242E-5
8378.906250; 1.06526E-4
8384.765625; 1.12217E-4
8390.625000; 1.06594E-4
8396.484375; 1.01217E-4
8402.343750; 1.02464E-4
8408.203125; 9.03539E-5
8414.062500; 8.58714E-5
8419.921875; 9.92823E-5
8425.781250; 1.03923E-4
8431.640625; 9.93547E-5
8437.500000; 1.03870E-4
8443.359375; 1.08281E-4
8449.218750; 1.12098E-4
8455.078125; 1.01134E-4
8460.937500; 1.02625E-4
8466.796875; 9.72191E-5
8472.656250; 9.23859E-5
8478.515625; 1.01586E-4
8484.375000; 1.01504E-4
8490.234375; 1.01285E-4
8496.093750; 1.00441E-4
8501.953125; 1.02336E-4
8507.812500; 9.88352E-5
8513.671875; 9.87003E-5
8519.531250; 1.00298E-4
8525.390625; 9.66730E-5
8531.250000; 9.54263E-5
8537.109375; 9.97759E-5
8542.968750; 1.03168E-4
8548.828125; 9.89710E-5
8554.687500; 1.01268E-4
8560.546875; 9.52474E-5
8566.406250; 9.92799E-5
8572.265625; 1.03801E-4
8578.125000; 9.95231E-5
8583.984375; 1.09098E-4
8589.843750; 1.09490E-4
8595.703125; 9.40955E-5
8601.562500; 9.78501E-5
8607.421875; 1.07939E-4
8613.281250; 1.11606E-4
8619.140625; 9.70766E-5
8625.000000; 1.00416E-4
8630.859375; 1.04187E-4
8636.718750; 1.09201E-4
8642.578125; 1.00657E-4
8648.437500; 1.01282E-4
8654.296875; 1.07913E-4
8660.156250; 1.10581E-4
8666.015625; 1.04010E-4
8671.875000; 1.06770E-4
8677.734375; 1.09783E-4
8683.593750; 1.11934E-4
8689.453125; 1.00855E-4
8695.312500; 1.00172E-4
8701.171875; 9.91138E-5
8707.031250; 9.60818E-5
8712.890625; 1.09524E-4
8718.750000; 1.06124E-4
8724.609375; 9.49134E-5
8730.468750; 9.21541E-5
8736.328125; 1.01468E-4
8742.187500; 9.77985E-5
8748.046875; 9.77829E-5
8753.906250; 9.54607E-5
8759.765625; 9.68076E-5
8765.625000; 1.05877E-4
8771.484375; 9.81979E-5
8777.343750; 1.10336E-4
8783.203125; 1.19593E-4
8789.062500; 1.08354E-4
8794.921875; 1.03489E-4
8800.781250; 9.81984E-5
8806.640625; 9.77033E-5
8812.500000; 1.00101E-4
8818.359375; 1.01846E-4
8824.218750; 9.57844E-5
8830.078125; 9.41015E-5
8835.937500; 9.71115E-5
8841.796875; 1.06907E-4
8847.656250; 1.10764E-4
8853.515625; 9.97421E-5
8859.375000; 9.91853E-5
8865.234375; 1.03394E-4
8871.093750; 1.01176E-4
8876.953125; 9.89030E-5
8882.812500; 1.03448E-4
8888.671875; 1.03011E-4
8894.531250; 1.11962E-4
8900.390625; 1.21943E-4
8906.250000; 1.08477E-4
8912.109375; 1.06696E-4
8917.968750; 1.04789E-4
8923.828125; 1.06370E-4
8929.687500; 1.05366E-4
8935.546875; 1.03702E-4
8941.406250; 1.03124E-4
8947.265625; 1.03056E-4
8953.125000; 1.06018E-4
8958.984375; 1.08425E-4
8964.843750; 1.07669E-4
8970.703125; 1.05700E-4
8976.562500; 9.79356E-5
8982.421875; 9.46736E-5
8988.281250; 8.57573E-5
8994.140625; 9.22180E-5
9000.000000; 9.96945E-5
9005.859375; 1.08454E-4
9011.718750; 1.17500E-4
9017.578125; 1.11641E-4
9023.437500; 1.06814E-4
9029.296875; 1.00991E-4
9035.156250; 1.02828E-4
9041.015625; 1.02552E-4
9046.875000; 1.00329E-4
9052.734375; 9.15724E-5
9058.593750; 9.07394E-5
9064.453125; 9.90800E-5
9070.312500; 1.04932E-4
9076.171875; 1.05864E-4
9082.031250; 9.88682E-5
9087.890625; 1.11225E-4
9093.750000; 1.03673E-4
9099.609375; 1.09608E-4
9105.468750; 1.04524E-4
9111.328125; 9.27378E-5
9117.187500; 9.92025E-5
9123.046875; 1.04537E-4
9128.906250; 1.02259E-4
9134.765625; 1.04713E-4
9140.625000; 1.07513E-4
9146.484375; 1.08400E-4
9152.343750; 1.03012E-4
9158.203125; 9.56760E-5
9164.062500; 1.01768E-4
9169.921875; 9.72031E-5
9175.781250; 1.07565E-4
9181.640625; 1.13289E-4
9187.500000; 9.68948E-5
9193.359375; 9.28340E-5
9199.218750; 8.82245E-5
9205.078125; 9.61625E-5
9210.937500; 9.55910E-5
9216.796875; 9.88383E-5
9222.656250; 1.00022E-4
9228.515625; 9.88131E-5
9234.375000; 1.03042E-4
9240.234375; 9.89820E-5
9246.093750; 9.16397E-5
9251.953125; 9.95595E-5
9257.812500; 9.25591E-5
9263.671875; 1.02733E-4
9269.531250; 1.14150E-4
9275.390625; 1.08768E-4
9281.250000; 1.08577E-4
9287.109375; 1.07348E-4
9292.968750; 1.01777E-4
9298.828125; 9.81432E-5
9304.687500; 1.06672E-4
9310.546875; 1.09137E-4
9316.406250; 1.04917E-4
9322.265625; 1.05552E-4
9328.125000; 1.02418E-4
9333.984375; 1.00534E-4
9339.843750; 1.09832E-4
9345.703125; 1.11765E-4
9351.562500; 9.89690E-5
9357.421875; 1.10369E-4
9363.281250; 9.81617E-5
9369.140625; 9.72074E-5
9375.000000; 1.01412E-4
9380.859375; 9.57776E-5
9386.718750; 1.08251E-4
9392.578125; 1.18566E-4
9398.437500; 1.14070E-4
9404.296875; 9.53623E-5
9410.156250; 1.00277E-4
9416.015625; 1.07382E-4
9421.875000; 1.10140E-4
9427.734375; 1.10286E-4
9433.593750; 1.00588E-4
9439.453125; 9.83756E-5
9445.312500; 1.08508E-4
9451.171875; 1.17356E-4
9457.031250; 1.06136E-4
9462.890625; 1.07106E-4
9468.750000; 1.06488E-4
9474.609375; 9.80647E-5
9480.468750; 9.57885E-5
9486.328125; 9.27144E-5
9492.187500; 1.04143E-4
9498.046875; 1.06861E-4
9503.906250; 1.06992E-4
9509.765625; 1.04235E-4
9515.625000; 1.00260E-4
9521.484375; 1.06128E-4
9527.343750; 9.94386E-5
9533.203125; 1.10312E-4
9539.062500; 1.14827E-4
9544.921875; 1.00740E-4
9550.781250; 1.06770E-4
9556.640625; 1.07167E-4
9562.500000; 9.33126E-5
9568.359375; 1.03044E-4
9574.218750; 1.02059E-4
9580.078125; 1.06748E-4
9585.937500; 1.00195E-4
9591.796875; 9.27231E-5
9597.656250; 1.00295E-4
9603.515625; 1.02460E-4
9609.375000; 1.08269E-4
9615.234375; 1.09329E-4
9621.093750; 1.01773E-4
9626.953125; 1.06059E-4
9632.812500; 1.03738E-4
9638.671875; 9.69337E-5
9644.531250; 9.89981E-5
9650.390625; 1.03393E-4
9656.250000; 1.03355E-4
9662.109375; 9.43631E-5
9667.968750; 9.66650E-5
9673.828125; 1.06588E-4
9679.687500; 9.61258E-5
9685.546875; 9.20306E-5
9691.406250; 9.75599E-5
9697.265625; 1.03884E-4
9703.125000; 1.06458E-4
9708.984375; 1.08517E-4
9714.843750; 1.07389E-4
9720.703125; 1.10162E-4
9726.562500; 1.12233E-4
9732.421875; 1.09746E-4
9738.281250; 9.26422E-5
9744.140625; 9.17583E-5
9750.000000; 1.01151E-4
9755.859375; 1.06776E-4
9761.718750; 9.37731E-5
9767.578125; 9.56994E-5
9773.437500; 1.09699E-4
9779.296875; 1.10703E-4
9785.156250; 1.02901E-4
9791.015625; 1.08541E-4
9796.875000; 1.18010E-4
9802.734375; 1.16739E-4
9808.593750; 1.07629E-4
9814.453125; 1.00033E-4
9820.312500; 9.84779E-5
9826.171875; 1.07095E-4
9832.031250; 1.03762E-4
9837.890625; 1.11950E-4
9843.750000; 1.08172E-4
9849.609375; 1.14379E-4
9855.468750; 1.07489E-4
9861.328125; 1.14223E-4
9867.187500; 1.08201E-4
9873.046875; 1.02992E-4
9878.906250; 9.92732E-5
9884.765625; 9.60861E-5
9890.625000; 1.01515E-4
9896.484375; 1.06594E-4
9902.343750; 1.01387E-4
9908.203125; 9.51390E-5
9914.062500; 1.04334E-4
9919.921875; 1.09225E-4
9925.781250; 1.02384E-4
9931.640625; 9.66030E-5
9937.500000; 9.77706E-5
9943.359375; 1.00696E-4
9949.218750; 9.64204E-5
9955.078125; 9.56844E-5
9960.937500; 8.99445E-5
9966.796875; 9.06801E-5
9972.656250; 9.41385E-5
9978.515625; 9.80762E-5
9984.375000; 1.04805E-4
9990.234375; 1.03051E-4
9996.093750; 1.18648E-4
10001.953125; 1.23294E-4
10007.812500; 1.13785E-4
10013.671875; 1.04753E-4
10019.531250; 9.36885E-5
10025.390625; 9.96358E-5
10031.250000; 1.07796E-4
10037.109375; 1.03445E-4
10042.968750; 1.08828E-4
10048.828125; 1.01770E-4
10054.687500; 1.08782E-4
10060.546875; 1.05917E-4
10066.406250; 1.01014E-4
10072.265625; 1.03123E-4
10078.125000; 1.06063E-4
10083.984375; 9.20674E-5
10089.843750; 1.07835E-4
10095.703125; 1.03519E-4
10101.562500; 1.06072E-4
10107.421875; 1.05724E-4
10113.281250; 1.04114E-4
10119.140625; 1.01192E-4
10125.000000; 9.38057E-5
10130.859375; 9.25694E-5
10136.718750; 9.43688E-5
10142.578125; 1.01499E-4
10148.437500; 1.02013E-4
10154.296875; 1.01189E-4
10160.156250; 1.06701E-4
10166.015625; 1.12619E-4
10171.875000; 1.00645E-4
10177.734375; 1.04007E-4
10183.593750; 1.00283E-4
10189.453125; 1.02275E-4
10195.312500; 1.06815E-4
10201.171875; 1.03928E-4
10207.031250; 1.05355E-4
10212.890625; 1.16284E-4
10218.750000; 1.05763E-4
10224.609375; 9.17935E-5
10230.468750; 1.01837E-4
10236.328125; 9.31314E-5
10242.187500; 9.87166E-5
10248.046875; 1.06463E-4
10253.906250; 1.12293E-4
10259.765625; 1.20180E-4
10265.625000; 1.09335E-4
10271.484375; 1.03336E-4
10277.343750; 1.05692E-4
10283.203125; 1.01193E-4
10289.062500; 1.02334E-4
10294.921875; 9.70373E-5
10300.781250; 1.00214E-4
10306.640625; 1.06053E-4
10312.500000; 1.07797E-4
10318.359375; 1.00007E-4
10324.218750; 9.23465E-5
10330.078125; 9.48351E-5
10335.937500; 1.02046E-4
10341.796875; 1.01184E-4
10347.656250; 1.04198E-4
10353.515625; 1.07815E-4
10359.375000; 1.02396E-4
10365.234375; 9.77998E-5
10371.093750; 9.16850E-5
10376.953125; 9.58101E-5
10382.812500; 9.96496E-5
10388.671875; 1.04521E-4
10394.531250; 9.94368E-5
10400.390625; 1.12371E-4
10406.250000; 1.04282E-4
10412.109375; 1.02887E-4
10417.968750; 9.64809E-5
10423.828125; 9.71657E-5
10429.687500; 1.04486E-4
10435.546875; 1.05011E-4
10441.406250; 1.02292E-4
10447.265625; 9.96395E-5
10453.125000; 9.15641E-5
10458.984375; 9.59895E-5
10464.843750; 9.60558E-5
10470.703125; 9.71715E-5
10476.562500; 9.54653E-5
10482.421875; 9.61490E-5
10488.281250; 9.32905E-5
10494.140625; 8.90464E-5
10500.000000; 8.91187E-5
10505.859375; 9.10278E-5
10511.718750; 1.02438E-4
10517.578125; 1.04890E-4
10523.437500; 1.01448E-4
10529.296875; 1.00954E-4
10535.156250; 1.03789E-4
10541.015625; 1.00551E-4
10546.875000; 9.65504E-5
10552.734375; 9.41024E-5
10558.593750; 9.43663E-5
10564.453125; 9.95354E-5
10570.312500; 1.02259E-4
10576.171875; 9.76179E-5
10582.031250; 1.00507E-4
10587.890625; 1.00312E-4
10593.750000; 1.04439E-4
10599.609375; 9.98326E-5
10605.468750; 9.69867E-5
10611.328125; 9.00910E-5
10617.187500; 9.58060E-5
10623.046875; 1.03026E-4
10628.906250; 1.09099E-4
10634.765625; 9.73826E-5
10640.625000; 1.06433E-4
10646.484375; 1.04359E-4
10652.343750; 1.01810E-4
10658.203125; 1.02987E-4
10664.062500; 9.43773E-5
10669.921875; 1.01198E-4
10675.781250; 1.05559E-4
10681.640625; 1.02260E-4
10687.500000; 1.01090E-4
10693.359375; 1.02844E-4
10699.218750; 8.52297E-5
10705.078125; 9.30756E-5
10710.937500; 1.00199E-4
10716.796875; 1.00945E-4
10722.656250; 1.02951E-4
10728.515625; 1.07889E-4
10734.375000; 1.09706E-4
10740.234375; 1.11069E-4
10746.093750; 1.11553E-4
10751.953125; 1.03062E-4
10757.812500; 9.55989E-5
10763.671875; 1.00452E-4
10769.531250; 1.06588E-4
10775.390625; 1.12579E-4
10781.250000; 1.11559E-4
10787.109375; 1.04725E-4
10792.968750; 1.04337E-4
10798.828125; 1.07825E-4
10804.687500; 1.10866E-4
10810.546875; 1.06158E-4
10816.406250; 9.90197E-5
10822.265625; 1.03929E-4
10828.125000; 1.00140E-4
10833.984375; 9.57255E-5
10839.843750; 1.05508E-4
10845.703125; 1.02197E-4
10851.562500; 1.09189E-4
10857.421875; 1.10119E-4
10863.281250; 1.01579E-4
10869.140625; 9.69164E-5
10875.000000; 1.06109E-4
10880.859375; 1.05153E-4
10886.718750; 9.82992E-5
10892.578125; 1.04700E-4
10898.437500; 1.00222E-4
10904.296875; 9.98157E-5
10910.156250; 9.51437E-5
10916.015625; 1.02815E-4
10921.875000; 1.04029E-4
10927.734375; 9.93828E-5
10933.593750; 1.07065E-4
10939.453125; 1.06466E-4
10945.312500; 1.08616E-4
10951.171875; 9.97307E-5
10957.031250; 1.07988E-4
10962.890625; 1.08659E-4
10968.750000; 9.48592E-5
10974.609375; 1.19319E-4
10980.468750; 1.09652E-4
10986.328125; 8.70773E-5
10992.187500; 9.28480E-5
10998.046875; 1.07775E-4
11003.906250; 1.04664E-4
11009.765625; 1.08531E-4
11015.625000; 1.04144E-4
11021.484375; 1.09007E-4
11027.343750; 1.02962E-4
11033.203125; 1.02925E-4
11039.062500; 1.14847E-4
11044.921875; 1.10047E-4
11050.781250; 1.03057E-4
11056.640625; 9.16528E-5
11062.500000; 9.39736E-5
11068.359375; 1.02834E-4
11074.218750; 1.02738E-4
11080.078125; 9.68639E-5
11085.937500; 9.66356E-5
11091.796875; 9.15321E-5
11097.656250; 9.11294E-5
11103.515625; 1.01538E-4
11109.375000; 1.06330E-4
11115.234375; 1.10769E-4
11121.093750; 1.08783E-4
11126.953125; 1.04977E-4
11132.812500; 1.04628E-4
11138.671875; 1.00799E-4
11144.531250; 1.01173E-4
11150.390625; 9.71553E-5
11156.250000; 9.00021E-5
11162.109375; 9.75055E-5
11167.968750; 1.01989E-4
11173.828125; 1.02007E-4
11179.687500; 1.07218E-4
11185.546875; 1.06392E-4
11191.406250; 9.52058E-5
11197.265625; 9.79880E-5
11203.125000; 9.98094E-5
11208.984375; 1.09342E-4
11214.843750; 1.13602E-4
11220.703125; 1.00045E-4
11226.562500; 1.08183E-4
11232.421875; 1.09962E-4
11238.281250; 1.00048E-4
11244.140625; 9.98085E-5
11250.000000; 1.10153E-4
11255.859375; 1.07993E-4
11261.718750; 9.65734E-5
11267.578125; 9.26589E-5
11273.437500; 1.02271E-4
11279.296875; 1.10192E-4
11285.156250; 1.03995E-4
11291.015625; 1.06091E-4
11296.875000; 1.00683E-4
11302.734375; 1.07343E-4
11308.593750; 1.07685E-4
11314.453125; 1.09123E-4
11320.312500; 1.03807E-4
11326.171875; 9.76207E-5
11332.031250; 1.05340E-4
11337.890625; 1.05957E-4
11343.750000; 1.08324E-4
11349.609375; 1.09785E-4
11355.468750; 1.08472E-4
11361.328125; 1.01708E-4
11367.187500; 1.09725E-4
11373.046875; 1.10416E-4
11378.906250; 1.03187E-4
11384.765625; 1.04798E-4
11390.625000; 1.03245E-4
11396.484375; 9.99680E-5
11402.343750; 1.09880E-4
11408.203125; 1.06058E-4
11414.062500; 1.09529E-4
11419.921875; 1.10751E-4
11425.781250; 1.04971E-4
11431.640625; 1.02231E-4
11437.500000; 1.15762E-4
11443.359375; 1.17698E-4
11449.218750; 1.13299E-4
11455.078125; 9.56651E-5
11460.937500; 1.11056E-4
11466.796875; 1.13333E-4
11472.656250; 9.98571E-5
11478.515625; 1.06478E-4
11484.375000; 1.06853E-4
11490.234375; 9.95768E-5
11496.093750; 1.02937E-4
11501.953125; 9.52178E-5
11507.812500; 9.06521E-5
11513.671875; 1.04158E-4
11519.531250; 1.08208E-4
11525.390625; 1.16162E-4
11531.250000; 1.05382E-4
11537.109375; 1.01824E-4
11542.968750; 1.00620E-4
11548.828125; 1.03363E-4
11554.687500; 9.47325E-5
11560.546875; 1.06144E-4
11566.406250; 1.01353E-4
11572.265625; 1.02789E-4
11578.125000; 1.07467E-4
11583.984375; 1.11108E-4
11589.843750; 1.11160E-4
11595.703125; 1.11024E-4
11601.562500; 1.04932E-4
11607.421875; 1.02279E-4
11613.281250; 9.66090E-5
11619.140625; 9.82109E-5
11625.000000; 9.15533E-5
11630.859375; 9.46786E-5
11636.718750; 9.36260E-5
11642.578125; 9.09709E-5
11648.437500; 1.03356E-4
11654.296875; 1.03998E-4
11660.156250; 9.92720E-5
11666.015625; 8.91801E-5
11671.875000; 9.46366E-5
11677.734375; 9.89565E-5
11683.593750; 1.06942E-4
11689.453125; 1.06756E-4
11695.312500; 1.11585E-4
11701.171875; 1.02183E-4
11707.031250; 9.53441E-5
11712.890625; 1.08159E-4
11718.750000; 1.11550E-4
11724.609375; 1.15847E-4
11730.468750; 1.04634E-4
11736.328125; 1.17867E-4
11742.187500; 1.10506E-4
11748.046875; 1.13555E-4
11753.906250; 1.19394E-4
11759.765625; 1.05464E-4
11765.625000; 1.03088E-4
11771.484375; 9.76945E-5
11777.343750; 1.00103E-4
11783.203125; 1.05963E-4
11789.062500; 1.09886E-4
11794.921875; 1.13826E-4
11800.781250; 1.03190E-4
11806.640625; 1.12380E-4
11812.500000; 1.07241E-4
11818.359375; 1.06874E-4
11824.218750; 1.03571E-4
11830.078125; 9.95404E-5
11835.937500; 9.84101E-5
11841.796875; 1.05240E-4
11847.656250; 1.11465E-4
11853.515625; 1.04201E-4
11859.375000; 9.76855E-5
11865.234375; 9.30589E-5
11871.093750; 9.78664E-5
11876.953125; 1.03216E-4
11882.812500; 9.83765E-5
11888.671875; 1.02181E-4
11894.531250; 1.00885E-4
11900.390625; 9.25669E-5
11906.250000; 1.00876E-4
11912.109375; 1.07160E-4
11917.968750; 1.01604E-4
11923.828125; 1.09256E-4
11929.687500; 1.05043E-4
11935.546875; 9.85401E-5
11941.406250; 1.06371E-4
11947.265625; 1.14932E-4
11953.125000; 1.18286E-4
11958.984375; 1.02836E-4
11964.843750; 9.36276E-5
11970.703125; 9.75321E-5
11976.562500; 1.01368E-4
11982.421875; 1.02953E-4
11988.281250; 1.02931E-4
11994.140625; 9.71477E-5
12000.000000; 1.01517E-4
12005.859375; 9.32610E-5
12011.718750; 9.27740E-5
12017.578125; 1.02135E-4
12023.437500; 1.06324E-4
12029.296875; 9.77983E-5
12035.156250; 1.00454E-4
12041.015625; 9.97085E-5
12046.875000; 9.18409E-5
12052.734375; 1.00101E-4
12058.593750; 9.43176E-5
12064.453125; 9.41089E-5
12070.312500; 9.63740E-5
12076.171875; 9.24013E-5
12082.031250; 9.35692E-5
12087.890625; 9.92496E-5
12093.750000; 1.00196E-4
12099.609375; 9.41739E-5
12105.468750; 9.95955E-5
12111.328125; 1.00770E-4
12117.187500; 9.43266E-5
12123.046875; 1.00341E-4
12128.906250; 9.95012E-5
12134.765625; 1.12533E-4
12140.625000; 1.07616E-4
12146.484375; 9.42608E-5
12152.343750; 1.00532E-4
12158.203125; 9.99105E-5
12164.062500; 1.02244E-4
12169.921875; 9.89138E-5
12175.781250; 1.00170E-4
12181.640625; 1.07603E-4
12187.500000; 1.06805E-4
12193.359375; 9.73335E-5
12199.218750; 9.36866E-5
12205.078125; 1.04629E-4
12210.937500; 1.04806E-4
12216.796875; 1.01969E-4
12222.656250; 9.93147E-5
12228.515625; 1.07396E-4
12234.375000; 1.04717E-4
12240.234375; 1.04034E-4
12246.093750; 1.05497E-4
12251.953125; 1.07146E-4
12257.812500; 9.88528E-5
12263.671875; 9.91432E-5
12269.531250; 9.57465E-5
12275.390625; 1.06361E-4
12281.250000; 1.07384E-4
12287.109375; 1.08087E-4
12292.968750; 1.03137E-4
12298.828125; 9.95013E-5
12304.687500; 1.11066E-4
12310.546875; 1.01414E-4
12316.406250; 9.87041E-5
12322.265625; 9.73024E-5
12328.125000; 1.02698E-4
12333.984375; 9.70396E-5
12339.843750; 9.33646E-5
12345.703125; 1.02832E-4
12351.562500; 1.03506E-4
12357.421875; 1.06477E-4
12363.281250; 1.01122E-4
12369.140625; 1.05073E-4
12375.000000; 1.02114E-4
12380.859375; 1.03059E-4
12386.718750; 9.89078E-5
12392.578125; 1.01748E-4
12398.437500; 9.60055E-5
12404.296875; 1.02739E-4
12410.156250; 1.05909E-4
12416.015625; 9.41337E-5
12421.875000; 1.00806E-4
12427.734375; 1.11697E-4
12433.593750; 1.05108E-4
12439.453125; 1.00526E-4
12445.312500; 1.07712E-4
12451.171875; 1.06196E-4
12457.031250; 9.48230E-5
12462.890625; 1.03647E-4
12468.750000; 1.02496E-4
12474.609375; 9.71153E-5
12480.468750; 1.02042E-4
12486.328125; 1.09943E-4
12492.187500; 1.20778E-4
12498.046875; 1.09588E-4
12503.906250; 1.02569E-4
12509.765625; 1.04455E-4
12515.625000; 1.09548E-4
12521.484375; 1.09190E-4
12527.343750; 1.09098E-4
12533.203125; 1.05324E-4
12539.062500; 1.07479E-4
12544.921875; 1.05082E-4
12550.781250; 9.40941E-5
12556.640625; 9.38319E-5
12562.500000; 9.74684E-5
12568.359375; 1.06911E-4
12574.218750; 1.01442E-4
12580.078125; 1.05376E-4
12585.937500; 1.05200E-4
12591.796875; 9.78150E-5
12597.656250; 9.73258E-5
12603.515625; 9.95680E-5
12609.375000; 1.02331E-4
12615.234375; 1.03319E-4
12621.093750; 1.07893E-4
12626.953125; 1.05362E-4
12632.812500; 1.00326E-4
12638.671875; 9.75656E-5
12644.531250; 9.27712E-5
12650.390625; 9.19030E-5
12656.250000; 1.01059E-4
12662.109375; 1.03913E-4
12667.968750; 1.08657E-4
12673.828125; 1.09724E-4
12679.687500; 9.72383E-5
12685.546875; 8.84761E-5
12691.406250; 9.62330E-5
12697.265625; 1.01480E-4
12703.125000; 1.09662E-4
12708.984375; 1.04881E-4
12714.843750; 9.75309E-5
12720.703125; 9.96427E-5
12726.562500; 1.01652E-4
12732.421875; 9.75531E-5
12738.281250; 9.21552E-5
12744.140625; 9.90322E-5
12750.000000; 1.08630E-4
12755.859375; 1.07256E-4
12761.718750; 1.04385E-4
12767.578125; 1.14059E-4
12773.437500; 1.05275E-4
12779.296875; 1.04877E-4
12785.156250; 1.06418E-4
12791.015625; 1.05778E-4
12796.875000; 1.11365E-4
12802.734375; 1.04236E-4
12808.593750; 1.01005E-4
12814.453125; 9.52649E-5
12820.312500; 9.34182E-5
12826.171875; 1.05705E-4
12832.031250; 1.11367E-4
12837.890625; 1.05318E-4
12843.750000; 1.05868E-4
12849.609375; 1.13178E-4
12855.468750; 1.05717E-4
12861.328125; 9.57470E-5
12867.187500; 1.02009E-4
12873.046875; 1.04022E-4
12878.906250; 8.93929E-5
12884.765625; 9.56263E-5
12890.625000; 9.98511E-5
12896.484375; 1.02860E-4
12902.343750; 1.05565E-4
12908.203125; 9.79921E-5
12914.062500; 9.84998E-5
12919.921875; 8.67796E-5
12925.781250; 9.57201E-5
12931.640625; 1.05961E-4
12937.500000; 1.10655E-4
12943.359375; 1.11430E-4
12949.218750; 1.08416E-4
12955.078125; 1.10611E-4
12960.937500; 9.34069E-5
12966.796875; 8.81726E-5
12972.656250; 9.85050E-5
12978.515625; 9.69779E-5
12984.375000; 1.04403E-4
12990.234375; 1.08905E-4
12996.093750; 1.09230E-4
13001.953125; 1.07321E-4
13007.812500; 1.02431E-4
13013.671875; 1.03377E-4
13019.531250; 1.05069E-4
13025.390625; 1.05475E-4
13031.250000; 1.03402E-4
13037.109375; 1.00368E-4
13042.968750; 9.62453E-5
13048.828125; 9.70848E-5
13054.687500; 9.99673E-5
13060.546875; 1.04148E-4
13066.406250; 9.68755E-5
13072.265625; 1.01510E-4
13078.125000; 1.06904E-4
13083.984375; 9.73966E-5
13089.843750; 9.49091E-5
13095.703125; 1.00271E-4
13101.562500; 9.90771E-5
13107.421875; 8.84547E-5
13113.281250; 9.06111E-5
13119.140625; 9.76178E-5
13125.000000; 9.75287E-5
13130.859375; 1.02092E-4
13136.718750; 1.01381E-4
13142.578125; 1.06859E-4
13148.437500; 1.04058E-4
13154.296875; 9.21875E-5
13160.156250; 1.02802E-4
13166.015625; 1.04907E-4
13171.875000; 1.02677E-4
13177.734375; 1.03697E-4
13183.593750; 1.04325E-4
13189.453125; 1.07200E-4
13195.312500; 1.07546E-4
13201.171875; 1.04221E-4
13207.031250; 1.04766E-4
13212.890625; 1.01230E-4
13218.750000; 9.59750E-5
13224.609375; 9.88775E-5
13230.468750; 9.35928E-5
13236.328125; 1.07806E-4
13242.187500; 1.19494E-4
13248.046875; 1.08172E-4
13253.906250; 9.77067E-5
13259.765625; 9.92249E-5
13265.625000; 1.01564E-4
13271.484375; 9.75043E-5
13277.343750; 1.02059E-4
13283.203125; 9.49915E-5
13289.062500; 8.57561E-5
13294.921875; 9.24196E-5
13300.781250; 9.64917E-5
13306.640625; 9.07749E-5
13312.500000; 9.31271E-5
13318.359375; 1.01372E-4
13324.218750; 1.05653E-4
13330.078125; 1.08805E-4
13335.937500; 1.10982E-4
13341.796875; 1.06650E-4
13347.656250; 1.05084E-4
13353.515625; 1.07640E-4
13359.375000; 9.23060E-5
13365.234375; 9.62635E-5
13371.093750; 1.04703E-4
13376.953125; 1.07027E-4
13382.812500; 1.10025E-4
13388.671875; 1.06188E-4
13394.531250; 9.90290E-5
13400.390625; 9.63710E-5
13406.250000; 9.57515E-5
13412.109375; 1.00107E-4
13417.968750; 1.13711E-4
13423.828125; 1.08112E-4
13429.687500; 9.65805E-5
13435.546875; 9.59671E-5
13441.406250; 1.06640E-4
13447.265625; 9.78299E-5
13453.125000; 1.03168E-4
13458.984375; 1.06483E-4
13464.843750; 1.03708E-4
13470.703125; 1.02276E-4
13476.562500; 1.07798E-4
13482.421875; 1.04843E-4
13488.281250; 1.09366E-4
13494.140625; 1.02245E-4
13500.000000; 1.00499E-4
13505.859375; 1.09994E-4
13511.718750; 1.01425E-4
13517.578125; 9.51081E-5
13523.437500; 9.65107E-5
13529.296875; 8.96924E-5
13535.156250; 9.06056E-5
13541.015625; 9.69332E-5
13546.875000; 9.22796E-5
13552.734375; 9.19953E-5
13558.593750; 8.68623E-5
13564.453125; 8.51977E-5
13570.312500; 9.49285E-5
13576.171875; 9.65459E-5
13582.031250; 8.59456E-5
13587.890625; 9.39732E-5
13593.750000; 1.06718E-4
13599.609375; 1.08658E-4
13605.468750; 1.00612E-4
13611.328125; 1.00141E-4
13617.187500; 1.05443E-4
13623.046875; 9.74368E-5
13628.906250; 9.31960E-5
13634.765625; 8.91647E-5
13640.625000; 9.82886E-5
13646.484375; 1.01543E-4
13652.343750; 9.85708E-5
13658.203125; 1.12807E-4
13664.062500; 1.14574E-4
13669.921875; 1.01085E-4
13675.781250; 1.04073E-4
13681.640625; 1.13749E-4
13687.500000; 9.65515E-5
13693.359375; 9.20175E-5
13699.218750; 1.01471E-4
13705.078125; 1.08961E-4
13710.937500; 1.02603E-4
13716.796875; 1.02530E-4
13722.656250; 1.01492E-4
13728.515625; 1.00433E-4
13734.375000; 1.03824E-4
13740.234375; 1.00112E-4
13746.093750; 1.00327E-4
13751.953125; 9.72085E-5
13757.812500; 9.51697E-5
13763.671875; 9.10056E-5
13769.531250; 9.26875E-5
13775.390625; 9.38548E-5
13781.250000; 9.16034E-5
13787.109375; 9.72466E-5
13792.968750; 1.04114E-4
13798.828125; 9.88045E-5
13804.687500; 9.76429E-5
13810.546875; 9.74096E-5
13816.406250; 9.67574E-5
13822.265625; 9.55989E-5
13828.125000; 9.89757E-5
13833.984375; 1.03611E-4
13839.843750; 1.05084E-4
13845.703125; 1.01817E-4
13851.562500; 9.70774E-5
13857.421875; 9.62831E-5
13863.281250; 9.99243E-5
13869.140625; 9.98418E-5
13875.000000; 9.79541E-5
13880.859375; 9.71645E-5
13886.718750; 1.10080E-4
13892.578125; 1.06251E-4
13898.437500; 9.75092E-5
13904.296875; 1.03004E-4
13910.156250; 9.70843E-5
13916.015625; 1.03622E-4
13921.875000; 1.08143E-4
13927.734375; 1.06907E-4
13933.593750; 1.02159E-4
13939.453125; 9.90519E-5
13945.312500; 1.01523E-4
13951.171875; 9.29507E-5
13957.031250; 1.04341E-4
13962.890625; 1.02549E-4
13968.750000; 9.40430E-5
13974.609375; 9.98825E-5
13980.468750; 9.69781E-5
13986.328125; 1.00313E-4
13992.187500; 1.07107E-4
13998.046875; 1.06696E-4
14003.906250; 1.10944E-4
14009.765625; 1.01036E-4
14015.625000; 9.85599E-5
14021.484375; 1.05035E-4
14027.343750; 9.62907E-5
14033.203125; 9.39321E-5
14039.062500; 9.50558E-5
14044.921875; 1.00596E-4
14050.781250; 1.02412E-4
14056.640625; 9.68310E-5
14062.500000; 9.88558E-5
14068.359375; 9.86426E-5
14074.218750; 1.00296E-4
14080.078125; 9.88155E-5
14085.937500; 9.70615E-5
14091.796875; 9.71511E-5
14097.656250; 9.45601E-5
14103.515625; 9.27401E-5
14109.375000; 9.66653E-5
14115.234375; 1.00613E-4
14121.093750; 1.07453E-4
14126.953125; 9.94994E-5
14132.812500; 1.04565E-4
14138.671875; 9.85736E-5
14144.531250; 1.03067E-4
14150.390625; 1.07001E-4
14156.250000; 1.00162E-4
14162.109375; 1.06262E-4
14167.968750; 9.73463E-5
14173.828125; 9.52038E-5
14179.687500; 1.02754E-4
14185.546875; 1.05959E-4
14191.406250; 1.11115E-4
14197.265625; 9.61606E-5
14203.125000; 9.86329E-5
14208.984375; 9.43669E-5
14214.843750; 9.93720E-5
14220.703125; 9.38863E-5
14226.562500; 1.02717E-4
14232.421875; 1.04383E-4
14238.281250; 9.48834E-5
14244.140625; 1.00272E-4
14250.000000; 1.09324E-4
14255.859375; 1.06197E-4
14261.718750; 1.05213E-4
14267.578125; 9.10671E-5
14273.437500; 1.00138E-4
14279.296875; 1.03518E-4
14285.156250; 8.93574E-5
14291.015625; 9.07164E-5
14296.875000; 9.85781E-5
14302.734375; 9.76846E-5
14308.593750; 9.01474E-5
14314.453125; 1.01655E-4
14320.312500; 1.05688E-4
14326.171875; 1.02539E-4
14332.031250; 1.00198E-4
14337.890625; 9.44897E-5
14343.750000; 9.64705E-5
14349.609375; 1.06783E-4
14355.468750; 1.04744E-4
14361.328125; 1.06623E-4
14367.187500; 9.60137E-5
14373.046875; 9.47400E-5
14378.906250; 1.05111E-4
14384.765625; 9.80432E-5
14390.625000; 9.68448E-5
14396.484375; 1.04091E-4
14402.343750; 1.01137E-4
14408.203125; 1.07775E-4
14414.062500; 1.03452E-4
14419.921875; 1.00824E-4
14425.781250; 1.06912E-4
14431.640625; 1.04918E-4
14437.500000; 9.90571E-5
14443.359375; 9.57791E-5
14449.218750; 9.52914E-5
14455.078125; 9.04185E-5
14460.937500; 8.81743E-5
14466.796875; 1.04925E-4
14472.656250; 1.03740E-4
14478.515625; 1.02224E-4
14484.375000; 1.03126E-4
14490.234375; 9.76730E-5
14496.093750; 1.00610E-4
14501.953125; 1.01932E-4
14507.812500; 1.00371E-4
14513.671875; 1.01736E-4
14519.531250; 1.05792E-4
14525.390625; 1.05220E-4
14531.250000; 1.03589E-4
14537.109375; 1.03966E-4
14542.968750; 1.03806E-4
14548.828125; 1.04853E-4
14554.687500; 1.04319E-4
14560.546875; 1.00549E-4
14566.406250; 1.05159E-4
14572.265625; 9.66648E-5
14578.125000; 9.99763E-5
14583.984375; 9.37226E-5
14589.843750; 9.33832E-5
14595.703125; 1.03990E-4
14601.562500; 1.12442E-4
14607.421875; 1.12436E-4
14613.281250; 1.00095E-4
14619.140625; 9.31886E-5
14625.000000; 9.76296E-5
14630.859375; 9.69394E-5
14636.718750; 9.29761E-5
14642.578125; 8.87121E-5
14648.437500; 9.45711E-5
14654.296875; 9.15500E-5
14660.156250; 1.01347E-4
14666.015625; 9.88209E-5
14671.875000; 9.32020E-5
14677.734375; 1.02983E-4
14683.593750; 1.00011E-4
14689.453125; 8.64061E-5
14695.312500; 9.34950E-5
14701.171875; 1.01776E-4
14707.031250; 1.01167E-4
14712.890625; 9.83419E-5
14718.750000; 1.01732E-4
14724.609375; 1.01395E-4
14730.468750; 9.33183E-5
14736.328125; 9.55852E-5
14742.187500; 9.14636E-5
14748.046875; 8.56537E-5
14753.906250; 9.26213E-5
14759.765625; 1.03240E-4
14765.625000; 1.11797E-4
14771.484375; 1.03266E-4
14777.343750; 1.12565E-4
14783.203125; 9.61819E-5
14789.062500; 8.70601E-5
14794.921875; 9.65691E-5
14800.781250; 1.05463E-4
14806.640625; 1.06486E-4
14812.500000; 1.08343E-4
14818.359375; 9.58957E-5
14824.218750; 9.68463E-5
14830.078125; 9.33168E-5
14835.937500; 9.22366E-5
14841.796875; 1.00275E-4
14847.656250; 9.77396E-5
14853.515625; 8.70687E-5
14859.375000; 9.19022E-5
14865.234375; 9.92122E-5
14871.093750; 9.29593E-5
14876.953125; 9.99961E-5
14882.812500; 1.06379E-4
14888.671875; 1.06001E-4
14894.531250; 9.72851E-5
14900.390625; 1.00542E-4
14906.250000; 9.59123E-5
14912.109375; 9.27810E-5
14917.968750; 9.96849E-5
14923.828125; 1.00563E-4
14929.687500; 9.78670E-5
14935.546875; 9.87530E-5
14941.406250; 1.02381E-4
14947.265625; 1.01468E-4
14953.125000; 1.02167E-4
14958.984375; 8.91179E-5
14964.843750; 9.01650E-5
14970.703125; 9.21249E-5
14976.562500; 1.02999E-4
14982.421875; 1.04508E-4
14988.281250; 9.78366E-5
14994.140625; 9.88822E-5
15000.000000; 1.09196E-4
15005.859375; 9.84202E-5
15011.718750; 9.50106E-5
15017.578125; 9.70095E-5
15023.437500; 1.08150E-4
15029.296875; 1.02167E-4
15035.156250; 1.04053E-4
15041.015625; 9.94167E-5
15046.875000; 1.06721E-4
15052.734375; 1.04202E-4
15058.593750; 1.00719E-4
15064.453125; 9.72939E-5
15070.312500; 9.87542E-5
15076.171875; 1.01154E-4
15082.031250; 9.65235E-5
15087.890625; 9.03007E-5
15093.750000; 9.23472E-5
15099.609375; 9.86635E-5
15105.468750; 1.01161E-4
15111.328125; 9.79037E-5
15117.187500; 9.78585E-5
15123.046875; 9.63077E-5
15128.906250; 9.64784E-5
15134.765625; 9.26766E-5
15140.625000; 9.48854E-5
15146.484375; 9.95674E-5
15152.343750; 9.73406E-5
15158.203125; 9.54648E-5
15164.062500; 1.05731E-4
15169.921875; 1.05979E-4
15175.781250; 1.09322E-4
15181.640625; 1.12002E-4
15187.500000; 1.02091E-4
15193.359375; 8.84717E-5
15199.218750; 9.82495E-5
15205.078125; 8.74933E-5
15210.937500; 9.85903E-5
15216.796875; 1.05329E-4
15222.656250; 9.59982E-5
15228.515625; 9.67178E-5
15234.375000; 9.65832E-5
15240.234375; 1.04107E-4
15246.093750; 9.79556E-5
15251.953125; 1.00286E-4
15257.812500; 9.40987E-5
15263.671875; 9.18659E-5
15269.531250; 9.53865E-5
15275.390625; 9.91415E-5
15281.250000; 9.36309E-5
15287.109375; 1.06689E-4
15292.968750; 1.14200E-4
15298.828125; 1.05635E-4
15304.687500; 9.48048E-5
15310.546875; 1.04978E-4
15316.406250; 9.44026E-5
15322.265625; 9.70299E-5
15328.125000; 1.05055E-4
15333.984375; 9.38197E-5
15339.843750; 9.25389E-5
15345.703125; 1.00820E-4
15351.562500; 9.64855E-5
15357.421875; 9.67029E-5
15363.281250; 9.90911E-5
15369.140625; 1.01326E-4
15375.000000; 1.03575E-4
15380.859375; 9.87886E-5
15386.718750; 9.28087E-5
15392.578125; 9.06541E-5
15398.437500; 9.01897E-5
15404.296875; 9.53346E-5
15410.156250; 9.92052E-5
15416.015625; 1.04733E-4
15421.875000; 1.03143E-4
15427.734375; 1.04153E-4
15433.593750; 9.92095E-5
15439.453125; 1.03826E-4
15445.312500; 9.88763E-5
15451.171875; 1.04428E-4
15457.031250; 1.02241E-4
15462.890625; 9.63333E-5
15468.750000; 1.02018E-4
15474.609375; 1.04358E-4
15480.468750; 9.23851E-5
15486.328125; 9.23563E-5
15492.187500; 9.38024E-5
15498.046875; 9.48010E-5
15503.906250; 8.64164E-5
15509.765625; 8.92120E-5
15515.625000; 1.01855E-4
15521.484375; 1.14686E-4
15527.343750; 1.13116E-4
15533.203125; 1.03773E-4
15539.062500; 1.05434E-4
15544.921875; 1.03175E-4
15550.781250; 1.04036E-4
15556.640625; 1.03053E-4
15562.500000; 9.53939E-5
15568.359375; 8.36058E-5
15574.218750; 9.51020E-5
15580.078125; 1.01274E-4
15585.937500; 1.00303E-4
15591.796875; 9.57015E-5
15597.656250; 9.87893E-5
15603.515625; 9.12858E-5
15609.375000; 8.91533E-5
15615.234375; 9.57718E-5
15621.093750; 9.45169E-5
15626.953125; 8.93028E-5
15632.812500; 9.28617E-5
15638.671875; 1.07911E-4
15644.531250; 1.06115E-4
15650.390625; 1.06526E-4
15656.250000; 1.01281E-4
15662.109375; 9.76192E-5
15667.968750; 9.67862E-5
15673.828125; 9.41482E-5
15679.687500; 9.83494E-5
15685.546875; 1.04200E-4
15691.406250; 1.05387E-4
15697.265625; 1.02326E-4
15703.125000; 9.35766E-5
15708.984375; 8.19853E-5
15714.843750; 9.93364E-5
15720.703125; 1.07169E-4
15726.562500; 9.96173E-5
15732.421875; 1.02542E-4
15738.281250; 1.06698E-4
15744.140625; 1.05325E-4
15750.000000; 9.38360E-5
15755.859375; 9.78921E-5
15761.718750; 9.85159E-5
15767.578125; 9.71482E-5
15773.437500; 1.00660E-4
15779.296875; 9.98739E-5
15785.156250; 9.58045E-5
15791.015625; 9.90559E-5
15796.875000; 1.07721E-4
15802.734375; 1.06238E-4
15808.593750; 1.06957E-4
15814.453125; 1.00568E-4
15820.312500; 9.33580E-5
15826.171875; 9.39767E-5
15832.031250; 1.01767E-4
15837.890625; 1.01608E-4
15843.750000; 1.03427E-4
15849.609375; 1.01566E-4
15855.468750; 9.52449E-5
15861.328125; 9.73647E-5
15867.187500; 9.95275E-5
15873.046875; 9.92217E-5
15878.906250; 1.02749E-4
15884.765625; 1.15872E-4
15890.625000; 1.10865E-4
15896.484375; 8.78546E-5
15902.343750; 9.26349E-5
15908.203125; 9.53449E-5
15914.062500; 9.48017E-5
15919.921875; 9.57735E-5
15925.781250; 9.63285E-5
15931.640625; 9.16963E-5
15937.500000; 9.24373E-5
15943.359375; 1.04922E-4
15949.218750; 1.00484E-4
15955.078125; 1.00570E-4
15960.937500; 9.66364E-5
15966.796875; 9.69547E-5
15972.656250; 1.05336E-4
15978.515625; 1.08595E-4
15984.375000; 9.83696E-5
15990.234375; 9.14243E-5
15996.093750; 9.27782E-5
16001.953125; 9.14609E-5
16007.812500; 9.23262E-5
16013.671875; 1.08406E-4
16019.531250; 1.09675E-4
16025.390625; 9.75850E-5
16031.250000; 1.01241E-4
16037.109375; 1.02291E-4
16042.968750; 1.08685E-4
16048.828125; 1.10857E-4
16054.687500; 1.02820E-4
16060.546875; 1.03036E-4
16066.406250; 1.04230E-4
16072.265625; 1.03122E-4
16078.125000; 9.62238E-5
16083.984375; 1.00200E-4
16089.843750; 1.03663E-4
16095.703125; 9.82743E-5
16101.562500; 8.56464E-5
16107.421875; 1.01193E-4
16113.281250; 9.74730E-5
16119.140625; 8.57673E-5
16125.000000; 9.54082E-5
16130.859375; 1.03422E-4
16136.718750; 1.06662E-4
16142.578125; 1.04714E-4
16148.437500; 9.67596E-5
16154.296875; 1.04225E-4
16160.156250; 9.88413E-5
16166.015625; 1.01611E-4
16171.875000; 1.00995E-4
16177.734375; 9.59903E-5
16183.593750; 1.05463E-4
16189.453125; 1.01977E-4
16195.312500; 9.54088E-5
16201.171875; 9.75971E-5
16207.031250; 1.12074E-4
16212.890625; 1.09871E-4
16218.750000; 9.91349E-5
16224.609375; 1.03017E-4
16230.468750; 1.01197E-4
16236.328125; 9.95951E-5
16242.187500; 9.61360E-5
16248.046875; 1.05232E-4
16253.906250; 1.06978E-4
16259.765625; 1.03040E-4
16265.625000; 9.83187E-5
16271.484375; 9.44808E-5
16277.343750; 9.89861E-5
16283.203125; 1.05469E-4
16289.062500; 1.10632E-4
16294.921875; 1.01602E-4
16300.781250; 1.00362E-4
16306.640625; 9.56794E-5
16312.500000; 1.04522E-4
16318.359375; 9.90241E-5
16324.218750; 9.72618E-5
16330.078125; 9.61263E-5
16335.937500; 9.44976E-5
16341.796875; 9.40858E-5
16347.656250; 1.01944E-4
16353.515625; 1.03574E-4
16359.375000; 8.95831E-5
16365.234375; 8.89752E-5
16371.093750; 1.01309E-4
16376.953125; 9.83175E-5
16382.812500; 9.92301E-5
16388.671875; 1.00314E-4
16394.531250; 9.99769E-5
16400.390625; 9.55353E-5
16406.250000; 9.06112E-5
16412.109375; 1.01830E-4
16417.968750; 1.06287E-4
16423.828125; 1.00499E-4
16429.687500; 9.14288E-5
16435.546875; 9.72437E-5
16441.406250; 1.00298E-4
16447.265625; 9.86768E-5
16453.125000; 9.14135E-5
16458.984375; 9.84418E-5
16464.843750; 9.64243E-5
16470.703125; 9.61160E-5
16476.562500; 9.88292E-5
16482.421875; 1.08588E-4
16488.281250; 9.80410E-5
16494.140625; 9.60811E-5
16500.000000; 9.43979E-5
16505.859375; 9.77985E-5
16511.718750; 1.05466E-4
16517.578125; 9.98989E-5
16523.437500; 1.06797E-4
16529.296875; 1.05566E-4
16535.156250; 1.00289E-4
16541.015625; 9.47971E-5
16546.875000; 9.41304E-5
16552.734375; 1.00030E-4
16558.593750; 9.90841E-5
16564.453125; 1.04556E-4
16570.312500; 1.06955E-4
16576.171875; 1.01915E-4
16582.031250; 9.41694E-5
16587.890625; 8.79217E-5
16593.750000; 1.00506E-4
16599.609375; 9.63783E-5
16605.468750; 8.96383E-5
16611.328125; 8.50757E-5
16617.187500; 9.90017E-5
16623.046875; 1.01882E-4
16628.906250; 9.51860E-5
16634.765625; 9.28014E-5
16640.625000; 1.02541E-4
16646.484375; 9.99772E-5
16652.343750; 9.65536E-5
16658.203125; 9.01623E-5
16664.062500; 9.56868E-5
16669.921875; 9.06841E-5
16675.781250; 8.23474E-5
16681.640625; 9.28247E-5
16687.500000; 9.97860E-5
16693.359375; 9.91631E-5
16699.218750; 1.03514E-4
16705.078125; 1.03330E-4
16710.937500; 1.05651E-4
16716.796875; 1.01759E-4
16722.656250; 9.35874E-5
16728.515625; 9.34168E-5
16734.375000; 8.57613E-5
16740.234375; 8.74234E-5
16746.093750; 9.92684E-5
16751.953125; 9.77973E-5
16757.812500; 1.00076E-4
16763.671875; 9.30646E-5
16769.531250; 9.44680E-5
16775.390625; 9.59500E-5
16781.250000; 9.72806E-5
16787.109375; 1.02244E-4
16792.968750; 1.01037E-4
16798.828125; 1.03405E-4
16804.687500; 1.03328E-4
16810.546875; 1.00306E-4
16816.406250; 9.79688E-5
16822.265625; 1.00783E-4
16828.125000; 8.85502E-5
16833.984375; 9.17340E-5
16839.843750; 1.02147E-4
16845.703125; 1.03084E-4
16851.562500; 1.03928E-4
16857.421875; 9.46333E-5
16863.281250; 9.51019E-5
16869.140625; 9.86727E-5
16875.000000; 1.04700E-4
16880.859375; 1.02218E-4
16886.718750; 9.92271E-5
16892.578125; 1.08104E-4
16898.437500; 1.05176E-4
16904.296875; 1.04218E-4
16910.156250; 1.04260E-4
16916.015625; 1.03755E-4
16921.875000; 8.63689E-5
16927.734375; 9.22513E-5
16933.593750; 1.02383E-4
16939.453125; 9.89126E-5
16945.312500; 1.03098E-4
16951.171875; 9.90111E-5
16957.031250; 9.99874E-5
16962.890625; 1.04318E-4
16968.750000; 9.10429E-5
16974.609375; 9.24806E-5
16980.468750; 9.23391E-5
16986.328125; 9.55799E-5
16992.187500; 1.13535E-4
16998.046875; 1.11282E-4
17003.906250; 1.04746E-4
17009.765625; 1.06928E-4
17015.625000; 9.71150E-5
17021.484375; 9.54167E-5
17027.343750; 1.03398E-4
17033.203125; 9.73097E-5
17039.062500; 9.75656E-5
17044.921875; 1.01146E-4
17050.781250; 9.71988E-5
17056.640625; 1.04876E-4
17062.500000; 1.09617E-4
17068.359375; 1.01322E-4
17074.218750; 1.01588E-4
17080.078125; 1.01226E-4
17085.937500; 1.01006E-4
17091.796875; 9.86346E-5
17097.656250; 9.21611E-5
17103.515625; 9.40059E-5
17109.375000; 1.09844E-4
17115.234375; 1.11981E-4
17121.093750; 9.79546E-5
17126.953125; 1.11118E-4
17132.812500; 1.09546E-4
17138.671875; 9.92444E-5
17144.531250; 9.39946E-5
17150.390625; 9.79462E-5
17156.250000; 9.14627E-5
17162.109375; 1.01081E-4
17167.968750; 1.13701E-4
17173.828125; 1.06526E-4
17179.687500; 1.01680E-4
17185.546875; 8.99712E-5
17191.406250; 9.58976E-5
17197.265625; 9.35466E-5
17203.125000; 9.98500E-5
17208.984375; 1.04498E-4
17214.843750; 1.02466E-4
17220.703125; 9.44094E-5
17226.562500; 1.07237E-4
17232.421875; 1.06620E-4
17238.281250; 9.93649E-5
17244.140625; 9.68070E-5
17250.000000; 1.01611E-4
17255.859375; 9.73247E-5
17261.718750; 1.04403E-4
17267.578125; 1.09003E-4
17273.437500; 1.03043E-4
17279.296875; 1.04178E-4
17285.156250; 9.86834E-5
17291.015625; 9.29866E-5
17296.875000; 1.04270E-4
17302.734375; 1.13826E-4
17308.593750; 9.29965E-5
17314.453125; 9.04269E-5
17320.312500; 1.03092E-4
17326.171875; 1.00843E-4
17332.031250; 9.28390E-5
17337.890625; 9.09383E-5
17343.750000; 8.79082E-5
17349.609375; 9.19797E-5
17355.468750; 9.23830E-5
17361.328125; 9.71350E-5
17367.187500; 1.13517E-4
17373.046875; 1.07298E-4
17378.906250; 9.26809E-5
17384.765625; 9.25531E-5
17390.625000; 9.64197E-5
17396.484375; 9.70985E-5
17402.343750; 1.09089E-4
17408.203125; 1.19532E-4
17414.062500; 1.00461E-4
17419.921875; 9.96398E-5
17425.781250; 9.82926E-5
17431.640625; 9.49961E-5
17437.500000; 9.30861E-5
17443.359375; 9.15857E-5
17449.218750; 9.47448E-5
17455.078125; 1.01739E-4
17460.937500; 8.93920E-5
17466.796875; 9.34620E-5
17472.656250; 9.31574E-5
17478.515625; 9.57338E-5
17484.375000; 1.02621E-4
17490.234375; 1.03978E-4
17496.093750; 1.02138E-4
17501.953125; 9.70988E-5
17507.812500; 9.39901E-5
17513.671875; 8.75544E-5
17519.531250; 9.51630E-5
17525.390625; 9.84975E-5
17531.250000; 1.03752E-4
17537.109375; 1.05016E-4
17542.968750; 9.75025E-5
17548.828125; 9.56377E-5
17554.687500; 9.86951E-5
17560.546875; 9.43522E-5
17566.406250; 9.08742E-5
17572.265625; 9.18949E-5
17578.125000; 8.87769E-5
17583.984375; 9.33935E-5
17589.843750; 9.75432E-5
17595.703125; 9.70236E-5
17601.562500; 9.49972E-5
17607.421875; 9.60039E-5
17613.281250; 1.04146E-4
17619.140625; 9.40329E-5
17625.000000; 9.33910E-5
17630.859375; 1.01068E-4
17636.718750; 1.05851E-4
17642.578125; 1.07384E-4
17648.437500; 1.00199E-4
17654.296875; 9.83542E-5
17660.156250; 9.42493E-5
17666.015625; 9.98375E-5
17671.875000; 9.90556E-5
17677.734375; 9.49959E-5
17683.593750; 1.01942E-4
17689.453125; 9.77547E-5
17695.312500; 9.79265E-5
17701.171875; 1.04717E-4
17707.031250; 9.55034E-5
17712.890625; 9.94707E-5
17718.750000; 9.82217E-5
17724.609375; 9.97527E-5
17730.468750; 9.80119E-5
17736.328125; 9.21131E-5
17742.187500; 9.73471E-5
17748.046875; 1.03605E-4
17753.906250; 1.05237E-4
17759.765625; 1.04418E-4
17765.625000; 9.79063E-5
17771.484375; 1.02354E-4
17777.343750; 1.00750E-4
17783.203125; 9.75000E-5
17789.062500; 1.01967E-4
17794.921875; 1.01957E-4
17800.781250; 9.69814E-5
17806.640625; 9.61326E-5
17812.500000; 9.62729E-5
17818.359375; 9.99020E-5
17824.218750; 9.38862E-5
17830.078125; 9.05631E-5
17835.937500; 9.32558E-5
17841.796875; 8.83315E-5
17847.656250; 8.49825E-5
17853.515625; 9.71605E-5
17859.375000; 9.82294E-5
17865.234375; 9.47207E-5
17871.093750; 9.77565E-5
17876.953125; 9.34579E-5
17882.812500; 9.83636E-5
17888.671875; 9.30721E-5
17894.531250; 8.77527E-5
17900.390625; 8.99350E-5
17906.250000; 1.02667E-4
17912.109375; 9.99220E-5
17917.968750; 8.80102E-5
17923.828125; 8.48651E-5
17929.687500; 8.13810E-5
17935.546875; 9.55307E-5
17941.406250; 9.53351E-5
17947.265625; 9.09021E-5
17953.125000; 8.70124E-5
17958.984375; 9.14370E-5
17964.843750; 9.55484E-5
17970.703125; 9.69745E-5
17976.562500; 9.58822E-5
17982.421875; 9.16616E-5
17988.281250; 9.72506E-5
17994.140625; 1.03620E-4
18000.000000; 1.05067E-4
18005.859375; 9.98701E-5
18011.718750; 9.47034E-5
18017.578125; 1.01009E-4
18023.437500; 1.06000E-4
18029.296875; 1.04929E-4
18035.156250; 1.14081E-4
18041.015625; 1.11190E-4
18046.875000; 1.05594E-4
18052.734375; 1.00889E-4
18058.593750; 9.85335E-5
18064.453125; 1.02694E-4
18070.312500; 9.67579E-5
18076.171875; 9.73635E-5
18082.031250; 9.92904E-5
18087.890625; 9.78768E-5
18093.750000; 9.05402E-5
18099.609375; 8.65444E-5
18105.468750; 8.91362E-5
18111.328125; 8.95116E-5
18117.187500; 9.08863E-5
18123.046875; 9.66687E-5
18128.906250; 9.56935E-5
18134.765625; 8.55817E-5
18140.625000; 1.02298E-4
18146.484375; 1.03596E-4
18152.343750; 9.18313E-5
18158.203125; 1.01939E-4
18164.062500; 1.10446E-4
18169.921875; 1.02975E-4
18175.781250; 9.34540E-5
18181.640625; 1.02629E-4
18187.500000; 1.02943E-4
18193.359375; 1.04811E-4
18199.218750; 1.00100E-4
18205.078125; 1.09565E-4
18210.937500; 1.10024E-4
18216.796875; 9.96650E-5
18222.656250; 1.00395E-4
18228.515625; 9.65455E-5
18234.375000; 9.22353E-5
18240.234375; 9.55793E-5
18246.093750; 9.54198E-5
18251.953125; 1.01217E-4
18257.812500; 1.04716E-4
18263.671875; 1.06597E-4
18269.531250; 1.03193E-4
18275.390625; 9.80854E-5
18281.250000; 9.50590E-5
18287.109375; 8.10945E-5
18292.968750; 9.34599E-5
18298.828125; 9.81703E-5
18304.687500; 1.02930E-4
18310.546875; 9.86206E-5
18316.406250; 8.90904E-5
18322.265625; 8.80394E-5
18328.125000; 8.89085E-5
18333.984375; 9.38737E-5
18339.843750; 9.53492E-5
18345.703125; 9.27957E-5
18351.562500; 9.36045E-5
18357.421875; 1.06095E-4
18363.281250; 1.00033E-4
18369.140625; 9.98647E-5
18375.000000; 9.80191E-5
18380.859375; 9.49194E-5
18386.718750; 9.51726E-5
18392.578125; 1.06855E-4
18398.437500; 1.13011E-4
18404.296875; 1.06875E-4
18410.156250; 1.06813E-4
18416.015625; 9.96908E-5
18421.875000; 9.28557E-5
18427.734375; 9.94471E-5
18433.593750; 8.52568E-5
18439.453125; 9.14027E-5
18445.312500; 9.14137E-5
18451.171875; 9.24351E-5
18457.031250; 9.80839E-5
18462.890625; 1.00509E-4
18468.750000; 9.03883E-5
18474.609375; 9.09556E-5
18480.468750; 9.35833E-5
18486.328125; 9.70251E-5
18492.187500; 9.34354E-5
18498.046875; 9.46022E-5
18503.906250; 1.05112E-4
18509.765625; 1.07218E-4
18515.625000; 9.64252E-5
18521.484375; 1.01493E-4
18527.343750; 9.19996E-5
18533.203125; 9.23326E-5
18539.062500; 9.75678E-5
18544.921875; 9.13550E-5
18550.781250; 1.00280E-4
18556.640625; 1.06636E-4
18562.500000; 1.08349E-4
18568.359375; 1.14911E-4
18574.218750; 1.06087E-4
18580.078125; 1.10272E-4
18585.937500; 1.07450E-4
18591.796875; 1.03805E-4
18597.656250; 9.51855E-5
18603.515625; 9.41714E-5
18609.375000; 9.81108E-5
18615.234375; 9.69053E-5
18621.093750; 1.02526E-4
18626.953125; 9.63629E-5
18632.812500; 9.20202E-5
18638.671875; 8.91640E-5
18644.531250; 9.06073E-5
18650.390625; 9.39968E-5
18656.250000; 1.00173E-4
18662.109375; 1.00632E-4
18667.968750; 9.10232E-5
18673.828125; 9.71227E-5
18679.687500; 1.00676E-4
18685.546875; 9.62377E-5
18691.406250; 9.19300E-5
18697.265625; 9.40679E-5
18703.125000; 1.04824E-4
18708.984375; 1.00271E-4
18714.843750; 9.48077E-5
18720.703125; 9.52539E-5
18726.562500; 9.62625E-5
18732.421875; 9.71230E-5
18738.281250; 1.05378E-4
18744.140625; 1.09061E-4
18750.000000; 1.12183E-4
18755.859375; 1.00461E-4
18761.718750; 1.02720E-4
18767.578125; 9.93473E-5
18773.437500; 9.75053E-5
18779.296875; 9.68258E-5
18785.156250; 9.37804E-5
18791.015625; 8.96912E-5
18796.875000; 9.89478E-5
18802.734375; 9.99252E-5
18808.593750; 1.01674E-4
18814.453125; 9.90699E-5
18820.312500; 9.71874E-5
18826.171875; 1.05343E-4
18832.031250; 9.99231E-5
18837.890625; 9.67775E-5
18843.750000; 9.65905E-5
18849.609375; 9.05610E-5
18855.468750; 8.63411E-5
18861.328125; 9.04554E-5
18867.187500; 9.78469E-5
18873.046875; 9.87164E-5
18878.906250; 9.68644E-5
18884.765625; 1.04474E-4
18890.625000; 1.06257E-4
18896.484375; 1.02500E-4
18902.343750; 9.18436E-5
18908.203125; 9.88100E-5
18914.062500; 1.08731E-4
18919.921875; 1.04576E-4
18925.781250; 9.84430E-5
18931.640625; 1.03524E-4
18937.500000; 1.01895E-4
18943.359375; 9.56055E-5
18949.218750; 1.02324E-4
18955.078125; 9.23415E-5
18960.937500; 9.37781E-5
18966.796875; 1.05957E-4
18972.656250; 1.09771E-4
18978.515625; 1.01450E-4
18984.375000; 1.02723E-4
18990.234375; 1.02169E-4
18996.093750; 9.40365E-5
19001.953125; 1.06604E-4
19007.812500; 9.40670E-5
19013.671875; 9.29993E-5
19019.531250; 9.99949E-5
19025.390625; 9.07215E-5
19031.250000; 9.26270E-5
19037.109375; 1.01166E-4
19042.968750; 1.05140E-4
19048.828125; 1.04879E-4
19054.687500; 1.10069E-4
19060.546875; 1.03653E-4
19066.406250; 1.02476E-4
19072.265625; 9.20978E-5
19078.125000; 9.40328E-5
19083.984375; 1.08497E-4
19089.843750; 1.05746E-4
19095.703125; 1.01583E-4
19101.562500; 1.06194E-4
19107.421875; 9.96336E-5
19113.281250; 9.64401E-5
19119.140625; 1.02774E-4
19125.000000; 9.93333E-5
19130.859375; 8.65126E-5
19136.718750; 9.25095E-5
19142.578125; 9.92802E-5
19148.437500; 9.44667E-5
19154.296875; 9.01573E-5
19160.156250; 9.72133E-5
19166.015625; 9.42473E-5
19171.875000; 9.88253E-5
19177.734375; 1.03749E-4
19183.593750; 9.77023E-5
19189.453125; 9.68066E-5
19195.312500; 9.44996E-5
19201.171875; 9.67877E-5
19207.031250; 9.07299E-5
19212.890625; 1.04886E-4
19218.750000; 9.97700E-5
19224.609375; 9.82789E-5
19230.468750; 9.50686E-5
19236.328125; 9.45727E-5
19242.187500; 1.03362E-4
19248.046875; 1.04015E-4
19253.906250; 1.05486E-4
19259.765625; 9.33607E-5
19265.625000; 9.01089E-5
19271.484375; 9.89977E-5
19277.343750; 1.00813E-4
19283.203125; 9.48922E-5
19289.062500; 1.02126E-4
19294.921875; 1.07189E-4
19300.781250; 1.02853E-4
19306.640625; 9.93720E-5
19312.500000; 1.03616E-4
19318.359375; 1.09192E-4
19324.218750; 1.00178E-4
19330.078125; 9.96263E-5
19335.937500; 1.06612E-4
19341.796875; 9.70999E-5
19347.656250; 1.04236E-4
19353.515625; 1.02425E-4
19359.375000; 9.40030E-5
19365.234375; 9.74046E-5
19371.093750; 9.39168E-5
19376.953125; 9.29265E-5
19382.812500; 9.60051E-5
19388.671875; 9.38774E-5
19394.531250; 9.33799E-5
19400.390625; 9.65974E-5
19406.250000; 8.38635E-5
19412.109375; 9.07620E-5
19417.968750; 9.23279E-5
19423.828125; 1.00250E-4
19429.687500; 1.08176E-4
19435.546875; 1.05773E-4
19441.406250; 9.76706E-5
19447.265625; 9.83698E-5
19453.125000; 1.01725E-4
19458.984375; 9.87109E-5
19464.843750; 1.01571E-4
19470.703125; 1.00667E-4
19476.562500; 9.58674E-5
19482.421875; 1.03822E-4
19488.281250; 1.10343E-4
19494.140625; 1.03507E-4
19500.000000; 9.44132E-5
19505.859375; 9.89419E-5
19511.718750; 9.68373E-5
19517.578125; 9.33761E-5
19523.437500; 8.98161E-5
19529.296875; 9.64974E-5
19535.156250; 9.87331E-5
19541.015625; 9.86960E-5
19546.875000; 1.00867E-4
19552.734375; 1.03802E-4
19558.593750; 1.05897E-4
19564.453125; 1.04002E-4
19570.312500; 1.03910E-4
19576.171875; 1.00957E-4
19582.031250; 1.00875E-4
19587.890625; 9.80066E-5
19593.750000; 8.87218E-5
19599.609375; 9.47597E-5
19605.468750; 1.00736E-4
19611.328125; 1.00712E-4
19617.187500; 1.05474E-4
19623.046875; 1.02795E-4
19628.906250; 9.67408E-5
19634.765625; 9.41830E-5
19640.625000; 9.75061E-5
19646.484375; 9.57417E-5
19652.343750; 9.32738E-5
19658.203125; 1.03181E-4
19664.062500; 1.06871E-4
19669.921875; 9.72323E-5
19675.781250; 1.01430E-4
19681.640625; 9.94457E-5
19687.500000; 8.72305E-5
19693.359375; 9.73797E-5
19699.218750; 1.06936E-4
19705.078125; 1.12306E-4
19710.937500; 9.33933E-5
19716.796875; 9.46025E-5
19722.656250; 1.01903E-4
19728.515625; 9.70791E-5
19734.375000; 9.33041E-5
19740.234375; 8.81641E-5
19746.093750; 9.57714E-5
19751.953125; 1.01656E-4
19757.812500; 9.90658E-5
19763.671875; 9.48409E-5
19769.531250; 9.01133E-5
19775.390625; 1.06629E-4
19781.250000; 1.02718E-4
19787.109375; 9.80668E-5
19792.968750; 9.64765E-5
19798.828125; 9.25347E-5
19804.687500; 9.82933E-5
19810.546875; 1.00745E-4
19816.406250; 9.70492E-5
19822.265625; 9.91969E-5
19828.125000; 1.00850E-4
19833.984375; 9.79677E-5
19839.843750; 9.77995E-5
19845.703125; 9.13464E-5
19851.562500; 9.76555E-5
19857.421875; 9.80151E-5
19863.281250; 9.52510E-5
19869.140625; 9.66183E-5
19875.000000; 1.07929E-4
19880.859375; 1.04997E-4
19886.718750; 9.98561E-5
19892.578125; 9.50459E-5
19898.437500; 9.09625E-5
19904.296875; 1.04411E-4
19910.156250; 1.06703E-4
19916.015625; 1.04291E-4
19921.875000; 1.02079E-4
19927.734375; 9.57009E-5
19933.593750; 9.20711E-5
19939.453125; 9.10794E-5
19945.312500; 1.00916E-4
19951.171875; 1.06333E-4
19957.031250; 9.52482E-5
19962.890625; 9.95977E-5
19968.750000; 9.85646E-5
19974.609375; 9.56886E-5
19980.468750; 9.67991E-5
19986.328125; 1.04204E-4
19992.187500; 1.08259E-4
19998.046875; 1.02327E-4
20003.906250; 9.95020E-5
20009.765625; 9.89784E-5
20015.625000; 1.03131E-4
20021.484375; 9.69372E-5
20027.343750; 9.63023E-5
20033.203125; 9.76465E-5
20039.062500; 9.12669E-5
20044.921875; 9.75526E-5
20050.781250; 9.46054E-5
20056.640625; 8.46677E-5
20062.500000; 9.05039E-5
20068.359375; 9.79124E-5
20074.218750; 9.92227E-5
20080.078125; 8.65046E-5
20085.937500; 9.26130E-5
20091.796875; 9.43939E-5
20097.656250; 9.19260E-5
20103.515625; 9.24434E-5
20109.375000; 1.01764E-4
20115.234375; 9.97999E-5
20121.093750; 9.58068E-5
20126.953125; 9.98004E-5
20132.812500; 9.52039E-5
20138.671875; 8.88113E-5
20144.531250; 8.60321E-5
20150.390625; 8.55637E-5
20156.250000; 9.03322E-5
20162.109375; 9.37559E-5
20167.968750; 8.91225E-5
20173.828125; 9.89841E-5
20179.687500; 1.10335E-4
20185.546875; 9.84067E-5
20191.406250; 9.06181E-5
20197.265625; 8.38546E-5
20203.125000; 8.09802E-5
20208.984375; 8.81550E-5
20214.843750; 1.03356E-4
20220.703125; 9.79768E-5
20226.562500; 9.69510E-5
20232.421875; 1.06611E-4
20238.281250; 1.06753E-4
20244.140625; 1.01244E-4
20250.000000; 9.87744E-5
20255.859375; 1.01217E-4
20261.718750; 9.28373E-5
20267.578125; 9.02910E-5
20273.437500; 9.42293E-5
20279.296875; 9.39406E-5
20285.156250; 9.67883E-5
20291.015625; 1.01161E-4
20296.875000; 9.18204E-5
20302.734375; 9.86266E-5
20308.593750; 1.00773E-4
20314.453125; 9.55602E-5
20320.312500; 8.75074E-5
20326.171875; 9.11826E-5
20332.031250; 9.19195E-5
20337.890625; 9.79433E-5
20343.750000; 9.24170E-5
20349.609375; 9.39620E-5
20355.468750; 8.98095E-5
20361.328125; 9.58280E-5
20367.187500; 1.04318E-4
20373.046875; 9.74051E-5
20378.906250; 8.91603E-5
20384.765625; 9.24537E-5
20390.625000; 9.65337E-5
20396.484375; 8.74683E-5
20402.343750; 8.67191E-5
20408.203125; 9.04476E-5
20414.062500; 9.46163E-5
20419.921875; 9.46753E-5
20425.781250; 9.10883E-5
20431.640625; 9.81833E-5
20437.500000; 9.74735E-5
20443.359375; 1.02391E-4
20449.218750; 1.00505E-4
20455.078125; 1.03037E-4
20460.937500; 9.84878E-5
20466.796875; 1.06268E-4
20472.656250; 1.01364E-4
20478.515625; 1.02813E-4
20484.375000; 9.97931E-5
20490.234375; 9.00053E-5
20496.093750; 9.40194E-5
20501.953125; 9.98112E-5
20507.812500; 9.33320E-5
20513.671875; 8.55034E-5
20519.531250; 1.01256E-4
20525.390625; 1.17997E-4
20531.250000; 9.24154E-5
20537.109375; 9.59949E-5
20542.968750; 9.37085E-5
20548.828125; 1.00171E-4
20554.687500; 1.10389E-4
20560.546875; 1.02909E-4
20566.406250; 9.24252E-5
20572.265625; 8.52915E-5
20578.125000; 8.26706E-5
20583.984375; 9.47981E-5
20589.843750; 1.08193E-4
20595.703125; 1.04526E-4
20601.562500; 1.00983E-4
20607.421875; 8.60927E-5
20613.281250; 9.18850E-5
20619.140625; 9.42755E-5
20625.000000; 9.66830E-5
20630.859375; 1.01755E-4
20636.718750; 9.45030E-5
20642.578125; 1.01474E-4
20648.437500; 9.95107E-5
20654.296875; 9.87987E-5
20660.156250; 8.86046E-5
20666.015625; 9.80030E-5
20671.875000; 1.02347E-4
20677.734375; 9.52278E-5
20683.593750; 8.54792E-5
20689.453125; 9.63845E-5
20695.312500; 1.06021E-4
20701.171875; 9.76319E-5
20707.031250; 9.63480E-5
20712.890625; 1.07018E-4
20718.750000; 1.02351E-4
20724.609375; 1.04627E-4
20730.468750; 1.08886E-4
20736.328125; 9.31048E-5
20742.187500; 8.89493E-5
20748.046875; 9.96738E-5
20753.906250; 9.56180E-5
20759.765625; 1.03441E-4
20765.625000; 9.68427E-5
20771.484375; 9.43292E-5
20777.343750; 9.38671E-5
20783.203125; 9.35762E-5
20789.062500; 8.78267E-5
20794.921875; 9.14868E-5
20800.781250; 9.26628E-5
20806.640625; 9.45374E-5
20812.500000; 9.61755E-5
20818.359375; 8.94804E-5
20824.218750; 1.03349E-4
20830.078125; 9.68717E-5
20835.937500; 1.03328E-4
20841.796875; 1.08365E-4
20847.656250; 9.54500E-5
20853.515625; 1.02000E-4
20859.375000; 9.52212E-5
20865.234375; 9.53510E-5
20871.093750; 9.19964E-5
20876.953125; 1.04044E-4
20882.812500; 1.13417E-4
20888.671875; 1.09855E-4
20894.531250; 9.59594E-5
20900.390625; 8.53315E-5
20906.250000; 9.05445E-5
20912.109375; 8.67943E-5
20917.968750; 9.46180E-5
20923.828125; 8.95661E-5
20929.687500; 9.61096E-5
20935.546875; 1.02176E-4
20941.406250; 1.05036E-4
20947.265625; 9.61209E-5
20953.125000; 9.85570E-5
20958.984375; 9.30108E-5
20964.843750; 9.31935E-5
20970.703125; 9.53382E-5
20976.562500; 9.78793E-5
20982.421875; 9.20282E-5
20988.281250; 8.46160E-5
20994.140625; 8.80648E-5
21000.000000; 8.62318E-5
21005.859375; 9.12422E-5
21011.718750; 9.43177E-5
21017.578125; 9.22398E-5
21023.437500; 1.04275E-4
21029.296875; 1.01641E-4
21035.156250; 8.82239E-5
21041.015625; 9.99729E-5
21046.875000; 9.71513E-5
21052.734375; 8.82113E-5
21058.593750; 7.99574E-5
21064.453125; 1.01191E-4
21070.312500; 1.04470E-4
21076.171875; 9.29997E-5
21082.031250; 9.08508E-5
21087.890625; 9.73832E-5
21093.750000; 9.76363E-5
21099.609375; 9.54177E-5
21105.468750; 8.56265E-5
21111.328125; 9.07753E-5
21117.187500; 9.70549E-5
21123.046875; 1.04149E-4
21128.906250; 9.69354E-5
21134.765625; 8.47720E-5
21140.625000; 9.00181E-5
21146.484375; 9.99011E-5
21152.343750; 1.02102E-4
21158.203125; 1.11390E-4
21164.062500; 9.77443E-5
21169.921875; 8.61871E-5
21175.781250; 9.24669E-5
21181.640625; 9.55780E-5
21187.500000; 8.82528E-5
21193.359375; 8.65022E-5
21199.218750; 9.23200E-5
21205.078125; 8.60759E-5
21210.937500; 8.74961E-5
21216.796875; 9.26058E-5
21222.656250; 8.71108E-5
21228.515625; 9.69822E-5
21234.375000; 1.04092E-4
21240.234375; 9.63078E-5
21246.093750; 9.41842E-5
21251.953125; 9.30639E-5
21257.812500; 9.85102E-5
21263.671875; 9.73714E-5
21269.531250; 9.14186E-5
21275.390625; 9.54015E-5
21281.250000; 9.71370E-5
21287.109375; 1.10678E-4
21292.968750; 1.14507E-4
21298.828125; 9.52694E-5
21304.687500; 8.59789E-5
21310.546875; 9.86762E-5
21316.406250; 1.07062E-4
21322.265625; 9.92679E-5
21328.125000; 8.51846E-5
21333.984375; 9.59042E-5
21339.843750; 9.94323E-5
21345.703125; 9.76918E-5
21351.562500; 1.03443E-4
21357.421875; 9.09114E-5
21363.281250; 8.43014E-5
21369.140625; 9.85622E-5
21375.000000; 9.76176E-5
21380.859375; 9.12793E-5
21386.718750; 9.80776E-5
21392.578125; 1.03809E-4
21398.437500; 9.93168E-5
21404.296875; 1.00601E-4
21410.156250; 8.70581E-5
21416.015625; 9.03253E-5
21421.875000; 1.00847E-4
21427.734375; 9.42007E-5
21433.593750; 9.76284E-5
21439.453125; 1.09574E-4
21445.312500; 1.10588E-4
21451.171875; 1.00849E-4
21457.031250; 8.58410E-5
21462.890625; 9.02963E-5
21468.750000; 9.37542E-5
21474.609375; 9.66899E-5
21480.468750; 1.03448E-4
21486.328125; 9.92237E-5
21492.187500; 9.29375E-5
21498.046875; 9.47512E-5
21503.906250; 1.04908E-4
21509.765625; 1.02605E-4
21515.625000; 1.01083E-4
21521.484375; 1.19468E-4
21527.343750; 1.12202E-4
21533.203125; 9.67486E-5
21539.062500; 9.67602E-5
21544.921875; 9.74724E-5
21550.781250; 9.97241E-5
21556.640625; 9.95361E-5
21562.500000; 9.07061E-5
21568.359375; 7.34932E-5
21574.218750; 8.51040E-5
21580.078125; 9.55378E-5
21585.937500; 9.00377E-5
21591.796875; 8.26326E-5
21597.656250; 8.39844E-5
21603.515625; 8.84829E-5
21609.375000; 9.79981E-5
21615.234375; 9.52533E-5
21621.093750; 9.75549E-5
21626.953125; 9.05951E-5
21632.812500; 8.93432E-5
21638.671875; 9.93169E-5
21644.531250; 1.05131E-4
21650.390625; 1.02981E-4
21656.250000; 9.72542E-5
21662.109375; 1.02800E-4
21667.968750; 9.59263E-5
21673.828125; 9.17269E-5
21679.687500; 9.34812E-5
21685.546875; 9.47794E-5
21691.406250; 9.35947E-5
21697.265625; 8.66965E-5
21703.125000; 9.46332E-5
21708.984375; 8.76336E-5
21714.843750; 8.95735E-5
21720.703125; 9.59664E-5
21726.562500; 9.39368E-5
21732.421875; 9.83799E-5
21738.281250; 9.82207E-5
21744.140625; 1.03592E-4
21750.000000; 1.10265E-4
21755.859375; 1.03049E-4
21761.718750; 9.01137E-5
21767.578125; 9.61996E-5
21773.437500; 9.27407E-5
21779.296875; 9.39066E-5
21785.156250; 9.52115E-5
21791.015625; 9.30747E-5
21796.875000; 9.32248E-5
21802.734375; 9.93259E-5
21808.593750; 9.68060E-5
21814.453125; 9.72134E-5
21820.312500; 9.07666E-5
21826.171875; 9.45574E-5
21832.031250; 9.52967E-5
21837.890625; 9.62241E-5
21843.750000; 9.56980E-5
21849.609375; 1.01071E-4
21855.468750; 1.01601E-4
21861.328125; 9.66180E-5
21867.187500; 9.18384E-5
21873.046875; 9.44852E-5
21878.906250; 9.61777E-5
21884.765625; 9.22994E-5
21890.625000; 9.58863E-5
21896.484375; 1.04213E-4
21902.343750; 1.07343E-4
21908.203125; 9.06861E-5
21914.062500; 9.16137E-5
21919.921875; 9.15397E-5
21925.781250; 8.58272E-5
21931.640625; 9.72196E-5
21937.500000; 1.05423E-4
21943.359375; 1.03725E-4
21949.218750; 8.49091E-5
21955.078125; 9.51901E-5
21960.937500; 8.35448E-5
21966.796875; 8.87038E-5
21972.656250; 9.41182E-5
21978.515625; 9.78370E-5
21984.375000; 9.34813E-5
21990.234375; 8.26498E-5
21996.093750; 7.85779E-5
22001.953125; 9.60588E-5
22007.812500; 9.75690E-5
22013.671875; 8.90073E-5
22019.531250; 8.40476E-5
22025.390625; 9.46032E-5
22031.250000; 9.76086E-5
22037.109375; 9.60739E-5
22042.968750; 1.01975E-4
22048.828125; 9.31814E-5
22054.687500; 8.77265E-5
22060.546875; 9.00028E-5
22066.406250; 9.43515E-5
22072.265625; 9.64021E-5
22078.125000; 9.40355E-5
22083.984375; 9.65562E-5
22089.843750; 9.51722E-5
22095.703125; 9.96354E-5
22101.562500; 9.23037E-5
22107.421875; 8.50440E-5
22113.281250; 8.87468E-5
22119.140625; 8.96637E-5
22125.000000; 9.17046E-5
22130.859375; 9.26761E-5
22136.718750; 8.99318E-5
22142.578125; 9.03237E-5
22148.437500; 8.96838E-5
22154.296875; 9.06624E-5
22160.156250; 8.88383E-5
22166.015625; 8.83680E-5
22171.875000; 9.67960E-5
22177.734375; 9.90119E-5
22183.593750; 1.03299E-4
22189.453125; 9.22030E-5
22195.312500; 9.28164E-5
22201.171875; 9.08886E-5
22207.031250; 9.25427E-5
22212.890625; 9.99521E-5
22218.750000; 9.73524E-5
22224.609375; 8.71398E-5
22230.468750; 8.42474E-5
22236.328125; 8.96380E-5
22242.187500; 9.55331E-5
22248.046875; 7.92676E-5
22253.906250; 9.40309E-5
22259.765625; 9.61004E-5
22265.625000; 9.29175E-5
22271.484375; 9.59436E-5
22277.343750; 9.08277E-5
22283.203125; 8.01126E-5
22289.062500; 1.03794E-4
22294.921875; 1.15376E-4
22300.781250; 1.06881E-4
22306.640625; 9.16325E-5
22312.500000; 9.32884E-5
22318.359375; 8.69244E-5
22324.218750; 9.27740E-5
22330.078125; 9.79378E-5
22335.937500; 9.77829E-5
22341.796875; 9.46446E-5
22347.656250; 8.80160E-5
22353.515625; 9.60684E-5
22359.375000; 9.56220E-5
22365.234375; 9.36961E-5
22371.093750; 9.29267E-5
22376.953125; 9.97522E-5
22382.812500; 9.48900E-5
22388.671875; 9.51236E-5
22394.531250; 9.12366E-5
22400.390625; 8.93074E-5
22406.250000; 9.17869E-5
22412.109375; 8.77039E-5
22417.968750; 8.45999E-5
22423.828125; 9.02096E-5
22429.687500; 9.46837E-5
22435.546875; 9.30933E-5
22441.406250; 7.95512E-5
22447.265625; 9.23642E-5
22453.125000; 1.01548E-4
22458.984375; 9.38367E-5
22464.843750; 8.52093E-5
22470.703125; 8.62251E-5
22476.562500; 8.84831E-5
22482.421875; 8.58241E-5
22488.281250; 8.65877E-5
22494.140625; 9.48459E-5
22500.000000; 9.50499E-5
22505.859375; 8.86772E-5
22511.718750; 8.37852E-5
22517.578125; 8.61191E-5
22523.437500; 9.86362E-5
22529.296875; 9.58025E-5
22535.156250; 9.03891E-5
22541.015625; 8.30067E-5
22546.875000; 8.35286E-5
22552.734375; 8.48952E-5
22558.593750; 8.44561E-5
22564.453125; 8.15252E-5
22570.312500; 8.21843E-5
22576.171875; 8.99596E-5
22582.031250; 9.46052E-5
22587.890625; 9.18053E-5
22593.750000; 8.29516E-5
22599.609375; 8.21663E-5
22605.468750; 8.38460E-5
22611.328125; 8.31925E-5
22617.187500; 8.88286E-5
22623.046875; 8.74783E-5
22628.906250; 8.63318E-5
22634.765625; 9.42443E-5
22640.625000; 8.79919E-5
22646.484375; 8.00793E-5
22652.343750; 8.24803E-5
22658.203125; 8.83728E-5
22664.062500; 8.67279E-5
22669.921875; 8.05784E-5
22675.781250; 7.79337E-5
22681.640625; 7.73028E-5
22687.500000; 8.53522E-5
22693.359375; 7.94143E-5
22699.218750; 7.48792E-5
22705.078125; 8.02428E-5
22710.937500; 8.15475E-5
22716.796875; 8.23300E-5
22722.656250; 8.54838E-5
22728.515625; 8.73996E-5
22734.375000; 8.18738E-5
22740.234375; 7.20203E-5
22746.093750; 7.64405E-5
22751.953125; 7.07233E-5
22757.812500; 7.01667E-5
22763.671875; 8.09549E-5
22769.531250; 8.09271E-5
22775.390625; 7.42502E-5
22781.250000; 7.71498E-5
22787.109375; 8.38984E-5
22792.968750; 8.14765E-5
22798.828125; 8.08034E-5
22804.687500; 9.12840E-5
22810.546875; 9.06607E-5
22816.406250; 8.35589E-5
22822.265625; 8.48247E-5
22828.125000; 8.86745E-5
22833.984375; 8.71911E-5
22839.843750; 7.95055E-5
22845.703125; 7.42687E-5
22851.562500; 7.24518E-5
22857.421875; 7.11012E-5
22863.281250; 7.93658E-5
22869.140625; 8.42758E-5
22875.000000; 7.75191E-5
22880.859375; 7.37536E-5
22886.718750; 7.79860E-5
22892.578125; 7.93529E-5
22898.437500; 8.03926E-5
22904.296875; 8.13384E-5
22910.156250; 7.40970E-5
22916.015625; 7.11528E-5
22921.875000; 7.32583E-5
22927.734375; 7.71122E-5
22933.593750; 7.03397E-5
22939.453125; 7.35439E-5
22945.312500; 7.29055E-5
22951.171875; 7.36930E-5
22957.031250; 7.90179E-5
22962.890625; 7.48713E-5
22968.750000; 6.98377E-5
22974.609375; 7.10546E-5
22980.468750; 7.16693E-5
22986.328125; 8.00792E-5
22992.187500; 7.90406E-5
22998.046875; 7.09006E-5
23003.906250; 7.23353E-5
23009.765625; 7.41107E-5
23015.625000; 7.48736E-5
23021.484375; 7.64427E-5
23027.343750; 7.14089E-5
23033.203125; 6.15410E-5
23039.062500; 5.72710E-5
23044.921875; 5.77258E-5
23050.781250; 6.62583E-5
23056.640625; 7.60262E-5
23062.500000; 7.33422E-5
23068.359375; 7.09643E-5
23074.218750; 6.83157E-5
23080.078125; 6.72896E-5
23085.937500; 6.53057E-5
23091.796875; 6.29769E-5
23097.656250; 5.99173E-5
23103.515625; 6.91987E-5
23109.375000; 7.16899E-5
23115.234375; 5.95581E-5
23121.093750; 6.84996E-5
23126.953125; 7.10396E-5
23132.812500; 6.10978E-5
23138.671875; 6.13269E-5
23144.531250; 6.64280E-5
23150.390625; 6.43469E-5
23156.250000; 6.51096E-5
23162.109375; 6.76659E-5
23167.968750; 5.89318E-5
23173.828125; 5.46472E-5
23179.687500; 5.92657E-5
23185.546875; 5.67996E-5
23191.406250; 5.08496E-5
23197.265625; 6.20805E-5
23203.125000; 6.41761E-5
23208.984375; 6.14066E-5
23214.843750; 5.83975E-5
23220.703125; 6.22124E-5
23226.562500; 6.15833E-5
23232.421875; 6.23874E-5
23238.281250; 6.32041E-5
23244.140625; 6.71079E-5
23250.000000; 6.25363E-5
23255.859375; 6.39597E-5
23261.718750; 6.50275E-5
23267.578125; 5.77479E-5
23273.437500; 5.39098E-5
23279.296875; 5.15099E-5
23285.156250; 5.08239E-5
23291.015625; 5.72246E-5
23296.875000; 6.30600E-5
23302.734375; 6.05716E-5
23308.593750; 5.63870E-5
23314.453125; 5.02956E-5
23320.312500; 5.54759E-5
23326.171875; 5.94548E-5
23332.031250; 5.79362E-5
23337.890625; 5.26838E-5
23343.750000; 5.16495E-5
23349.609375; 5.19028E-5
23355.468750; 5.61053E-5
23361.328125; 5.34712E-5
23367.187500; 5.27579E-5
23373.046875; 5.20907E-5
23378.906250; 5.32492E-5
23384.765625; 5.52438E-5
23390.625000; 5.71930E-5
23396.484375; 5.81732E-5
23402.343750; 6.00667E-5
23408.203125; 5.73221E-5
23414.062500; 5.09754E-5
23419.921875; 5.13478E-5
23425.781250; 5.46775E-5
23431.640625; 5.59819E-5
23437.500000; 4.91787E-5
23443.359375; 4.90516E-5
23449.218750; 5.13830E-5
23455.078125; 4.54557E-5
23460.937500; 4.95283E-5
23466.796875; 4.84156E-5
23472.656250; 5.26600E-5
23478.515625; 5.02364E-5
23484.375000; 4.67100E-5
23490.234375; 5.00516E-5
23496.093750; 4.95102E-5
23501.953125; 4.51905E-5
23507.812500; 4.56772E-5
23513.671875; 5.23819E-5
23519.531250; 4.78279E-5
23525.390625; 4.41561E-5
23531.250000; 4.49499E-5
23537.109375; 4.61793E-5
23542.968750; 4.48060E-5
23548.828125; 4.34361E-5
23554.687500; 4.94996E-5
23560.546875; 4.97826E-5
23566.406250; 4.17747E-5
23572.265625; 4.23662E-5
23578.125000; 4.24960E-5
23583.984375; 4.53223E-5
23589.843750; 4.09033E-5
23595.703125; 4.26137E-5
23601.562500; 4.52263E-5
23607.421875; 3.97860E-5
23613.281250; 3.95214E-5
23619.140625; 4.35578E-5
23625.000000; 4.42557E-5
23630.859375; 4.30994E-5
23636.718750; 4.05385E-5
23642.578125; 3.89514E-5
23648.437500; 4.17650E-5
23654.296875; 4.37042E-5
23660.156250; 4.04166E-5
23666.015625; 3.89153E-5
23671.875000; 3.79016E-5
23677.734375; 3.41320E-5
23683.593750; 3.83700E-5
23689.453125; 3.72649E-5
23695.312500; 3.70033E-5
23701.171875; 3.95215E-5
23707.031250; 3.91050E-5
23712.890625; 4.08019E-5
23718.750000; 3.89059E-5
23724.609375; 3.65817E-5
23730.468750; 3.37163E-5
23736.328125; 3.98282E-5
23742.187500; 4.23487E-5
23748.046875; 3.90037E-5
23753.906250; 3.57874E-5
23759.765625; 3.68687E-5
23765.625000; 3.70153E-5
23771.484375; 3.81624E-5
23777.343750; 3.92562E-5
23783.203125; 3.55045E-5
23789.062500; 3.92291E-5
23794.921875; 3.67048E-5
23800.781250; 3.64267E-5
23806.640625; 3.26595E-5
23812.500000; 3.37298E-5
23818.359375; 3.52636E-5
23824.218750; 3.43955E-5
23830.078125; 3.38207E-5
23835.937500; 3.32501E-5
23841.796875; 3.57524E-5
23847.656250; 3.60689E-5
23853.515625; 3.60135E-5
23859.375000; 3.97977E-5
23865.234375; 4.08948E-5
23871.093750; 3.38490E-5
23876.953125; 3.17274E-5
23882.812500; 3.75428E-5
23888.671875; 3.51790E-5
23894.531250; 3.46568E-5
23900.390625; 3.47055E-5
23906.250000; 3.45242E-5
23912.109375; 3.42668E-5
23917.968750; 3.33155E-5
23923.828125; 3.43629E-5
23929.687500; 3.23606E-5
23935.546875; 3.29554E-5
23941.406250; 3.23415E-5
23947.265625; 3.22794E-5
23953.125000; 3.56780E-5
23958.984375; 3.78463E-5
23964.843750; 3.43726E-5
23970.703125; 3.28088E-5
23976.562500; 3.45545E-5
23982.421875; 3.62122E-5
23988.281250; 3.43630E-5
23994.140625; 3.43402E-5
