* Measurement data measured by REW V5.31.3
* Source: PCM: default, no input selected, 2, volume: no control
* Format: 8192-point spectrum using Hann window and exponential averaging 0.97 
* Dated: Mar 9, 2025 1:24:20 PM
* REW Settings:
*  C-weighting compensation: Off
*  Target level: 75.0 dB
* Note: OSDEHA MU-OUTPUT; 8192-point spectrum using Hann window and exponential averaging 0.97  Input RMS 42.13 V 42.13 VC, 42.12 VA 42.13 V 22 - 22k UNW 960.7 uV >22k Distortion at 1,000.0 Hz, -7.51 dBFS: Gain: 29.67 dB THD: 0.026 % based on 21 harmonics  [0..22800 Hz] HHD: 0.00090 %  [10 .. 22] N: 0.033 %  [0..22800 Hz] N+D: 13.28 mV A THD+N: 0.042 %  [0..22800 Hz] SNR: 69.5 dB ENOB: 12.7 bits 2nd harmonic 0.025 % 149 deg 3rd harmonic 0.0048 % -69 deg 4th harmonic 0.0038 % 137 deg 5th harmonic 0.0012 % -24 deg 6th harmonic 0.00035 % -158 deg 7th harmonic 0.00027 % 49 deg 8th harmonic 0.00027 % -92 deg 9th harmonic 0.00026 % 41 deg 
* Measurement: OSDEHA MU-OUT 42.1
* Smoothing: None
* Frequency Step: 5.859375 Hz
* Start Frequency: 5.859375 Hz
*
* Freq(Hz); V(V)
5.859375; 2.64561E-4
11.718750; 2.65323E-4
17.578125; 2.47587E-4
23.437500; 2.23108E-4
29.296875; 2.02082E-4
35.156250; 1.66542E-4
41.015625; 1.76669E-4
46.875000; 3.32417E-4
52.734375; 3.73419E-4
58.593750; 1.93053E-4
64.453125; 1.64687E-4
70.312500; 1.93249E-4
76.171875; 1.80326E-4
82.031250; 1.56698E-4
87.890625; 2.20608E-4
93.750000; 5.73602E-3
99.609375; 1.28329E-2
105.468750; 7.15753E-3
111.328125; 2.54783E-4
117.187500; 1.75213E-4
123.046875; 1.39508E-4
128.906250; 1.51695E-4
134.765625; 1.51224E-4
140.625000; 1.33580E-4
146.484375; 1.45439E-4
152.343750; 1.66735E-4
158.203125; 1.54668E-4
164.062500; 1.42602E-4
169.921875; 1.29169E-4
175.781250; 1.38477E-4
181.640625; 1.28492E-4
187.500000; 1.33813E-4
193.359375; 5.46624E-4
199.218750; 1.34741E-3
205.078125; 8.30732E-4
210.937500; 1.30543E-4
216.796875; 1.37374E-4
222.656250; 1.35806E-4
228.515625; 1.34140E-4
234.375000; 1.41872E-4
240.234375; 1.16713E-4
246.093750; 1.43548E-4
251.953125; 1.58964E-4
257.812500; 1.46055E-4
263.671875; 1.39899E-4
269.531250; 1.45676E-4
275.390625; 1.51158E-4
281.250000; 1.54484E-4
287.109375; 1.37299E-4
292.968750; 1.77286E-4
298.828125; 3.42379E-4
304.687500; 2.54782E-4
310.546875; 1.37252E-4
316.406250; 1.43064E-4
322.265625; 1.44797E-4
328.125000; 1.30656E-4
333.984375; 1.26800E-4
339.843750; 1.31320E-4
345.703125; 1.44029E-4
351.562500; 1.44543E-4
357.421875; 1.49372E-4
363.281250; 1.42402E-4
369.140625; 1.43222E-4
375.000000; 1.35971E-4
380.859375; 1.30709E-4
386.718750; 1.26928E-4
392.578125; 1.33368E-4
398.437500; 2.55256E-4
404.296875; 2.08705E-4
410.156250; 1.25238E-4
416.015625; 1.34689E-4
421.875000; 1.43388E-4
427.734375; 1.41336E-4
433.593750; 1.31335E-4
439.453125; 1.21938E-4
445.312500; 1.19763E-4
451.171875; 1.34716E-4
457.031250; 1.21706E-4
462.890625; 1.37121E-4
468.750000; 1.40787E-4
474.609375; 1.36069E-4
480.468750; 1.18626E-4
486.328125; 1.09732E-4
492.187500; 1.24312E-4
498.046875; 1.49605E-4
503.906250; 1.41253E-4
509.765625; 1.26924E-4
515.625000; 1.34838E-4
521.484375; 1.49426E-4
527.343750; 1.23489E-4
533.203125; 1.45924E-4
539.062500; 1.53287E-4
544.921875; 1.35243E-4
550.781250; 1.23853E-4
556.640625; 1.23292E-4
562.500000; 1.40795E-4
568.359375; 1.42998E-4
574.218750; 1.25109E-4
580.078125; 1.31278E-4
585.937500; 1.27419E-4
591.796875; 1.26498E-4
597.656250; 1.50207E-4
603.515625; 1.49981E-4
609.375000; 1.21365E-4
615.234375; 1.45310E-4
621.093750; 1.32311E-4
626.953125; 1.32497E-4
632.812500; 1.49242E-4
638.671875; 1.43786E-4
644.531250; 1.42728E-4
650.390625; 1.34185E-4
656.250000; 1.38166E-4
662.109375; 1.35076E-4
667.968750; 1.58399E-4
673.828125; 1.48084E-4
679.687500; 1.35079E-4
685.546875; 1.44973E-4
691.406250; 1.42031E-4
697.265625; 1.32983E-4
703.125000; 1.61068E-4
708.984375; 1.61428E-4
714.843750; 1.51856E-4
720.703125; 1.72246E-4
726.562500; 1.51519E-4
732.421875; 1.89940E-4
738.281250; 1.76827E-4
744.140625; 1.81111E-4
750.000000; 1.87049E-4
755.859375; 2.16782E-4
761.718750; 1.94560E-4
767.578125; 2.29564E-4
773.437500; 2.56481E-4
779.296875; 2.18495E-4
785.156250; 2.80342E-4
791.015625; 2.89101E-4
796.875000; 3.08922E-4
802.734375; 3.20323E-4
808.593750; 3.58699E-4
814.453125; 3.90403E-4
820.312500; 4.19978E-4
826.171875; 4.55296E-4
832.031250; 5.29128E-4
837.890625; 5.60287E-4
843.750000; 6.19066E-4
849.609375; 7.04084E-4
855.468750; 7.74486E-4
861.328125; 8.97330E-4
867.187500; 9.92917E-4
873.046875; 1.16112E-3
878.906250; 1.33013E-3
884.765625; 1.52372E-3
890.625000; 1.80579E-3
896.484375; 2.10725E-3
902.343750; 2.52508E-3
908.203125; 3.03876E-3
914.062500; 3.69261E-3
919.921875; 4.57646E-3
925.781250; 5.76397E-3
931.640625; 7.35077E-3
937.500000; 9.66616E-3
943.359375; 1.29869E-2
949.218750; 1.80822E-2
955.078125; 2.62252E-2
960.937500; 4.00763E-2
966.796875; 6.58782E-2
972.656250; 1.19767E-1
978.515625; 2.54485E-1
984.375000; 7.12571E-1
990.234375; 3.91921E0
996.093750; 3.13535E1
1001.953125; 3.91918E1
1007.812500; 1.11977E1
1013.671875; 1.11979E0
1019.531250; 3.44528E-1
1025.390625; 1.50741E-1
1031.250000; 7.93324E-2
1037.109375; 4.68880E-2
1042.968750; 2.99908E-2
1048.828125; 2.03683E-2
1054.687500; 1.44566E-2
1060.546875; 1.06029E-2
1066.406250; 8.05419E-3
1072.265625; 6.22544E-3
1078.125000; 4.96110E-3
1083.984375; 3.93048E-3
1089.843750; 3.24252E-3
1095.703125; 2.67122E-3
1101.562500; 2.25506E-3
1107.421875; 1.89670E-3
1113.281250; 1.60801E-3
1119.140625; 1.39217E-3
1125.000000; 1.19768E-3
1130.859375; 1.06045E-3
1136.718750; 9.26859E-4
1142.578125; 8.07352E-4
1148.437500; 7.40123E-4
1154.296875; 6.29285E-4
1160.156250; 5.91414E-4
1166.015625; 5.13009E-4
1171.875000; 4.84077E-4
1177.734375; 4.35020E-4
1183.593750; 3.95897E-4
1189.453125; 3.53667E-4
1195.312500; 3.49455E-4
1201.171875; 3.02998E-4
1207.031250; 2.95150E-4
1212.890625; 2.63758E-4
1218.750000; 2.54686E-4
1224.609375; 2.45344E-4
1230.468750; 2.33125E-4
1236.328125; 2.09710E-4
1242.187500; 2.16122E-4
1248.046875; 1.91854E-4
1253.906250; 1.97978E-4
1259.765625; 1.79067E-4
1265.625000; 1.69045E-4
1271.484375; 1.61349E-4
1277.343750; 1.67950E-4
1283.203125; 1.51357E-4
1289.062500; 1.68079E-4
1294.921875; 1.57845E-4
1300.781250; 1.55836E-4
1306.640625; 1.54636E-4
1312.500000; 1.33986E-4
1318.359375; 1.32392E-4
1324.218750; 1.23990E-4
1330.078125; 1.34156E-4
1335.937500; 1.31263E-4
1341.796875; 1.30137E-4
1347.656250; 1.48248E-4
1353.515625; 1.54354E-4
1359.375000; 1.23563E-4
1365.234375; 1.24693E-4
1371.093750; 1.24655E-4
1376.953125; 1.16560E-4
1382.812500; 1.22003E-4
1388.671875; 1.29265E-4
1394.531250; 1.14458E-4
1400.390625; 1.35831E-4
1406.250000; 1.23130E-4
1412.109375; 1.18122E-4
1417.968750; 1.18473E-4
1423.828125; 1.13334E-4
1429.687500; 1.29120E-4
1435.546875; 1.25854E-4
1441.406250; 1.16885E-4
1447.265625; 1.10852E-4
1453.125000; 1.10096E-4
1458.984375; 1.09125E-4
1464.843750; 1.08711E-4
1470.703125; 1.11345E-4
1476.562500; 1.21076E-4
1482.421875; 1.18667E-4
1488.281250; 1.02107E-4
1494.140625; 1.01741E-4
1500.000000; 1.18871E-4
1505.859375; 1.14681E-4
1511.718750; 1.26935E-4
1517.578125; 1.15232E-4
1523.437500; 1.21885E-4
1529.296875; 1.16966E-4
1535.156250; 1.02991E-4
1541.015625; 1.11996E-4
1546.875000; 1.21784E-4
1552.734375; 1.20017E-4
1558.593750; 1.16643E-4
1564.453125; 1.17807E-4
1570.312500; 1.16871E-4
1576.171875; 1.19417E-4
1582.031250; 1.16669E-4
1587.890625; 1.06462E-4
1593.750000; 1.06927E-4
1599.609375; 1.21469E-4
1605.468750; 1.24644E-4
1611.328125; 1.19888E-4
1617.187500; 1.07816E-4
1623.046875; 1.04087E-4
1628.906250; 1.07787E-4
1634.765625; 1.11675E-4
1640.625000; 1.19655E-4
1646.484375; 1.07445E-4
1652.343750; 1.10247E-4
1658.203125; 1.00647E-4
1664.062500; 1.17707E-4
1669.921875; 1.25430E-4
1675.781250; 1.11233E-4
1681.640625; 1.11090E-4
1687.500000; 1.02733E-4
1693.359375; 1.08488E-4
1699.218750; 1.14986E-4
1705.078125; 1.16935E-4
1710.937500; 1.26155E-4
1716.796875; 1.26676E-4
1722.656250; 1.13694E-4
1728.515625; 1.09281E-4
1734.375000; 1.16747E-4
1740.234375; 1.08133E-4
1746.093750; 1.03091E-4
1751.953125; 1.12152E-4
1757.812500; 1.14782E-4
1763.671875; 1.11351E-4
1769.531250; 1.16862E-4
1775.390625; 1.04591E-4
1781.250000; 1.08329E-4
1787.109375; 1.16081E-4
1792.968750; 1.09537E-4
1798.828125; 1.11638E-4
1804.687500; 1.14375E-4
1810.546875; 1.23122E-4
1816.406250; 1.17465E-4
1822.265625; 1.20528E-4
1828.125000; 1.18596E-4
1833.984375; 1.16102E-4
1839.843750; 1.16865E-4
1845.703125; 1.12208E-4
1851.562500; 1.11253E-4
1857.421875; 1.15755E-4
1863.281250; 1.20589E-4
1869.140625; 1.07833E-4
1875.000000; 1.11118E-4
1880.859375; 1.04571E-4
1886.718750; 1.16482E-4
1892.578125; 1.26845E-4
1898.437500; 1.29464E-4
1904.296875; 1.28254E-4
1910.156250; 1.28779E-4
1916.015625; 1.27054E-4
1921.875000; 1.14940E-4
1927.734375; 1.09353E-4
1933.593750; 1.14923E-4
1939.453125; 1.28455E-4
1945.312500; 1.19568E-4
1951.171875; 1.20325E-4
1957.031250; 1.15018E-4
1962.890625; 1.18124E-4
1968.750000; 1.14159E-4
1974.609375; 1.15409E-4
1980.468750; 1.50709E-4
1986.328125; 2.96339E-4
1992.187500; 2.82380E-3
1998.046875; 9.86471E-3
2003.906250; 7.89190E-3
2009.765625; 9.96543E-4
2015.625000; 2.07065E-4
2021.484375; 1.23362E-4
2027.343750; 1.28389E-4
2033.203125; 1.26140E-4
2039.062500; 1.20211E-4
2044.921875; 1.05166E-4
2050.781250; 1.05864E-4
2056.640625; 1.12834E-4
2062.500000; 1.10672E-4
2068.359375; 1.18997E-4
2074.218750; 1.28014E-4
2080.078125; 1.25642E-4
2085.937500; 1.18212E-4
2091.796875; 1.20989E-4
2097.656250; 1.06392E-4
2103.515625; 1.07508E-4
2109.375000; 1.12289E-4
2115.234375; 1.16093E-4
2121.093750; 1.26174E-4
2126.953125; 1.20404E-4
2132.812500; 1.07231E-4
2138.671875; 1.10119E-4
2144.531250; 1.07557E-4
2150.390625; 1.09163E-4
2156.250000; 1.20545E-4
2162.109375; 1.24679E-4
2167.968750; 1.22704E-4
2173.828125; 1.16157E-4
2179.687500; 1.21430E-4
2185.546875; 1.23062E-4
2191.406250; 1.12874E-4
2197.265625; 1.22513E-4
2203.125000; 1.22870E-4
2208.984375; 1.17093E-4
2214.843750; 1.18990E-4
2220.703125; 1.09858E-4
2226.562500; 1.00995E-4
2232.421875; 1.08933E-4
2238.281250; 1.13710E-4
2244.140625; 1.27236E-4
2250.000000; 1.20846E-4
2255.859375; 1.09907E-4
2261.718750; 1.10843E-4
2267.578125; 1.14500E-4
2273.437500; 1.09284E-4
2279.296875; 1.26565E-4
2285.156250; 1.07332E-4
2291.015625; 1.09615E-4
2296.875000; 1.10184E-4
2302.734375; 1.04635E-4
2308.593750; 1.05703E-4
2314.453125; 1.10367E-4
2320.312500; 1.08368E-4
2326.171875; 1.12236E-4
2332.031250; 1.12351E-4
2337.890625; 1.06530E-4
2343.750000; 1.13716E-4
2349.609375; 1.12311E-4
2355.468750; 1.09540E-4
2361.328125; 1.06200E-4
2367.187500; 1.08796E-4
2373.046875; 1.10506E-4
2378.906250; 1.05933E-4
2384.765625; 1.06332E-4
2390.625000; 1.15644E-4
2396.484375; 1.17647E-4
2402.343750; 1.03579E-4
2408.203125; 1.02235E-4
2414.062500; 1.10088E-4
2419.921875; 1.14906E-4
2425.781250; 1.09075E-4
2431.640625; 9.80033E-5
2437.500000; 9.88078E-5
2443.359375; 1.00801E-4
2449.218750; 1.06899E-4
2455.078125; 1.23395E-4
2460.937500; 1.11417E-4
2466.796875; 1.00271E-4
2472.656250; 9.79243E-5
2478.515625; 1.02817E-4
2484.375000; 1.00107E-4
2490.234375; 1.02223E-4
2496.093750; 9.73449E-5
2501.953125; 9.64676E-5
2507.812500; 1.16603E-4
2513.671875; 1.15342E-4
2519.531250; 1.02594E-4
2525.390625; 1.16368E-4
2531.250000; 1.23200E-4
2537.109375; 1.02884E-4
2542.968750; 9.75026E-5
2548.828125; 1.13697E-4
2554.687500; 1.21169E-4
2560.546875; 1.19266E-4
2566.406250; 1.19988E-4
2572.265625; 1.12264E-4
2578.125000; 1.11162E-4
2583.984375; 1.12051E-4
2589.843750; 1.04278E-4
2595.703125; 9.90765E-5
2601.562500; 1.18587E-4
2607.421875; 1.26165E-4
2613.281250; 1.25540E-4
2619.140625; 1.17637E-4
2625.000000; 1.12908E-4
2630.859375; 1.16349E-4
2636.718750; 1.15029E-4
2642.578125; 1.12701E-4
2648.437500; 1.15234E-4
2654.296875; 1.11491E-4
2660.156250; 1.11498E-4
2666.015625; 1.06808E-4
2671.875000; 1.07611E-4
2677.734375; 1.16227E-4
2683.593750; 1.16658E-4
2689.453125; 1.16735E-4
2695.312500; 1.05655E-4
2701.171875; 1.07840E-4
2707.031250; 1.16777E-4
2712.890625; 1.09108E-4
2718.750000; 1.05717E-4
2724.609375; 1.16119E-4
2730.468750; 1.12774E-4
2736.328125; 1.10232E-4
2742.187500; 1.10530E-4
2748.046875; 1.03635E-4
2753.906250; 1.09315E-4
2759.765625; 1.09473E-4
2765.625000; 1.09178E-4
2771.484375; 1.20694E-4
2777.343750; 1.04862E-4
2783.203125; 9.18758E-5
2789.062500; 1.03516E-4
2794.921875; 1.02974E-4
2800.781250; 1.15160E-4
2806.640625; 1.31824E-4
2812.500000; 1.14289E-4
2818.359375; 1.11659E-4
2824.218750; 1.12589E-4
2830.078125; 1.21277E-4
2835.937500; 1.22481E-4
2841.796875; 1.16367E-4
2847.656250; 1.09287E-4
2853.515625; 1.22414E-4
2859.375000; 1.21399E-4
2865.234375; 1.00840E-4
2871.093750; 1.04605E-4
2876.953125; 1.09358E-4
2882.812500; 1.15243E-4
2888.671875; 1.11884E-4
2894.531250; 1.04561E-4
2900.390625; 1.12265E-4
2906.250000; 1.17067E-4
2912.109375; 1.18914E-4
2917.968750; 1.14519E-4
2923.828125; 1.19042E-4
2929.687500; 1.16264E-4
2935.546875; 1.00093E-4
2941.406250; 1.07303E-4
2947.265625; 1.06915E-4
2953.125000; 1.07037E-4
2958.984375; 1.13103E-4
2964.843750; 1.19099E-4
2970.703125; 1.14839E-4
2976.562500; 1.21250E-4
2982.421875; 1.11146E-4
2988.281250; 1.19031E-4
2994.140625; 1.02585E-3
3000.000000; 2.02461E-3
3005.859375; 1.01175E-3
3011.718750; 1.16463E-4
3017.578125; 1.16101E-4
3023.437500; 1.12204E-4
3029.296875; 1.12523E-4
3035.156250; 1.05609E-4
3041.015625; 1.08583E-4
3046.875000; 1.10206E-4
3052.734375; 1.09087E-4
3058.593750; 9.36515E-5
3064.453125; 1.11017E-4
3070.312500; 1.14281E-4
3076.171875; 1.04094E-4
3082.031250; 1.04160E-4
3087.890625; 9.92834E-5
3093.750000; 9.60869E-5
3099.609375; 1.16381E-4
3105.468750; 1.23271E-4
3111.328125; 1.15010E-4
3117.187500; 1.13446E-4
3123.046875; 1.15334E-4
3128.906250; 1.06046E-4
3134.765625; 1.16936E-4
3140.625000; 1.08731E-4
3146.484375; 1.02894E-4
3152.343750; 1.02658E-4
3158.203125; 1.14986E-4
3164.062500; 1.21916E-4
3169.921875; 1.19347E-4
3175.781250; 1.02290E-4
3181.640625; 1.03091E-4
3187.500000; 1.16718E-4
3193.359375; 1.12913E-4
3199.218750; 1.05362E-4
3205.078125; 1.07765E-4
3210.937500; 1.18891E-4
3216.796875; 1.14833E-4
3222.656250; 9.43583E-5
3228.515625; 1.09170E-4
3234.375000; 1.06925E-4
3240.234375; 1.08816E-4
3246.093750; 1.21358E-4
3251.953125; 1.07698E-4
3257.812500; 1.16263E-4
3263.671875; 1.12231E-4
3269.531250; 1.09049E-4
3275.390625; 1.23295E-4
3281.250000; 1.23665E-4
3287.109375; 1.15000E-4
3292.968750; 1.05015E-4
3298.828125; 1.10111E-4
3304.687500; 1.11684E-4
3310.546875; 1.03024E-4
3316.406250; 1.06846E-4
3322.265625; 1.12083E-4
3328.125000; 1.04425E-4
3333.984375; 1.05144E-4
3339.843750; 1.18946E-4
3345.703125; 1.05212E-4
3351.562500; 1.16532E-4
3357.421875; 1.18468E-4
3363.281250; 1.11225E-4
3369.140625; 1.19720E-4
3375.000000; 1.14139E-4
3380.859375; 1.09798E-4
3386.718750; 1.07593E-4
3392.578125; 1.08132E-4
3398.437500; 1.09157E-4
3404.296875; 1.18781E-4
3410.156250; 1.23058E-4
3416.015625; 1.07157E-4
3421.875000; 1.11421E-4
3427.734375; 1.09579E-4
3433.593750; 1.17650E-4
3439.453125; 1.05170E-4
3445.312500; 1.07526E-4
3451.171875; 1.08836E-4
3457.031250; 1.06369E-4
3462.890625; 9.64988E-5
3468.750000; 1.02461E-4
3474.609375; 1.02511E-4
3480.468750; 1.02058E-4
3486.328125; 1.05213E-4
3492.187500; 1.11966E-4
3498.046875; 1.14146E-4
3503.906250; 1.07328E-4
3509.765625; 9.97905E-5
3515.625000; 1.12572E-4
3521.484375; 1.34580E-4
3527.343750; 1.26093E-4
3533.203125; 1.08336E-4
3539.062500; 1.03433E-4
3544.921875; 1.10788E-4
3550.781250; 1.14294E-4
3556.640625; 1.10238E-4
3562.500000; 1.11655E-4
3568.359375; 1.13883E-4
3574.218750; 1.17283E-4
3580.078125; 1.08667E-4
3585.937500; 1.07478E-4
3591.796875; 1.14558E-4
3597.656250; 1.06757E-4
3603.515625; 1.09296E-4
3609.375000; 9.61364E-5
3615.234375; 1.06664E-4
3621.093750; 1.06626E-4
3626.953125; 1.05059E-4
3632.812500; 1.14623E-4
3638.671875; 1.15473E-4
3644.531250; 1.16693E-4
3650.390625; 1.07781E-4
3656.250000; 9.74341E-5
3662.109375; 1.09433E-4
3667.968750; 1.11516E-4
3673.828125; 1.11065E-4
3679.687500; 1.17270E-4
3685.546875; 1.16211E-4
3691.406250; 1.12315E-4
3697.265625; 1.05978E-4
3703.125000; 1.09450E-4
3708.984375; 9.64564E-5
3714.843750; 1.01478E-4
3720.703125; 1.16931E-4
3726.562500; 1.12075E-4
3732.421875; 1.05266E-4
3738.281250; 1.01921E-4
3744.140625; 9.78146E-5
3750.000000; 1.03127E-4
3755.859375; 1.11958E-4
3761.718750; 1.23022E-4
3767.578125; 1.01879E-4
3773.437500; 1.02432E-4
3779.296875; 1.15598E-4
3785.156250; 1.11634E-4
3791.015625; 1.16742E-4
3796.875000; 1.21383E-4
3802.734375; 1.17876E-4
3808.593750; 1.15077E-4
3814.453125; 1.16628E-4
3820.312500; 1.06710E-4
3826.171875; 9.70429E-5
3832.031250; 1.04917E-4
3837.890625; 1.00434E-4
3843.750000; 1.02561E-4
3849.609375; 1.03956E-4
3855.468750; 1.11333E-4
3861.328125; 1.12421E-4
3867.187500; 9.95611E-5
3873.046875; 1.06285E-4
3878.906250; 1.14043E-4
3884.765625; 1.03093E-4
3890.625000; 9.88604E-5
3896.484375; 1.12864E-4
3902.343750; 1.08943E-4
3908.203125; 1.20728E-4
3914.062500; 1.19409E-4
3919.921875; 1.14342E-4
3925.781250; 1.08374E-4
3931.640625; 1.07869E-4
3937.500000; 1.12790E-4
3943.359375; 1.09355E-4
3949.218750; 1.09109E-4
3955.078125; 9.91122E-5
3960.937500; 1.14655E-4
3966.796875; 1.14745E-4
3972.656250; 1.07514E-4
3978.515625; 1.10664E-4
3984.375000; 1.03467E-4
3990.234375; 1.90649E-4
3996.093750; 1.17874E-3
4001.953125; 1.48197E-3
4007.812500; 4.41232E-4
4013.671875; 1.15118E-4
4019.531250; 1.09107E-4
4025.390625; 1.17465E-4
4031.250000; 1.14405E-4
4037.109375; 1.25956E-4
4042.968750; 1.17951E-4
4048.828125; 1.06143E-4
4054.687500; 1.08034E-4
4060.546875; 1.12515E-4
4066.406250; 1.08465E-4
4072.265625; 1.12403E-4
4078.125000; 1.03033E-4
4083.984375; 1.04496E-4
4089.843750; 1.03857E-4
4095.703125; 1.06914E-4
4101.562500; 1.17254E-4
4107.421875; 1.15896E-4
4113.281250; 1.13987E-4
4119.140625; 1.12741E-4
4125.000000; 1.12073E-4
4130.859375; 1.15111E-4
4136.718750; 1.09547E-4
4142.578125; 1.02622E-4
4148.437500; 9.93766E-5
4154.296875; 1.05558E-4
4160.156250; 1.10880E-4
4166.015625; 1.06830E-4
4171.875000; 9.85676E-5
4177.734375; 9.72177E-5
4183.593750; 9.77954E-5
4189.453125; 1.09158E-4
4195.312500; 1.07754E-4
4201.171875; 1.05203E-4
4207.031250; 1.12377E-4
4212.890625; 1.10779E-4
4218.750000; 1.06840E-4
4224.609375; 1.06762E-4
4230.468750; 1.10483E-4
4236.328125; 1.05643E-4
4242.187500; 1.06230E-4
4248.046875; 1.19056E-4
4253.906250; 1.27534E-4
4259.765625; 1.23992E-4
4265.625000; 1.05647E-4
4271.484375; 1.11162E-4
4277.343750; 1.08337E-4
4283.203125; 1.02118E-4
4289.062500; 1.00506E-4
4294.921875; 1.05889E-4
4300.781250; 1.05896E-4
4306.640625; 1.19565E-4
4312.500000; 1.13085E-4
4318.359375; 1.04846E-4
4324.218750; 1.10458E-4
4330.078125; 1.10159E-4
4335.937500; 1.12919E-4
4341.796875; 1.09434E-4
4347.656250; 1.18187E-4
4353.515625; 1.13865E-4
4359.375000; 9.78117E-5
4365.234375; 9.97076E-5
4371.093750; 1.04256E-4
4376.953125; 1.03981E-4
4382.812500; 1.18464E-4
4388.671875; 1.19584E-4
4394.531250; 1.13315E-4
4400.390625; 1.09882E-4
4406.250000; 1.09772E-4
4412.109375; 1.10902E-4
4417.968750; 9.40875E-5
4423.828125; 9.68616E-5
4429.687500; 1.01718E-4
4435.546875; 1.17638E-4
4441.406250; 1.09249E-4
4447.265625; 1.10410E-4
4453.125000; 1.15319E-4
4458.984375; 1.06151E-4
4464.843750; 9.74096E-5
4470.703125; 1.06297E-4
4476.562500; 1.14158E-4
4482.421875; 1.06820E-4
4488.281250; 1.09565E-4
4494.140625; 1.13765E-4
4500.000000; 1.20432E-4
4505.859375; 1.13983E-4
4511.718750; 1.05039E-4
4517.578125; 1.01288E-4
4523.437500; 1.03299E-4
4529.296875; 9.41073E-5
4535.156250; 1.12107E-4
4541.015625; 1.12955E-4
4546.875000; 1.06022E-4
4552.734375; 1.05099E-4
4558.593750; 1.04420E-4
4564.453125; 1.14615E-4
4570.312500; 1.21830E-4
4576.171875; 1.14204E-4
4582.031250; 1.17035E-4
4587.890625; 1.13323E-4
4593.750000; 1.03200E-4
4599.609375; 1.00990E-4
4605.468750; 1.09011E-4
4611.328125; 1.13037E-4
4617.187500; 1.07684E-4
4623.046875; 1.09354E-4
4628.906250; 1.08153E-4
4634.765625; 1.12379E-4
4640.625000; 1.11593E-4
4646.484375; 1.10066E-4
4652.343750; 1.14695E-4
4658.203125; 1.12847E-4
4664.062500; 1.03294E-4
4669.921875; 1.09955E-4
4675.781250; 1.15752E-4
4681.640625; 1.11403E-4
4687.500000; 9.84790E-5
4693.359375; 1.00170E-4
4699.218750; 1.14716E-4
4705.078125; 1.13375E-4
4710.937500; 1.02692E-4
4716.796875; 1.03122E-4
4722.656250; 1.04557E-4
4728.515625; 1.07423E-4
4734.375000; 9.78155E-5
4740.234375; 1.08442E-4
4746.093750; 1.23115E-4
4751.953125; 1.20034E-4
4757.812500; 1.18718E-4
4763.671875; 1.27844E-4
4769.531250; 1.08741E-4
4775.390625; 9.88170E-5
4781.250000; 1.07780E-4
4787.109375; 1.13744E-4
4792.968750; 1.08698E-4
4798.828125; 1.13308E-4
4804.687500; 1.08890E-4
4810.546875; 1.07627E-4
4816.406250; 1.02294E-4
4822.265625; 9.77032E-5
4828.125000; 1.09585E-4
4833.984375; 1.18481E-4
4839.843750; 1.11476E-4
4845.703125; 9.89156E-5
4851.562500; 1.06403E-4
4857.421875; 1.14512E-4
4863.281250; 1.14102E-4
4869.140625; 1.12046E-4
4875.000000; 1.06551E-4
4880.859375; 1.07304E-4
4886.718750; 1.14810E-4
4892.578125; 1.14134E-4
4898.437500; 1.09168E-4
4904.296875; 1.10419E-4
4910.156250; 1.26476E-4
4916.015625; 1.01183E-4
4921.875000; 1.08354E-4
4927.734375; 1.17779E-4
4933.593750; 1.11167E-4
4939.453125; 1.05160E-4
4945.312500; 1.04002E-4
4951.171875; 1.21006E-4
4957.031250; 1.11410E-4
4962.890625; 1.10579E-4
4968.750000; 1.07200E-4
4974.609375; 1.06540E-4
4980.468750; 9.86231E-5
4986.328125; 1.06543E-4
4992.187500; 1.54975E-4
4998.046875; 4.18841E-4
5003.906250; 3.47314E-4
5009.765625; 1.14774E-4
5015.625000; 9.52064E-5
5021.484375; 1.07181E-4
5027.343750; 1.17188E-4
5033.203125; 1.04222E-4
5039.062500; 1.05019E-4
5044.921875; 1.12271E-4
5050.781250; 1.07166E-4
5056.640625; 1.04122E-4
5062.500000; 1.03496E-4
5068.359375; 1.07342E-4
5074.218750; 1.03753E-4
5080.078125; 1.02163E-4
5085.937500; 9.95024E-5
5091.796875; 1.09614E-4
5097.656250; 1.09705E-4
5103.515625; 1.07745E-4
5109.375000; 1.16231E-4
5115.234375; 1.24799E-4
5121.093750; 1.22471E-4
5126.953125; 1.21145E-4
5132.812500; 1.08107E-4
5138.671875; 1.08441E-4
5144.531250; 1.15316E-4
5150.390625; 1.12879E-4
5156.250000; 1.10382E-4
5162.109375; 1.09227E-4
5167.968750; 1.17574E-4
5173.828125; 1.18313E-4
5179.687500; 1.09230E-4
5185.546875; 1.08618E-4
5191.406250; 1.06868E-4
5197.265625; 9.58080E-5
5203.125000; 1.02217E-4
5208.984375; 1.07629E-4
5214.843750; 1.00276E-4
5220.703125; 1.04495E-4
5226.562500; 1.07419E-4
5232.421875; 1.11143E-4
5238.281250; 1.10983E-4
5244.140625; 1.07009E-4
5250.000000; 1.07711E-4
5255.859375; 1.08299E-4
5261.718750; 1.03380E-4
5267.578125; 1.03141E-4
5273.437500; 1.07430E-4
5279.296875; 1.13128E-4
5285.156250; 9.96438E-5
5291.015625; 1.06524E-4
5296.875000; 1.12035E-4
5302.734375; 1.30877E-4
5308.593750; 1.14612E-4
5314.453125; 1.09036E-4
5320.312500; 1.12337E-4
5326.171875; 1.09120E-4
5332.031250; 1.01036E-4
5337.890625; 1.06434E-4
5343.750000; 1.04471E-4
5349.609375; 1.04490E-4
5355.468750; 1.01051E-4
5361.328125; 1.05217E-4
5367.187500; 1.03718E-4
5373.046875; 9.68701E-5
5378.906250; 9.90320E-5
5384.765625; 9.36519E-5
5390.625000; 9.62157E-5
5396.484375; 1.00624E-4
5402.343750; 1.12563E-4
5408.203125; 1.14734E-4
5414.062500; 1.11073E-4
5419.921875; 1.10113E-4
5425.781250; 1.12133E-4
5431.640625; 1.13404E-4
5437.500000; 1.15455E-4
5443.359375; 1.18864E-4
5449.218750; 1.17503E-4
5455.078125; 1.05904E-4
5460.937500; 1.09838E-4
5466.796875; 1.07628E-4
5472.656250; 1.05448E-4
5478.515625; 1.17035E-4
5484.375000; 1.12990E-4
5490.234375; 9.87550E-5
5496.093750; 1.15132E-4
5501.953125; 1.09227E-4
5507.812500; 1.20542E-4
5513.671875; 1.12559E-4
5519.531250; 1.11835E-4
5525.390625; 1.05616E-4
5531.250000; 9.63634E-5
5537.109375; 9.77073E-5
5542.968750; 1.10995E-4
5548.828125; 1.13411E-4
5554.687500; 9.92039E-5
5560.546875; 1.03982E-4
5566.406250; 1.09729E-4
5572.265625; 1.05646E-4
5578.125000; 1.03334E-4
5583.984375; 1.22216E-4
5589.843750; 1.21914E-4
5595.703125; 1.05392E-4
5601.562500; 1.06792E-4
5607.421875; 1.03308E-4
5613.281250; 9.57587E-5
5619.140625; 9.61739E-5
5625.000000; 1.03149E-4
5630.859375; 1.11267E-4
5636.718750; 1.07185E-4
5642.578125; 1.01458E-4
5648.437500; 1.00431E-4
5654.296875; 1.02944E-4
5660.156250; 1.18995E-4
5666.015625; 1.01096E-4
5671.875000; 1.08109E-4
5677.734375; 1.09365E-4
5683.593750; 1.02271E-4
5689.453125; 1.14373E-4
5695.312500; 1.19490E-4
5701.171875; 1.21183E-4
5707.031250; 1.13998E-4
5712.890625; 1.02911E-4
5718.750000; 1.15931E-4
5724.609375; 1.14629E-4
5730.468750; 1.15953E-4
5736.328125; 1.19467E-4
5742.187500; 1.11129E-4
5748.046875; 1.13322E-4
5753.906250; 1.20093E-4
5759.765625; 1.18097E-4
5765.625000; 1.07697E-4
5771.484375; 1.04808E-4
5777.343750; 9.77410E-5
5783.203125; 1.03519E-4
5789.062500; 1.16785E-4
5794.921875; 1.16807E-4
5800.781250; 1.07358E-4
5806.640625; 1.08856E-4
5812.500000; 1.11075E-4
5818.359375; 1.11571E-4
5824.218750; 1.15569E-4
5830.078125; 1.11008E-4
5835.937500; 1.13123E-4
5841.796875; 1.12424E-4
5847.656250; 1.09277E-4
5853.515625; 1.17500E-4
5859.375000; 1.12185E-4
5865.234375; 1.01189E-4
5871.093750; 9.66186E-5
5876.953125; 1.01583E-4
5882.812500; 1.10054E-4
5888.671875; 1.06527E-4
5894.531250; 9.89093E-5
5900.390625; 1.09826E-4
5906.250000; 1.18745E-4
5912.109375; 1.05077E-4
5917.968750; 1.08936E-4
5923.828125; 1.08076E-4
5929.687500; 1.02329E-4
5935.546875; 1.00534E-4
5941.406250; 1.15085E-4
5947.265625; 1.14540E-4
5953.125000; 1.11929E-4
5958.984375; 1.08868E-4
5964.843750; 1.07186E-4
5970.703125; 1.10539E-4
5976.562500; 1.05635E-4
5982.421875; 1.06620E-4
5988.281250; 9.67322E-5
5994.140625; 1.26815E-4
6000.000000; 1.97288E-4
6005.859375; 1.32248E-4
6011.718750; 1.26204E-4
6017.578125; 1.20151E-4
6023.437500; 1.11448E-4
6029.296875; 1.09148E-4
6035.156250; 1.08159E-4
6041.015625; 1.08613E-4
6046.875000; 1.05844E-4
6052.734375; 9.46247E-5
6058.593750; 9.83205E-5
6064.453125; 1.02985E-4
6070.312500; 1.07331E-4
6076.171875; 1.23867E-4
6082.031250; 1.20285E-4
6087.890625; 1.02886E-4
6093.750000; 1.13018E-4
6099.609375; 1.19064E-4
6105.468750; 1.13328E-4
6111.328125; 1.24786E-4
6117.187500; 1.20804E-4
6123.046875; 1.18797E-4
6128.906250; 1.11350E-4
6134.765625; 1.18661E-4
6140.625000; 1.19155E-4
6146.484375; 1.08888E-4
6152.343750; 1.05836E-4
6158.203125; 1.00150E-4
6164.062500; 1.01868E-4
6169.921875; 1.09456E-4
6175.781250; 1.14982E-4
6181.640625; 1.20102E-4
6187.500000; 1.17381E-4
6193.359375; 1.18066E-4
6199.218750; 1.04170E-4
6205.078125; 1.03128E-4
6210.937500; 1.12955E-4
6216.796875; 1.06907E-4
6222.656250; 1.03457E-4
6228.515625; 1.04593E-4
6234.375000; 9.21485E-5
6240.234375; 9.73862E-5
6246.093750; 1.12590E-4
6251.953125; 1.14230E-4
6257.812500; 1.13687E-4
6263.671875; 1.17741E-4
6269.531250; 1.03194E-4
6275.390625; 1.09880E-4
6281.250000; 1.06190E-4
6287.109375; 1.11328E-4
6292.968750; 1.13056E-4
6298.828125; 1.08657E-4
6304.687500; 1.02231E-4
6310.546875; 9.96927E-5
6316.406250; 1.13182E-4
6322.265625; 1.15835E-4
6328.125000; 1.17601E-4
6333.984375; 1.13741E-4
6339.843750; 1.23217E-4
6345.703125; 1.13168E-4
6351.562500; 1.11414E-4
6357.421875; 1.16615E-4
6363.281250; 1.18259E-4
6369.140625; 1.13748E-4
6375.000000; 1.08928E-4
6380.859375; 1.13564E-4
6386.718750; 1.04376E-4
6392.578125; 1.03499E-4
6398.437500; 9.93820E-5
6404.296875; 1.12130E-4
6410.156250; 1.07283E-4
6416.015625; 1.16640E-4
6421.875000; 1.24248E-4
6427.734375; 1.05148E-4
6433.593750; 9.87348E-5
6439.453125; 1.01372E-4
6445.312500; 9.83752E-5
6451.171875; 8.72318E-5
6457.031250; 1.02269E-4
6462.890625; 1.05185E-4
6468.750000; 1.01188E-4
6474.609375; 9.64562E-5
6480.468750; 1.10636E-4
6486.328125; 1.16873E-4
6492.187500; 1.07846E-4
6498.046875; 1.15506E-4
6503.906250; 1.06863E-4
6509.765625; 1.00174E-4
6515.625000; 1.05886E-4
6521.484375; 1.15567E-4
6527.343750; 1.15665E-4
6533.203125; 1.25535E-4
6539.062500; 1.15109E-4
6544.921875; 1.07558E-4
6550.781250; 1.03811E-4
6556.640625; 9.80540E-5
6562.500000; 1.07114E-4
6568.359375; 1.11137E-4
6574.218750; 1.00194E-4
6580.078125; 1.03614E-4
6585.937500; 1.04342E-4
6591.796875; 1.10187E-4
6597.656250; 1.15814E-4
6603.515625; 1.13693E-4
6609.375000; 1.21828E-4
6615.234375; 1.16571E-4
6621.093750; 1.01659E-4
6626.953125; 1.00976E-4
6632.812500; 1.03943E-4
6638.671875; 9.69415E-5
6644.531250; 1.06286E-4
6650.390625; 1.11111E-4
6656.250000; 1.05816E-4
6662.109375; 1.07815E-4
6667.968750; 9.98408E-5
6673.828125; 9.42198E-5
6679.687500; 9.56697E-5
6685.546875; 1.00363E-4
6691.406250; 1.06921E-4
6697.265625; 1.03515E-4
6703.125000; 9.81842E-5
6708.984375; 1.04519E-4
6714.843750; 1.10155E-4
6720.703125; 1.08012E-4
6726.562500; 1.07550E-4
6732.421875; 1.25008E-4
6738.281250; 1.19812E-4
6744.140625; 1.01152E-4
6750.000000; 1.12695E-4
6755.859375; 1.14308E-4
6761.718750; 1.08594E-4
6767.578125; 1.07798E-4
6773.437500; 1.05472E-4
6779.296875; 1.05951E-4
6785.156250; 1.03988E-4
6791.015625; 1.00062E-4
6796.875000; 1.01700E-4
6802.734375; 1.06958E-4
6808.593750; 1.06699E-4
6814.453125; 9.84920E-5
6820.312500; 1.06411E-4
6826.171875; 1.21070E-4
6832.031250; 1.21102E-4
6837.890625; 1.12730E-4
6843.750000; 1.04611E-4
6849.609375; 1.17562E-4
6855.468750; 1.11573E-4
6861.328125; 1.11215E-4
6867.187500; 1.12001E-4
6873.046875; 1.06006E-4
6878.906250; 1.06779E-4
6884.765625; 1.15430E-4
6890.625000; 1.10424E-4
6896.484375; 9.76766E-5
6902.343750; 1.08465E-4
6908.203125; 1.10142E-4
6914.062500; 1.08741E-4
6919.921875; 1.00860E-4
6925.781250; 1.13751E-4
6931.640625; 1.11641E-4
6937.500000; 1.12859E-4
6943.359375; 1.08654E-4
6949.218750; 1.04128E-4
6955.078125; 9.50928E-5
6960.937500; 9.21350E-5
6966.796875; 1.04139E-4
6972.656250; 9.10821E-5
6978.515625; 1.00399E-4
6984.375000; 9.90086E-5
6990.234375; 9.80725E-5
6996.093750; 1.14401E-4
7001.953125; 1.31506E-4
7007.812500; 1.03032E-4
7013.671875; 1.16896E-4
7019.531250; 1.16251E-4
7025.390625; 1.04841E-4
7031.250000; 1.06204E-4
7037.109375; 9.37338E-5
7042.968750; 9.83909E-5
7048.828125; 1.01082E-4
7054.687500; 1.14300E-4
7060.546875; 1.16992E-4
7066.406250; 1.11385E-4
7072.265625; 1.03100E-4
7078.125000; 1.07831E-4
7083.984375; 1.02408E-4
7089.843750; 1.03327E-4
7095.703125; 1.09727E-4
7101.562500; 1.24087E-4
7107.421875; 1.12608E-4
7113.281250; 1.14962E-4
7119.140625; 1.27007E-4
7125.000000; 1.14243E-4
7130.859375; 1.14557E-4
7136.718750; 1.15599E-4
7142.578125; 1.08380E-4
7148.437500; 1.03677E-4
7154.296875; 1.08442E-4
7160.156250; 1.17598E-4
7166.015625; 1.20856E-4
7171.875000; 1.17432E-4
7177.734375; 1.04213E-4
7183.593750; 9.34701E-5
7189.453125; 1.06427E-4
7195.312500; 1.16728E-4
7201.171875; 1.04401E-4
7207.031250; 1.10224E-4
7212.890625; 1.15837E-4
7218.750000; 1.13346E-4
7224.609375; 1.00986E-4
7230.468750; 1.13567E-4
7236.328125; 1.07564E-4
7242.187500; 1.09367E-4
7248.046875; 1.06874E-4
7253.906250; 1.11371E-4
7259.765625; 1.00032E-4
7265.625000; 9.48092E-5
7271.484375; 9.60216E-5
7277.343750; 1.04591E-4
7283.203125; 1.02577E-4
7289.062500; 1.01081E-4
7294.921875; 1.02030E-4
7300.781250; 9.13049E-5
7306.640625; 9.34993E-5
7312.500000; 9.37768E-5
7318.359375; 1.13568E-4
7324.218750; 1.19525E-4
7330.078125; 1.04719E-4
7335.937500; 9.99233E-5
7341.796875; 1.07484E-4
7347.656250; 1.01486E-4
7353.515625; 9.90086E-5
7359.375000; 1.05567E-4
7365.234375; 1.01136E-4
7371.093750; 1.14455E-4
7376.953125; 1.04668E-4
7382.812500; 9.77391E-5
7388.671875; 1.11555E-4
7394.531250; 1.19214E-4
7400.390625; 1.10418E-4
7406.250000; 1.03118E-4
7412.109375; 1.07449E-4
7417.968750; 1.16170E-4
7423.828125; 1.01341E-4
7429.687500; 1.02290E-4
7435.546875; 1.09922E-4
7441.406250; 1.03274E-4
7447.265625; 1.04084E-4
7453.125000; 1.05771E-4
7458.984375; 1.10242E-4
7464.843750; 1.10188E-4
7470.703125; 1.14601E-4
7476.562500; 9.76741E-5
7482.421875; 9.33993E-5
7488.281250; 9.93798E-5
7494.140625; 1.06649E-4
7500.000000; 1.11847E-4
7505.859375; 1.16148E-4
7511.718750; 1.13326E-4
7517.578125; 1.09727E-4
7523.437500; 1.09864E-4
7529.296875; 1.09914E-4
7535.156250; 1.06568E-4
7541.015625; 1.01692E-4
7546.875000; 9.92931E-5
7552.734375; 1.13554E-4
7558.593750; 1.13820E-4
7564.453125; 1.10440E-4
7570.312500; 1.03950E-4
7576.171875; 1.00382E-4
7582.031250; 9.84652E-5
7587.890625; 1.14526E-4
7593.750000; 1.12790E-4
7599.609375; 1.01765E-4
7605.468750; 9.89589E-5
7611.328125; 9.60595E-5
7617.187500; 9.14982E-5
7623.046875; 9.76427E-5
7628.906250; 1.00822E-4
7634.765625; 9.99939E-5
7640.625000; 1.03576E-4
7646.484375; 1.15402E-4
7652.343750; 1.15939E-4
7658.203125; 1.06420E-4
7664.062500; 1.17963E-4
7669.921875; 1.01384E-4
7675.781250; 1.03891E-4
7681.640625; 1.00620E-4
7687.500000; 9.67707E-5
7693.359375; 9.52022E-5
7699.218750; 1.00797E-4
7705.078125; 1.07732E-4
7710.937500; 1.03111E-4
7716.796875; 1.11182E-4
7722.656250; 1.11739E-4
7728.515625; 1.02838E-4
7734.375000; 1.12851E-4
7740.234375; 1.15201E-4
7746.093750; 1.09993E-4
7751.953125; 9.47403E-5
7757.812500; 1.05402E-4
7763.671875; 1.15842E-4
7769.531250; 9.73413E-5
7775.390625; 9.64674E-5
7781.250000; 1.06687E-4
7787.109375; 1.09680E-4
7792.968750; 1.28569E-4
7798.828125; 1.11750E-4
7804.687500; 1.05341E-4
7810.546875; 1.08088E-4
7816.406250; 9.86084E-5
7822.265625; 9.61035E-5
7828.125000; 1.08929E-4
7833.984375; 1.15690E-4
7839.843750; 1.04012E-4
7845.703125; 9.41751E-5
7851.562500; 1.07883E-4
7857.421875; 1.01910E-4
7863.281250; 1.07356E-4
7869.140625; 1.19647E-4
7875.000000; 1.17559E-4
7880.859375; 1.19019E-4
7886.718750; 1.19479E-4
7892.578125; 1.06734E-4
7898.437500; 1.11472E-4
7904.296875; 1.06090E-4
7910.156250; 1.14536E-4
7916.015625; 1.01637E-4
7921.875000; 1.01653E-4
7927.734375; 1.10734E-4
7933.593750; 1.06271E-4
7939.453125; 1.06742E-4
7945.312500; 1.17025E-4
7951.171875; 1.10699E-4
7957.031250; 1.04879E-4
7962.890625; 1.00275E-4
7968.750000; 1.01505E-4
7974.609375; 1.04155E-4
7980.468750; 1.09049E-4
7986.328125; 1.09027E-4
7992.187500; 1.20318E-4
7998.046875; 1.21432E-4
8003.906250; 1.22729E-4
8009.765625; 1.02021E-4
8015.625000; 1.03724E-4
8021.484375; 1.04081E-4
8027.343750; 1.07818E-4
8033.203125; 1.08906E-4
8039.062500; 1.20507E-4
8044.921875; 1.14818E-4
8050.781250; 1.09733E-4
8056.640625; 1.14968E-4
8062.500000; 1.20164E-4
8068.359375; 1.09488E-4
8074.218750; 1.11992E-4
8080.078125; 1.16195E-4
8085.937500; 1.07438E-4
8091.796875; 1.03673E-4
8097.656250; 1.13968E-4
8103.515625; 1.05943E-4
8109.375000; 9.76336E-5
8115.234375; 1.06113E-4
8121.093750; 1.16056E-4
8126.953125; 9.58441E-5
8132.812500; 1.02596E-4
8138.671875; 1.08711E-4
8144.531250; 1.03361E-4
8150.390625; 1.00139E-4
8156.250000; 1.08625E-4
8162.109375; 1.17864E-4
8167.968750; 1.00886E-4
8173.828125; 1.03413E-4
8179.687500; 1.20496E-4
8185.546875; 1.11674E-4
8191.406250; 1.13406E-4
8197.265625; 1.00858E-4
8203.125000; 1.01425E-4
8208.984375; 1.10888E-4
8214.843750; 1.18136E-4
8220.703125; 1.07941E-4
8226.562500; 1.05075E-4
8232.421875; 1.13874E-4
8238.281250; 1.14520E-4
8244.140625; 1.07283E-4
8250.000000; 1.20071E-4
8255.859375; 1.21789E-4
8261.718750; 1.14377E-4
8267.578125; 1.15189E-4
8273.437500; 1.10234E-4
8279.296875; 1.16944E-4
8285.156250; 1.20614E-4
8291.015625; 1.26783E-4
8296.875000; 1.26219E-4
8302.734375; 1.07196E-4
8308.593750; 1.05419E-4
8314.453125; 1.12596E-4
8320.312500; 1.11920E-4
8326.171875; 1.00510E-4
8332.031250; 1.01444E-4
8337.890625; 1.13447E-4
8343.750000; 1.07869E-4
8349.609375; 1.07899E-4
8355.468750; 1.08429E-4
8361.328125; 1.10329E-4
8367.187500; 1.04993E-4
8373.046875; 1.11773E-4
8378.906250; 1.14463E-4
8384.765625; 1.14465E-4
8390.625000; 1.13269E-4
8396.484375; 1.09452E-4
8402.343750; 1.02611E-4
8408.203125; 1.05459E-4
8414.062500; 1.10616E-4
8419.921875; 1.12239E-4
8425.781250; 1.04249E-4
8431.640625; 1.06899E-4
8437.500000; 1.10412E-4
8443.359375; 1.07432E-4
8449.218750; 1.10412E-4
8455.078125; 1.12774E-4
8460.937500; 1.10793E-4
8466.796875; 1.12366E-4
8472.656250; 1.10664E-4
8478.515625; 9.74793E-5
8484.375000; 9.77718E-5
8490.234375; 1.05791E-4
8496.093750; 1.14639E-4
8501.953125; 1.09530E-4
8507.812500; 1.10969E-4
8513.671875; 1.15544E-4
8519.531250; 1.16353E-4
8525.390625; 1.05944E-4
8531.250000; 9.79746E-5
8537.109375; 1.07461E-4
8542.968750; 1.11637E-4
8548.828125; 1.09621E-4
8554.687500; 1.11739E-4
8560.546875; 1.02460E-4
8566.406250; 1.07268E-4
8572.265625; 1.12154E-4
8578.125000; 1.14950E-4
8583.984375; 1.01844E-4
8589.843750; 1.06761E-4
8595.703125; 1.11690E-4
8601.562500; 1.04310E-4
8607.421875; 1.15655E-4
8613.281250; 1.14876E-4
8619.140625; 1.06455E-4
8625.000000; 1.00548E-4
8630.859375; 1.00415E-4
8636.718750; 1.10655E-4
8642.578125; 1.08903E-4
8648.437500; 1.00400E-4
8654.296875; 1.07227E-4
8660.156250; 1.16911E-4
8666.015625; 1.13743E-4
8671.875000; 1.07696E-4
8677.734375; 1.12757E-4
8683.593750; 1.07915E-4
8689.453125; 1.13299E-4
8695.312500; 1.11904E-4
8701.171875; 1.02408E-4
8707.031250; 9.60964E-5
8712.890625; 9.87561E-5
8718.750000; 1.01724E-4
8724.609375; 8.70194E-5
8730.468750; 9.72990E-5
8736.328125; 1.13173E-4
8742.187500; 1.20395E-4
8748.046875; 1.24790E-4
8753.906250; 1.12074E-4
8759.765625; 1.05951E-4
8765.625000; 1.14754E-4
8771.484375; 1.04707E-4
8777.343750; 1.07761E-4
8783.203125; 1.21841E-4
8789.062500; 1.03355E-4
8794.921875; 1.08625E-4
8800.781250; 9.66520E-5
8806.640625; 1.00924E-4
8812.500000; 1.11989E-4
8818.359375; 1.07054E-4
8824.218750; 1.06121E-4
8830.078125; 1.16302E-4
8835.937500; 1.08781E-4
8841.796875; 9.85729E-5
8847.656250; 1.03593E-4
8853.515625; 1.05189E-4
8859.375000; 1.05348E-4
8865.234375; 1.02361E-4
8871.093750; 1.05291E-4
8876.953125; 1.05511E-4
8882.812500; 1.08625E-4
8888.671875; 1.07071E-4
8894.531250; 1.02484E-4
8900.390625; 9.10834E-5
8906.250000; 9.39632E-5
8912.109375; 1.03010E-4
8917.968750; 1.02992E-4
8923.828125; 9.86048E-5
8929.687500; 8.38218E-5
8935.546875; 1.01585E-4
8941.406250; 1.08213E-4
8947.265625; 1.01575E-4
8953.125000; 1.02648E-4
8958.984375; 1.01896E-4
8964.843750; 1.05420E-4
8970.703125; 1.13197E-4
8976.562500; 1.07035E-4
8982.421875; 1.11168E-4
8988.281250; 9.65346E-5
8994.140625; 1.13706E-4
9000.000000; 1.19580E-4
9005.859375; 1.09701E-4
9011.718750; 1.12172E-4
9017.578125; 1.03639E-4
9023.437500; 8.76569E-5
9029.296875; 9.69316E-5
9035.156250; 1.03948E-4
9041.015625; 1.07683E-4
9046.875000; 1.13002E-4
9052.734375; 9.84050E-5
9058.593750; 8.96370E-5
9064.453125; 1.09567E-4
9070.312500; 1.06002E-4
9076.171875; 9.55619E-5
9082.031250; 9.92710E-5
9087.890625; 1.08043E-4
9093.750000; 1.08711E-4
9099.609375; 1.08104E-4
9105.468750; 1.11806E-4
9111.328125; 1.04315E-4
9117.187500; 1.00842E-4
9123.046875; 1.05472E-4
9128.906250; 1.02145E-4
9134.765625; 9.01957E-5
9140.625000; 9.80812E-5
9146.484375; 1.17193E-4
9152.343750; 1.22970E-4
9158.203125; 1.12711E-4
9164.062500; 9.14404E-5
9169.921875; 9.70966E-5
9175.781250; 1.02338E-4
9181.640625; 1.05712E-4
9187.500000; 1.08954E-4
9193.359375; 1.15785E-4
9199.218750; 9.95815E-5
9205.078125; 9.69138E-5
9210.937500; 1.04294E-4
9216.796875; 1.07222E-4
9222.656250; 1.10907E-4
9228.515625; 1.06625E-4
9234.375000; 1.06709E-4
9240.234375; 1.10081E-4
9246.093750; 1.00789E-4
9251.953125; 1.04114E-4
9257.812500; 1.08059E-4
9263.671875; 9.68189E-5
9269.531250; 9.89095E-5
9275.390625; 1.02074E-4
9281.250000; 1.14189E-4
9287.109375; 1.20937E-4
9292.968750; 1.11590E-4
9298.828125; 1.08079E-4
9304.687500; 1.08143E-4
9310.546875; 1.21293E-4
9316.406250; 1.15777E-4
9322.265625; 1.12260E-4
9328.125000; 9.89444E-5
9333.984375; 9.28804E-5
9339.843750; 1.01386E-4
9345.703125; 9.36942E-5
9351.562500; 1.08442E-4
9357.421875; 1.05759E-4
9363.281250; 1.00645E-4
9369.140625; 1.06169E-4
9375.000000; 1.05217E-4
9380.859375; 1.05730E-4
9386.718750; 1.10941E-4
9392.578125; 1.09229E-4
9398.437500; 1.11404E-4
9404.296875; 1.08520E-4
9410.156250; 9.24821E-5
9416.015625; 9.72019E-5
9421.875000; 1.04662E-4
9427.734375; 1.09948E-4
9433.593750; 1.11095E-4
9439.453125; 1.12307E-4
9445.312500; 1.05539E-4
9451.171875; 1.13240E-4
9457.031250; 1.08024E-4
9462.890625; 9.66201E-5
9468.750000; 9.11633E-5
9474.609375; 1.01502E-4
9480.468750; 1.18200E-4
9486.328125; 1.15143E-4
9492.187500; 9.72523E-5
9498.046875; 9.91456E-5
9503.906250; 1.06772E-4
9509.765625; 1.06074E-4
9515.625000; 9.82064E-5
9521.484375; 9.12622E-5
9527.343750; 1.05087E-4
9533.203125; 1.09992E-4
9539.062500; 1.14300E-4
9544.921875; 1.28341E-4
9550.781250; 1.17141E-4
9556.640625; 1.12290E-4
9562.500000; 9.37270E-5
9568.359375; 8.99503E-5
9574.218750; 9.96407E-5
9580.078125; 1.09300E-4
9585.937500; 1.13768E-4
9591.796875; 1.06197E-4
9597.656250; 1.10647E-4
9603.515625; 1.19591E-4
9609.375000; 1.14955E-4
9615.234375; 1.04673E-4
9621.093750; 9.04559E-5
9626.953125; 1.01394E-4
9632.812500; 1.13942E-4
9638.671875; 1.06652E-4
9644.531250; 1.03469E-4
9650.390625; 1.05541E-4
9656.250000; 1.02992E-4
9662.109375; 1.01680E-4
9667.968750; 9.81318E-5
9673.828125; 1.05522E-4
9679.687500; 1.06831E-4
9685.546875; 9.53831E-5
9691.406250; 9.77078E-5
9697.265625; 9.70025E-5
9703.125000; 8.81060E-5
9708.984375; 9.85165E-5
9714.843750; 1.01760E-4
9720.703125; 1.02498E-4
9726.562500; 1.03279E-4
9732.421875; 1.06676E-4
9738.281250; 1.03221E-4
9744.140625; 1.14937E-4
9750.000000; 1.02617E-4
9755.859375; 1.03092E-4
9761.718750; 1.09369E-4
9767.578125; 1.01243E-4
9773.437500; 1.11360E-4
9779.296875; 1.17256E-4
9785.156250; 1.13618E-4
9791.015625; 1.04368E-4
9796.875000; 1.09679E-4
9802.734375; 1.08654E-4
9808.593750; 1.12485E-4
9814.453125; 1.13085E-4
9820.312500; 1.17799E-4
9826.171875; 1.18639E-4
9832.031250; 1.17603E-4
9837.890625; 1.08937E-4
9843.750000; 1.12655E-4
9849.609375; 1.03333E-4
9855.468750; 1.01985E-4
9861.328125; 9.93401E-5
9867.187500; 9.74555E-5
9873.046875; 1.02335E-4
9878.906250; 9.35369E-5
9884.765625; 1.06330E-4
9890.625000; 1.01747E-4
9896.484375; 1.06332E-4
9902.343750; 1.09123E-4
9908.203125; 9.99638E-5
9914.062500; 1.13398E-4
9919.921875; 1.07192E-4
9925.781250; 1.02905E-4
9931.640625; 1.00231E-4
9937.500000; 1.00488E-4
9943.359375; 9.81339E-5
9949.218750; 1.13490E-4
9955.078125; 1.12627E-4
9960.937500; 1.06331E-4
9966.796875; 9.47053E-5
9972.656250; 9.63346E-5
9978.515625; 9.84412E-5
9984.375000; 1.13604E-4
9990.234375; 1.15803E-4
9996.093750; 1.08620E-4
10001.953125; 1.17516E-4
10007.812500; 1.11139E-4
10013.671875; 1.04145E-4
10019.531250; 1.03783E-4
10025.390625; 1.03649E-4
10031.250000; 9.61523E-5
10037.109375; 8.71574E-5
10042.968750; 9.73489E-5
10048.828125; 9.88962E-5
10054.687500; 9.42252E-5
10060.546875; 9.99737E-5
10066.406250; 1.07189E-4
10072.265625; 1.13991E-4
10078.125000; 1.02716E-4
10083.984375; 1.02697E-4
10089.843750; 9.93854E-5
10095.703125; 1.11432E-4
10101.562500; 1.11456E-4
10107.421875; 1.06966E-4
10113.281250; 1.03456E-4
10119.140625; 1.07444E-4
10125.000000; 9.94796E-5
10130.859375; 9.76290E-5
10136.718750; 1.03963E-4
10142.578125; 1.05729E-4
10148.437500; 1.19131E-4
10154.296875; 1.12075E-4
10160.156250; 1.14498E-4
10166.015625; 1.12701E-4
10171.875000; 1.05053E-4
10177.734375; 1.01839E-4
10183.593750; 9.32744E-5
10189.453125; 1.00816E-4
10195.312500; 1.04409E-4
10201.171875; 1.04386E-4
10207.031250; 1.10174E-4
10212.890625; 1.12670E-4
10218.750000; 1.08217E-4
10224.609375; 1.09444E-4
10230.468750; 1.06463E-4
10236.328125; 1.01434E-4
10242.187500; 1.14945E-4
10248.046875; 1.13740E-4
10253.906250; 1.03403E-4
10259.765625; 1.09840E-4
10265.625000; 1.16594E-4
10271.484375; 1.04678E-4
10277.343750; 8.61466E-5
10283.203125; 1.06018E-4
10289.062500; 1.19002E-4
10294.921875; 1.05891E-4
10300.781250; 1.10779E-4
10306.640625; 1.04579E-4
10312.500000; 1.05282E-4
10318.359375; 1.13619E-4
10324.218750; 1.10626E-4
10330.078125; 1.12029E-4
10335.937500; 1.13806E-4
10341.796875; 1.10401E-4
10347.656250; 1.15513E-4
10353.515625; 1.14142E-4
10359.375000; 1.22363E-4
10365.234375; 1.12244E-4
10371.093750; 1.10381E-4
10376.953125; 1.00465E-4
10382.812500; 1.08182E-4
10388.671875; 1.09445E-4
10394.531250; 9.47718E-5
10400.390625; 9.13854E-5
10406.250000; 1.01703E-4
10412.109375; 1.08296E-4
10417.968750; 1.15682E-4
10423.828125; 1.06211E-4
10429.687500; 1.02654E-4
10435.546875; 1.10884E-4
10441.406250; 1.07995E-4
10447.265625; 1.08708E-4
10453.125000; 1.02959E-4
10458.984375; 1.10465E-4
10464.843750; 1.22158E-4
10470.703125; 1.14962E-4
10476.562500; 1.10243E-4
10482.421875; 1.16540E-4
10488.281250; 1.17880E-4
10494.140625; 1.08455E-4
10500.000000; 1.03381E-4
10505.859375; 1.02097E-4
10511.718750; 1.06238E-4
10517.578125; 1.15252E-4
10523.437500; 1.05063E-4
10529.296875; 1.02575E-4
10535.156250; 1.07631E-4
10541.015625; 1.14757E-4
10546.875000; 1.12098E-4
10552.734375; 1.19410E-4
10558.593750; 1.13705E-4
10564.453125; 1.05055E-4
10570.312500; 1.05627E-4
10576.171875; 1.07847E-4
10582.031250; 1.20561E-4
10587.890625; 1.16207E-4
10593.750000; 1.05886E-4
10599.609375; 1.02468E-4
10605.468750; 1.09764E-4
10611.328125; 1.12884E-4
10617.187500; 1.19845E-4
10623.046875; 1.12079E-4
10628.906250; 1.04803E-4
10634.765625; 1.03286E-4
10640.625000; 9.50944E-5
10646.484375; 9.38022E-5
10652.343750; 1.00180E-4
10658.203125; 1.08332E-4
10664.062500; 1.09681E-4
10669.921875; 1.16223E-4
10675.781250; 1.10930E-4
10681.640625; 1.01628E-4
10687.500000; 1.02864E-4
10693.359375; 9.93436E-5
10699.218750; 1.04706E-4
10705.078125; 1.04557E-4
10710.937500; 9.33118E-5
10716.796875; 1.08029E-4
10722.656250; 1.16164E-4
10728.515625; 1.01325E-4
10734.375000; 1.01400E-4
10740.234375; 1.13411E-4
10746.093750; 9.89399E-5
10751.953125; 9.93553E-5
10757.812500; 1.02898E-4
10763.671875; 1.11188E-4
10769.531250; 1.07264E-4
10775.390625; 1.06365E-4
10781.250000; 1.12465E-4
10787.109375; 1.08542E-4
10792.968750; 1.14008E-4
10798.828125; 1.07625E-4
10804.687500; 1.02991E-4
10810.546875; 1.14068E-4
10816.406250; 1.19227E-4
10822.265625; 1.16990E-4
10828.125000; 1.06166E-4
10833.984375; 1.06138E-4
10839.843750; 9.65594E-5
10845.703125; 1.16725E-4
10851.562500; 1.11923E-4
10857.421875; 1.01678E-4
10863.281250; 1.06277E-4
10869.140625; 1.07804E-4
10875.000000; 1.12130E-4
10880.859375; 1.15570E-4
10886.718750; 1.16680E-4
10892.578125; 1.17697E-4
10898.437500; 1.21415E-4
10904.296875; 1.05005E-4
10910.156250; 1.06824E-4
10916.015625; 1.08210E-4
10921.875000; 1.08037E-4
10927.734375; 1.06578E-4
10933.593750; 1.09275E-4
10939.453125; 9.72413E-5
10945.312500; 9.97747E-5
10951.171875; 1.08130E-4
10957.031250; 1.08316E-4
10962.890625; 1.02978E-4
10968.750000; 1.11309E-4
10974.609375; 1.15212E-4
10980.468750; 1.01609E-4
10986.328125; 8.63160E-5
10992.187500; 1.00636E-4
10998.046875; 1.07216E-4
11003.906250; 1.03764E-4
11009.765625; 9.78504E-5
11015.625000; 1.06637E-4
11021.484375; 1.03894E-4
11027.343750; 1.06357E-4
11033.203125; 1.10766E-4
11039.062500; 1.09936E-4
11044.921875; 9.90689E-5
11050.781250; 1.11526E-4
11056.640625; 1.03357E-4
11062.500000; 1.07796E-4
11068.359375; 1.11522E-4
11074.218750; 1.03741E-4
11080.078125; 1.09437E-4
11085.937500; 1.09705E-4
11091.796875; 1.11815E-4
11097.656250; 1.10471E-4
11103.515625; 1.09212E-4
11109.375000; 1.00754E-4
11115.234375; 1.02134E-4
11121.093750; 9.77524E-5
11126.953125; 1.05420E-4
11132.812500; 1.16698E-4
11138.671875; 1.15182E-4
11144.531250; 1.02980E-4
11150.390625; 1.02549E-4
11156.250000; 1.03993E-4
11162.109375; 9.70855E-5
11167.968750; 1.09086E-4
11173.828125; 1.12516E-4
11179.687500; 1.06062E-4
11185.546875; 9.57390E-5
11191.406250; 1.09063E-4
11197.265625; 1.15076E-4
11203.125000; 1.03376E-4
11208.984375; 9.77366E-5
11214.843750; 1.04336E-4
11220.703125; 1.03327E-4
11226.562500; 1.08360E-4
11232.421875; 1.14895E-4
11238.281250; 1.13464E-4
11244.140625; 1.07672E-4
11250.000000; 9.70344E-5
11255.859375; 9.72051E-5
11261.718750; 1.12278E-4
11267.578125; 1.18570E-4
11273.437500; 1.18725E-4
11279.296875; 1.05297E-4
11285.156250; 9.76856E-5
11291.015625; 1.12076E-4
11296.875000; 1.14774E-4
11302.734375; 1.06742E-4
11308.593750; 1.02604E-4
11314.453125; 9.57554E-5
11320.312500; 1.00676E-4
11326.171875; 1.00643E-4
11332.031250; 1.03091E-4
11337.890625; 1.14863E-4
11343.750000; 1.15957E-4
11349.609375; 1.08295E-4
11355.468750; 1.00673E-4
11361.328125; 1.01608E-4
11367.187500; 1.01308E-4
11373.046875; 9.20061E-5
11378.906250; 9.71844E-5
11384.765625; 1.09328E-4
11390.625000; 1.13664E-4
11396.484375; 1.06281E-4
11402.343750; 1.10112E-4
11408.203125; 1.15042E-4
11414.062500; 1.12174E-4
11419.921875; 1.04587E-4
11425.781250; 8.52217E-5
11431.640625; 1.00710E-4
11437.500000; 1.08811E-4
11443.359375; 9.49797E-5
11449.218750; 9.82092E-5
11455.078125; 1.14888E-4
11460.937500; 1.18729E-4
11466.796875; 1.26625E-4
11472.656250; 1.16784E-4
11478.515625; 1.07318E-4
11484.375000; 1.13800E-4
11490.234375; 1.21923E-4
11496.093750; 1.03828E-4
11501.953125; 1.05567E-4
11507.812500; 1.03920E-4
11513.671875; 1.09302E-4
11519.531250; 1.09525E-4
11525.390625; 1.03228E-4
11531.250000; 9.81095E-5
11537.109375; 9.65952E-5
11542.968750; 1.04419E-4
11548.828125; 1.08782E-4
11554.687500; 1.04822E-4
11560.546875; 1.06955E-4
11566.406250; 9.83598E-5
11572.265625; 1.05757E-4
11578.125000; 1.05633E-4
11583.984375; 1.03725E-4
11589.843750; 1.10141E-4
11595.703125; 1.02464E-4
11601.562500; 1.13945E-4
11607.421875; 1.16544E-4
11613.281250; 1.07674E-4
11619.140625; 1.12994E-4
11625.000000; 1.09427E-4
11630.859375; 9.39732E-5
11636.718750; 9.86657E-5
11642.578125; 1.04876E-4
11648.437500; 1.17645E-4
11654.296875; 1.14575E-4
11660.156250; 9.75961E-5
11666.015625; 9.19401E-5
11671.875000; 1.10678E-4
11677.734375; 1.14016E-4
11683.593750; 1.12129E-4
11689.453125; 1.09050E-4
11695.312500; 1.08354E-4
11701.171875; 1.21517E-4
11707.031250; 1.26462E-4
11712.890625; 1.23006E-4
11718.750000; 1.08048E-4
11724.609375; 9.69286E-5
11730.468750; 1.04070E-4
11736.328125; 1.08423E-4
11742.187500; 9.32185E-5
11748.046875; 1.00648E-4
11753.906250; 1.03160E-4
11759.765625; 1.03345E-4
11765.625000; 1.05019E-4
11771.484375; 9.74286E-5
11777.343750; 1.10026E-4
11783.203125; 1.10421E-4
11789.062500; 1.10410E-4
11794.921875; 1.10148E-4
11800.781250; 9.69505E-5
11806.640625; 9.23699E-5
11812.500000; 1.07923E-4
11818.359375; 1.11905E-4
11824.218750; 9.58881E-5
11830.078125; 1.02992E-4
11835.937500; 1.05056E-4
11841.796875; 1.06923E-4
11847.656250; 1.05063E-4
11853.515625; 1.05303E-4
11859.375000; 1.13230E-4
11865.234375; 1.09013E-4
11871.093750; 1.07149E-4
11876.953125; 1.04986E-4
11882.812500; 1.06273E-4
11888.671875; 1.08767E-4
11894.531250; 1.05296E-4
11900.390625; 1.20883E-4
11906.250000; 1.13220E-4
11912.109375; 1.11364E-4
11917.968750; 1.04449E-4
11923.828125; 1.11758E-4
11929.687500; 1.03106E-4
11935.546875; 9.49447E-5
11941.406250; 1.01710E-4
11947.265625; 1.07313E-4
11953.125000; 1.03563E-4
11958.984375; 1.04726E-4
11964.843750; 1.05005E-4
11970.703125; 1.02827E-4
11976.562500; 9.99439E-5
11982.421875; 9.64450E-5
11988.281250; 1.08049E-4
11994.140625; 9.24379E-5
12000.000000; 1.03221E-4
12005.859375; 1.08844E-4
12011.718750; 1.06144E-4
12017.578125; 1.09099E-4
12023.437500; 1.15379E-4
12029.296875; 1.04360E-4
12035.156250; 1.05655E-4
12041.015625; 1.25464E-4
12046.875000; 1.13002E-4
12052.734375; 9.95077E-5
12058.593750; 1.14175E-4
12064.453125; 1.14462E-4
12070.312500; 1.01171E-4
12076.171875; 1.01605E-4
12082.031250; 9.87320E-5
12087.890625; 1.06665E-4
12093.750000; 1.07387E-4
12099.609375; 9.55881E-5
12105.468750; 9.94113E-5
12111.328125; 9.31774E-5
12117.187500; 1.00063E-4
12123.046875; 1.10465E-4
12128.906250; 1.02455E-4
12134.765625; 1.01801E-4
12140.625000; 1.01399E-4
12146.484375; 1.16115E-4
12152.343750; 1.09015E-4
12158.203125; 9.97233E-5
12164.062500; 9.52238E-5
12169.921875; 1.10761E-4
12175.781250; 1.14546E-4
12181.640625; 1.01970E-4
12187.500000; 8.82276E-5
12193.359375; 9.51032E-5
12199.218750; 1.08513E-4
12205.078125; 1.04900E-4
12210.937500; 1.04189E-4
12216.796875; 9.46263E-5
12222.656250; 9.86077E-5
12228.515625; 1.01898E-4
12234.375000; 1.04489E-4
12240.234375; 1.09599E-4
12246.093750; 1.01398E-4
12251.953125; 1.06572E-4
12257.812500; 1.15579E-4
12263.671875; 1.19805E-4
12269.531250; 1.14742E-4
12275.390625; 1.06618E-4
12281.250000; 1.00274E-4
12287.109375; 9.82454E-5
12292.968750; 9.44073E-5
12298.828125; 1.01182E-4
12304.687500; 1.08007E-4
12310.546875; 1.03664E-4
12316.406250; 1.11960E-4
12322.265625; 1.24453E-4
12328.125000; 1.16832E-4
12333.984375; 1.03083E-4
12339.843750; 1.01654E-4
12345.703125; 1.02114E-4
12351.562500; 9.29765E-5
12357.421875; 1.00678E-4
12363.281250; 1.01428E-4
12369.140625; 1.04550E-4
12375.000000; 1.13380E-4
12380.859375; 1.05520E-4
12386.718750; 1.12575E-4
12392.578125; 1.13351E-4
12398.437500; 1.09938E-4
12404.296875; 1.13178E-4
12410.156250; 1.11028E-4
12416.015625; 1.14306E-4
12421.875000; 1.08698E-4
12427.734375; 1.06393E-4
12433.593750; 1.01049E-4
12439.453125; 9.92816E-5
12445.312500; 9.40112E-5
12451.171875; 9.22470E-5
12457.031250; 1.04997E-4
12462.890625; 1.04761E-4
12468.750000; 1.08873E-4
12474.609375; 9.96160E-5
12480.468750; 1.02582E-4
12486.328125; 9.87950E-5
12492.187500; 9.83510E-5
12498.046875; 1.00993E-4
12503.906250; 1.02596E-4
12509.765625; 1.11125E-4
12515.625000; 1.11553E-4
12521.484375; 1.21474E-4
12527.343750; 1.11312E-4
12533.203125; 9.66336E-5
12539.062500; 9.82402E-5
12544.921875; 1.11722E-4
12550.781250; 1.20889E-4
12556.640625; 1.06747E-4
12562.500000; 1.07459E-4
12568.359375; 1.04409E-4
12574.218750; 1.01801E-4
12580.078125; 9.65481E-5
12585.937500; 1.02247E-4
12591.796875; 1.03593E-4
12597.656250; 1.04239E-4
12603.515625; 9.99444E-5
12609.375000; 1.08705E-4
12615.234375; 1.08146E-4
12621.093750; 1.04784E-4
12626.953125; 1.15131E-4
12632.812500; 1.13900E-4
12638.671875; 1.05205E-4
12644.531250; 1.03650E-4
12650.390625; 1.01290E-4
12656.250000; 1.03687E-4
12662.109375; 8.73034E-5
12667.968750; 9.69040E-5
12673.828125; 9.73985E-5
12679.687500; 9.65638E-5
12685.546875; 1.13742E-4
12691.406250; 1.23344E-4
12697.265625; 1.17830E-4
12703.125000; 9.96958E-5
12708.984375; 1.04522E-4
12714.843750; 1.12594E-4
12720.703125; 1.08292E-4
12726.562500; 1.03007E-4
12732.421875; 9.95387E-5
12738.281250; 1.02189E-4
12744.140625; 1.18004E-4
12750.000000; 1.08277E-4
12755.859375; 1.05024E-4
12761.718750; 1.03892E-4
12767.578125; 1.02499E-4
12773.437500; 1.02275E-4
12779.296875; 1.10012E-4
12785.156250; 1.01208E-4
12791.015625; 9.93644E-5
12796.875000; 1.11606E-4
12802.734375; 1.14487E-4
12808.593750; 1.17521E-4
12814.453125; 1.09178E-4
12820.312500; 1.09036E-4
12826.171875; 9.46421E-5
12832.031250; 9.82570E-5
12837.890625; 1.01419E-4
12843.750000; 1.14123E-4
12849.609375; 1.17956E-4
12855.468750; 1.13329E-4
12861.328125; 1.07952E-4
12867.187500; 9.84747E-5
12873.046875; 1.10989E-4
12878.906250; 1.03696E-4
12884.765625; 1.07144E-4
12890.625000; 1.08359E-4
12896.484375; 1.00669E-4
12902.343750; 1.07298E-4
12908.203125; 1.12043E-4
12914.062500; 1.01373E-4
12919.921875; 9.18056E-5
12925.781250; 9.36216E-5
12931.640625; 1.00727E-4
12937.500000; 1.13996E-4
12943.359375; 1.11138E-4
12949.218750; 9.44104E-5
12955.078125; 1.02387E-4
12960.937500; 1.05603E-4
12966.796875; 1.02361E-4
12972.656250; 1.02382E-4
12978.515625; 1.01432E-4
12984.375000; 1.20048E-4
12990.234375; 1.10617E-4
12996.093750; 9.98829E-5
13001.953125; 1.28254E-4
13007.812500; 1.25287E-4
13013.671875; 1.10830E-4
13019.531250; 1.08966E-4
13025.390625; 1.03057E-4
13031.250000; 1.03474E-4
13037.109375; 1.05339E-4
13042.968750; 1.00376E-4
13048.828125; 9.86085E-5
13054.687500; 1.01484E-4
13060.546875; 9.37686E-5
13066.406250; 1.09609E-4
13072.265625; 1.03399E-4
13078.125000; 1.04722E-4
13083.984375; 1.16163E-4
13089.843750; 1.06843E-4
13095.703125; 1.08154E-4
13101.562500; 1.04905E-4
13107.421875; 8.87720E-5
13113.281250; 1.00150E-4
13119.140625; 9.78552E-5
13125.000000; 1.05011E-4
13130.859375; 1.04127E-4
13136.718750; 9.93691E-5
13142.578125; 1.15614E-4
13148.437500; 1.09311E-4
13154.296875; 1.05467E-4
13160.156250; 1.15809E-4
13166.015625; 1.20118E-4
13171.875000; 1.19751E-4
13177.734375; 1.09606E-4
13183.593750; 1.14695E-4
13189.453125; 1.12182E-4
13195.312500; 1.04404E-4
13201.171875; 1.14223E-4
13207.031250; 1.11379E-4
13212.890625; 1.06298E-4
13218.750000; 1.01823E-4
13224.609375; 1.03867E-4
13230.468750; 9.98275E-5
13236.328125; 1.05396E-4
13242.187500; 9.73307E-5
13248.046875; 8.70407E-5
13253.906250; 9.50095E-5
13259.765625; 9.52706E-5
13265.625000; 1.10284E-4
13271.484375; 1.24637E-4
13277.343750; 1.19013E-4
13283.203125; 1.06628E-4
13289.062500; 1.01140E-4
13294.921875; 9.21123E-5
13300.781250; 1.05241E-4
13306.640625; 1.11293E-4
13312.500000; 1.10317E-4
13318.359375; 1.07402E-4
13324.218750; 1.07096E-4
13330.078125; 1.00383E-4
13335.937500; 1.12661E-4
13341.796875; 1.12559E-4
13347.656250; 9.97825E-5
13353.515625; 1.17347E-4
13359.375000; 1.20499E-4
13365.234375; 1.08053E-4
13371.093750; 9.44478E-5
13376.953125; 1.02761E-4
13382.812500; 1.11180E-4
13388.671875; 9.94959E-5
13394.531250; 9.90925E-5
13400.390625; 9.73282E-5
13406.250000; 9.94831E-5
13412.109375; 8.97701E-5
13417.968750; 9.75720E-5
13423.828125; 1.11025E-4
13429.687500; 1.10465E-4
13435.546875; 1.05902E-4
13441.406250; 1.13233E-4
13447.265625; 1.06251E-4
13453.125000; 1.01764E-4
13458.984375; 1.14699E-4
13464.843750; 1.11696E-4
13470.703125; 1.11686E-4
13476.562500; 1.05304E-4
13482.421875; 9.53702E-5
13488.281250; 9.89986E-5
13494.140625; 1.05681E-4
13500.000000; 1.09705E-4
13505.859375; 1.09220E-4
13511.718750; 1.06404E-4
13517.578125; 1.00764E-4
13523.437500; 1.11607E-4
13529.296875; 1.12531E-4
13535.156250; 1.14260E-4
13541.015625; 1.07363E-4
13546.875000; 1.04947E-4
13552.734375; 9.92208E-5
13558.593750; 1.01170E-4
13564.453125; 1.11951E-4
13570.312500; 1.08162E-4
13576.171875; 9.53161E-5
13582.031250; 9.40343E-5
13587.890625; 1.01903E-4
13593.750000; 1.14322E-4
13599.609375; 1.07512E-4
13605.468750; 1.04881E-4
13611.328125; 9.18121E-5
13617.187500; 1.04619E-4
13623.046875; 1.13226E-4
13628.906250; 1.17189E-4
13634.765625; 1.03028E-4
13640.625000; 1.02352E-4
13646.484375; 9.47847E-5
13652.343750; 1.03783E-4
13658.203125; 1.07811E-4
13664.062500; 1.05914E-4
13669.921875; 1.18656E-4
13675.781250; 1.08098E-4
13681.640625; 9.51269E-5
13687.500000; 1.03132E-4
13693.359375; 1.04749E-4
13699.218750; 1.09128E-4
13705.078125; 1.09186E-4
13710.937500; 9.84087E-5
13716.796875; 1.05249E-4
13722.656250; 1.08736E-4
13728.515625; 9.96988E-5
13734.375000; 9.83864E-5
13740.234375; 9.78452E-5
13746.093750; 1.12405E-4
13751.953125; 1.01674E-4
13757.812500; 9.94763E-5
13763.671875; 1.03489E-4
13769.531250; 1.06546E-4
13775.390625; 1.08027E-4
13781.250000; 1.14610E-4
13787.109375; 1.12843E-4
13792.968750; 1.02119E-4
13798.828125; 1.07877E-4
13804.687500; 9.91894E-5
13810.546875; 9.81905E-5
13816.406250; 9.83669E-5
13822.265625; 1.01394E-4
13828.125000; 1.12331E-4
13833.984375; 1.11472E-4
13839.843750; 1.15771E-4
13845.703125; 1.11342E-4
13851.562500; 1.08753E-4
13857.421875; 1.02245E-4
13863.281250; 1.06346E-4
13869.140625; 1.14083E-4
13875.000000; 1.07642E-4
13880.859375; 9.80857E-5
13886.718750; 1.01713E-4
13892.578125; 1.14675E-4
13898.437500; 9.42007E-5
13904.296875; 9.67948E-5
13910.156250; 1.20941E-4
13916.015625; 1.10541E-4
13921.875000; 1.10223E-4
13927.734375; 1.04182E-4
13933.593750; 1.09436E-4
13939.453125; 1.23833E-4
13945.312500; 1.18809E-4
13951.171875; 1.07704E-4
13957.031250; 1.00141E-4
13962.890625; 9.91695E-5
13968.750000; 9.99554E-5
13974.609375; 1.07506E-4
13980.468750; 1.04385E-4
13986.328125; 1.10615E-4
13992.187500; 1.07383E-4
13998.046875; 1.08587E-4
14003.906250; 9.93880E-5
14009.765625; 1.01630E-4
14015.625000; 1.05722E-4
14021.484375; 1.10180E-4
14027.343750; 1.15368E-4
14033.203125; 1.04490E-4
14039.062500; 1.05998E-4
14044.921875; 1.13450E-4
14050.781250; 1.14147E-4
14056.640625; 9.71840E-5
14062.500000; 9.68853E-5
14068.359375; 1.02965E-4
14074.218750; 1.13368E-4
14080.078125; 1.08728E-4
14085.937500; 1.07931E-4
14091.796875; 1.02014E-4
14097.656250; 1.03471E-4
14103.515625; 9.29013E-5
14109.375000; 8.85896E-5
14115.234375; 9.84517E-5
14121.093750; 1.15608E-4
14126.953125; 1.02374E-4
14132.812500; 1.06016E-4
14138.671875; 9.99194E-5
14144.531250; 1.02918E-4
14150.390625; 1.11668E-4
14156.250000; 1.03741E-4
14162.109375; 1.00936E-4
14167.968750; 9.46383E-5
14173.828125; 9.34499E-5
14179.687500; 9.98233E-5
14185.546875; 1.09772E-4
14191.406250; 1.14917E-4
14197.265625; 1.08979E-4
14203.125000; 9.50136E-5
14208.984375; 9.71059E-5
14214.843750; 1.03058E-4
14220.703125; 9.73536E-5
14226.562500; 1.01017E-4
14232.421875; 1.04795E-4
14238.281250; 1.12191E-4
14244.140625; 1.01809E-4
14250.000000; 9.97667E-5
14255.859375; 1.03016E-4
14261.718750; 1.07694E-4
14267.578125; 1.12049E-4
14273.437500; 1.10599E-4
14279.296875; 1.01256E-4
14285.156250; 1.04785E-4
14291.015625; 1.03914E-4
14296.875000; 1.13706E-4
14302.734375; 1.09601E-4
14308.593750; 1.10035E-4
14314.453125; 1.16044E-4
14320.312500; 1.07098E-4
14326.171875; 1.05061E-4
14332.031250; 9.52741E-5
14337.890625; 1.05081E-4
14343.750000; 1.06864E-4
14349.609375; 9.75766E-5
14355.468750; 9.66356E-5
14361.328125; 8.93576E-5
14367.187500; 1.00745E-4
14373.046875; 1.01469E-4
14378.906250; 1.03296E-4
14384.765625; 1.13451E-4
14390.625000; 1.06680E-4
14396.484375; 1.11758E-4
14402.343750; 1.07259E-4
14408.203125; 9.56671E-5
14414.062500; 9.85837E-5
14419.921875; 1.07259E-4
14425.781250; 1.10550E-4
14431.640625; 1.16101E-4
14437.500000; 1.08630E-4
14443.359375; 1.02197E-4
14449.218750; 1.05901E-4
14455.078125; 1.13360E-4
14460.937500; 1.05262E-4
14466.796875; 1.10898E-4
14472.656250; 1.18059E-4
14478.515625; 1.10558E-4
14484.375000; 1.00207E-4
14490.234375; 1.04383E-4
14496.093750; 1.10263E-4
14501.953125; 1.11913E-4
14507.812500; 1.00013E-4
14513.671875; 9.67985E-5
14519.531250; 9.91392E-5
14525.390625; 9.87854E-5
14531.250000; 1.11082E-4
14537.109375; 1.05886E-4
14542.968750; 1.03230E-4
14548.828125; 1.09938E-4
14554.687500; 1.00036E-4
14560.546875; 1.03750E-4
14566.406250; 9.42398E-5
14572.265625; 1.02400E-4
14578.125000; 1.11078E-4
14583.984375; 1.10467E-4
14589.843750; 1.09871E-4
14595.703125; 9.10120E-5
14601.562500; 8.73508E-5
14607.421875; 9.46120E-5
14613.281250; 9.14054E-5
14619.140625; 8.88299E-5
14625.000000; 9.57234E-5
14630.859375; 1.01827E-4
14636.718750; 1.07489E-4
14642.578125; 1.01812E-4
14648.437500; 9.70265E-5
14654.296875; 1.01257E-4
14660.156250; 9.71848E-5
14666.015625; 9.65930E-5
14671.875000; 1.12365E-4
14677.734375; 1.16417E-4
14683.593750; 1.02568E-4
14689.453125; 1.08553E-4
14695.312500; 9.94069E-5
14701.171875; 9.60583E-5
14707.031250; 1.15840E-4
14712.890625; 1.19892E-4
14718.750000; 1.12138E-4
14724.609375; 1.13215E-4
14730.468750; 1.08732E-4
14736.328125; 1.10121E-4
14742.187500; 1.02434E-4
14748.046875; 9.22277E-5
14753.906250; 9.63054E-5
14759.765625; 1.10168E-4
14765.625000; 1.12581E-4
14771.484375; 1.14783E-4
14777.343750; 1.00516E-4
14783.203125; 1.03927E-4
14789.062500; 9.40614E-5
14794.921875; 9.88309E-5
14800.781250; 1.06974E-4
14806.640625; 8.70159E-5
14812.500000; 1.00839E-4
14818.359375; 1.11353E-4
14824.218750; 1.09848E-4
14830.078125; 1.01974E-4
14835.937500; 1.04601E-4
14841.796875; 1.04899E-4
14847.656250; 9.50100E-5
14853.515625; 1.10127E-4
14859.375000; 1.16079E-4
14865.234375; 1.06954E-4
14871.093750; 1.03705E-4
14876.953125; 1.26194E-4
14882.812500; 1.17096E-4
14888.671875; 1.03469E-4
14894.531250; 9.79844E-5
14900.390625; 9.83391E-5
14906.250000; 9.19296E-5
14912.109375; 9.47181E-5
14917.968750; 8.89451E-5
14923.828125; 1.01466E-4
14929.687500; 1.08155E-4
14935.546875; 1.03019E-4
14941.406250; 1.03354E-4
14947.265625; 1.04013E-4
14953.125000; 9.76929E-5
14958.984375; 9.86524E-5
14964.843750; 1.07932E-4
14970.703125; 1.10341E-4
14976.562500; 1.17050E-4
14982.421875; 9.58084E-5
14988.281250; 1.01927E-4
14994.140625; 1.05910E-4
15000.000000; 1.04881E-4
15005.859375; 1.14749E-4
15011.718750; 1.05437E-4
15017.578125; 9.48694E-5
15023.437500; 1.06512E-4
15029.296875; 1.08052E-4
15035.156250; 1.02078E-4
15041.015625; 1.03335E-4
15046.875000; 1.14388E-4
15052.734375; 1.13783E-4
15058.593750; 1.03917E-4
15064.453125; 1.06030E-4
15070.312500; 1.08504E-4
15076.171875; 1.21727E-4
15082.031250; 1.25000E-4
15087.890625; 1.09350E-4
15093.750000; 9.71094E-5
15099.609375; 1.07084E-4
15105.468750; 1.21035E-4
15111.328125; 1.17941E-4
15117.187500; 1.15264E-4
15123.046875; 1.07535E-4
15128.906250; 1.03358E-4
15134.765625; 1.11949E-4
15140.625000; 1.21939E-4
15146.484375; 9.79024E-5
15152.343750; 1.04394E-4
15158.203125; 1.04956E-4
15164.062500; 1.06565E-4
15169.921875; 1.09044E-4
15175.781250; 1.15643E-4
15181.640625; 1.13789E-4
15187.500000; 9.80038E-5
15193.359375; 1.00480E-4
15199.218750; 1.07269E-4
15205.078125; 1.21428E-4
15210.937500; 1.15637E-4
15216.796875; 1.14491E-4
15222.656250; 1.03627E-4
15228.515625; 9.71903E-5
15234.375000; 1.07735E-4
15240.234375; 9.78593E-5
15246.093750; 9.42070E-5
15251.953125; 9.51853E-5
15257.812500; 9.91400E-5
15263.671875; 9.40120E-5
15269.531250; 9.78383E-5
15275.390625; 1.00989E-4
15281.250000; 1.15289E-4
15287.109375; 1.14684E-4
15292.968750; 1.07052E-4
15298.828125; 1.09359E-4
15304.687500; 1.16623E-4
15310.546875; 1.14157E-4
15316.406250; 1.12692E-4
15322.265625; 1.01730E-4
15328.125000; 1.03571E-4
15333.984375; 1.02166E-4
15339.843750; 8.83511E-5
15345.703125; 9.47385E-5
15351.562500; 9.56257E-5
15357.421875; 1.04757E-4
15363.281250; 9.41244E-5
15369.140625; 9.17944E-5
15375.000000; 1.01095E-4
15380.859375; 1.12579E-4
15386.718750; 1.06333E-4
15392.578125; 1.06839E-4
15398.437500; 1.15281E-4
15404.296875; 9.99890E-5
15410.156250; 1.03721E-4
15416.015625; 1.10592E-4
15421.875000; 1.13217E-4
15427.734375; 1.10523E-4
15433.593750; 1.05251E-4
15439.453125; 1.07831E-4
15445.312500; 1.10893E-4
15451.171875; 1.05384E-4
15457.031250; 1.03579E-4
15462.890625; 1.03200E-4
15468.750000; 1.07052E-4
15474.609375; 1.19330E-4
15480.468750; 1.15568E-4
15486.328125; 1.03235E-4
15492.187500; 1.01510E-4
15498.046875; 9.91268E-5
15503.906250; 1.04454E-4
15509.765625; 1.09130E-4
15515.625000; 1.07262E-4
15521.484375; 9.44847E-5
15527.343750; 1.02821E-4
15533.203125; 1.04323E-4
15539.062500; 1.06835E-4
15544.921875; 1.00474E-4
15550.781250; 9.14317E-5
15556.640625; 9.40536E-5
15562.500000; 1.07036E-4
15568.359375; 1.08001E-4
15574.218750; 1.12269E-4
15580.078125; 9.98829E-5
15585.937500; 9.66082E-5
15591.796875; 9.80644E-5
15597.656250; 9.57042E-5
15603.515625; 9.56417E-5
15609.375000; 1.07564E-4
15615.234375; 1.02301E-4
15621.093750; 1.01668E-4
15626.953125; 9.91140E-5
15632.812500; 1.09543E-4
15638.671875; 1.15676E-4
15644.531250; 1.10527E-4
15650.390625; 1.06866E-4
15656.250000; 1.11130E-4
15662.109375; 1.04059E-4
15667.968750; 1.05665E-4
15673.828125; 1.11538E-4
15679.687500; 1.14012E-4
15685.546875; 1.15329E-4
15691.406250; 1.23532E-4
15697.265625; 1.15522E-4
15703.125000; 9.75937E-5
15708.984375; 9.88986E-5
15714.843750; 1.11465E-4
15720.703125; 1.11249E-4
15726.562500; 1.03926E-4
15732.421875; 1.00323E-4
15738.281250; 1.03022E-4
15744.140625; 1.06143E-4
15750.000000; 1.11487E-4
15755.859375; 1.04446E-4
15761.718750; 1.00384E-4
15767.578125; 1.07822E-4
15773.437500; 9.26755E-5
15779.296875; 1.00427E-4
15785.156250; 9.83649E-5
15791.015625; 9.99966E-5
15796.875000; 9.95943E-5
15802.734375; 1.05451E-4
15808.593750; 1.07205E-4
15814.453125; 1.12452E-4
15820.312500; 1.07231E-4
15826.171875; 9.94953E-5
15832.031250; 1.08086E-4
15837.890625; 1.21312E-4
15843.750000; 1.08165E-4
15849.609375; 9.97601E-5
15855.468750; 1.00856E-4
15861.328125; 1.07389E-4
15867.187500; 1.04905E-4
15873.046875; 1.02765E-4
15878.906250; 1.08796E-4
15884.765625; 1.12658E-4
15890.625000; 1.07284E-4
15896.484375; 1.06224E-4
15902.343750; 1.00836E-4
15908.203125; 1.02803E-4
15914.062500; 1.03179E-4
15919.921875; 9.62921E-5
15925.781250; 9.74243E-5
15931.640625; 9.19690E-5
15937.500000; 9.67025E-5
15943.359375; 1.09369E-4
15949.218750; 1.10581E-4
15955.078125; 1.03939E-4
15960.937500; 1.01767E-4
15966.796875; 1.02042E-4
15972.656250; 1.09267E-4
15978.515625; 9.50162E-5
15984.375000; 1.01270E-4
15990.234375; 1.14198E-4
15996.093750; 1.14227E-4
16001.953125; 1.11311E-4
16007.812500; 1.17541E-4
16013.671875; 1.09478E-4
16019.531250; 9.52602E-5
16025.390625; 9.50040E-5
16031.250000; 1.06272E-4
16037.109375; 1.25988E-4
16042.968750; 1.17090E-4
16048.828125; 1.04139E-4
16054.687500; 1.14263E-4
16060.546875; 1.14212E-4
16066.406250; 1.06020E-4
16072.265625; 1.09507E-4
16078.125000; 1.11983E-4
16083.984375; 1.02327E-4
16089.843750; 9.06271E-5
16095.703125; 9.20639E-5
16101.562500; 1.02140E-4
16107.421875; 1.14391E-4
16113.281250; 1.11126E-4
16119.140625; 1.18901E-4
16125.000000; 1.18290E-4
16130.859375; 1.20902E-4
16136.718750; 1.05079E-4
16142.578125; 1.04515E-4
16148.437500; 1.10611E-4
16154.296875; 1.10420E-4
16160.156250; 9.65079E-5
16166.015625; 9.78916E-5
16171.875000; 9.10461E-5
16177.734375; 9.51151E-5
16183.593750; 9.59787E-5
16189.453125; 1.02654E-4
16195.312500; 1.08289E-4
16201.171875; 1.18651E-4
16207.031250; 1.10564E-4
16212.890625; 9.74187E-5
16218.750000; 9.81953E-5
16224.609375; 9.72552E-5
16230.468750; 1.05955E-4
16236.328125; 9.57195E-5
16242.187500; 9.90670E-5
16248.046875; 1.10358E-4
16253.906250; 1.14827E-4
16259.765625; 1.14468E-4
16265.625000; 1.08857E-4
16271.484375; 1.01351E-4
16277.343750; 1.01999E-4
16283.203125; 1.03743E-4
16289.062500; 1.06650E-4
16294.921875; 1.00272E-4
16300.781250; 1.05706E-4
16306.640625; 9.97969E-5
16312.500000; 1.01801E-4
16318.359375; 9.71716E-5
16324.218750; 9.93774E-5
16330.078125; 1.18345E-4
16335.937500; 1.06810E-4
16341.796875; 1.11704E-4
16347.656250; 1.08703E-4
16353.515625; 1.07993E-4
16359.375000; 9.76852E-5
16365.234375; 1.01190E-4
16371.093750; 1.03190E-4
16376.953125; 1.08502E-4
16382.812500; 1.13071E-4
16388.671875; 1.01399E-4
16394.531250; 9.86783E-5
16400.390625; 1.01590E-4
16406.250000; 9.56410E-5
16412.109375; 1.01667E-4
16417.968750; 1.13952E-4
16423.828125; 9.88253E-5
16429.687500; 9.09128E-5
16435.546875; 1.01686E-4
16441.406250; 1.07465E-4
16447.265625; 9.57776E-5
16453.125000; 1.04661E-4
16458.984375; 1.15649E-4
16464.843750; 1.12512E-4
16470.703125; 1.10780E-4
16476.562500; 1.23896E-4
16482.421875; 1.21940E-4
16488.281250; 1.15321E-4
16494.140625; 1.01866E-4
16500.000000; 9.83806E-5
16505.859375; 9.92602E-5
16511.718750; 8.77711E-5
16517.578125; 9.91828E-5
16523.437500; 1.08769E-4
16529.296875; 9.75312E-5
16535.156250; 9.90574E-5
16541.015625; 1.11447E-4
16546.875000; 1.05853E-4
16552.734375; 1.05354E-4
16558.593750; 1.10055E-4
16564.453125; 1.14823E-4
16570.312500; 1.11248E-4
16576.171875; 1.05725E-4
16582.031250; 1.05642E-4
16587.890625; 1.05498E-4
16593.750000; 9.57432E-5
16599.609375; 1.05022E-4
16605.468750; 1.12320E-4
16611.328125; 9.39831E-5
16617.187500; 9.13514E-5
16623.046875; 9.74113E-5
16628.906250; 1.07317E-4
16634.765625; 1.12180E-4
16640.625000; 1.06177E-4
16646.484375; 9.36600E-5
16652.343750; 1.05834E-4
16658.203125; 1.01430E-4
16664.062500; 9.68339E-5
16669.921875; 9.99073E-5
16675.781250; 1.00667E-4
16681.640625; 9.91418E-5
16687.500000; 1.06946E-4
16693.359375; 1.03085E-4
16699.218750; 1.06300E-4
16705.078125; 1.07301E-4
16710.937500; 9.68765E-5
16716.796875; 1.11824E-4
16722.656250; 1.16570E-4
16728.515625; 9.78309E-5
16734.375000; 9.78289E-5
16740.234375; 1.09029E-4
16746.093750; 1.05727E-4
16751.953125; 1.01502E-4
16757.812500; 1.04435E-4
16763.671875; 1.09233E-4
16769.531250; 1.04191E-4
16775.390625; 9.01288E-5
16781.250000; 1.12688E-4
16787.109375; 1.15799E-4
16792.968750; 9.61376E-5
16798.828125; 1.01921E-4
16804.687500; 1.14214E-4
16810.546875; 1.05740E-4
16816.406250; 1.06897E-4
16822.265625; 1.01726E-4
16828.125000; 1.01324E-4
16833.984375; 1.15024E-4
16839.843750; 1.18613E-4
16845.703125; 1.10159E-4
16851.562500; 1.06454E-4
16857.421875; 9.61734E-5
16863.281250; 9.59771E-5
16869.140625; 1.11388E-4
16875.000000; 1.17894E-4
16880.859375; 1.08607E-4
16886.718750; 1.03824E-4
16892.578125; 1.16572E-4
16898.437500; 1.13537E-4
16904.296875; 1.01505E-4
16910.156250; 1.01651E-4
16916.015625; 9.86404E-5
16921.875000; 1.10396E-4
16927.734375; 1.08264E-4
16933.593750; 1.03742E-4
16939.453125; 1.08713E-4
16945.312500; 1.12016E-4
16951.171875; 9.95850E-5
16957.031250; 1.03663E-4
16962.890625; 9.93249E-5
16968.750000; 9.57668E-5
16974.609375; 9.70216E-5
16980.468750; 1.02007E-4
16986.328125; 1.01030E-4
16992.187500; 1.13047E-4
16998.046875; 9.94207E-5
17003.906250; 9.36091E-5
17009.765625; 9.53171E-5
17015.625000; 9.85492E-5
17021.484375; 9.81906E-5
17027.343750; 1.00747E-4
17033.203125; 1.07926E-4
17039.062500; 1.11999E-4
17044.921875; 1.14828E-4
17050.781250; 1.04925E-4
17056.640625; 1.06271E-4
17062.500000; 1.14122E-4
17068.359375; 1.06886E-4
17074.218750; 1.13065E-4
17080.078125; 1.08853E-4
17085.937500; 1.04169E-4
17091.796875; 1.05604E-4
17097.656250; 1.03585E-4
17103.515625; 9.76404E-5
17109.375000; 9.58816E-5
17115.234375; 9.60406E-5
17121.093750; 1.08712E-4
17126.953125; 1.16609E-4
17132.812500; 1.13484E-4
17138.671875; 1.00841E-4
17144.531250; 9.24686E-5
17150.390625; 9.82024E-5
17156.250000; 1.05993E-4
17162.109375; 1.04702E-4
17167.968750; 1.01596E-4
17173.828125; 1.10720E-4
17179.687500; 1.05485E-4
17185.546875; 9.97250E-5
17191.406250; 9.87562E-5
17197.265625; 1.09897E-4
17203.125000; 1.02800E-4
17208.984375; 9.37559E-5
17214.843750; 1.02030E-4
17220.703125; 1.07607E-4
17226.562500; 1.09179E-4
17232.421875; 1.10122E-4
17238.281250; 1.04325E-4
17244.140625; 9.82831E-5
17250.000000; 1.06365E-4
17255.859375; 1.05748E-4
17261.718750; 1.01805E-4
17267.578125; 1.09947E-4
17273.437500; 1.12530E-4
17279.296875; 9.83247E-5
17285.156250; 1.09330E-4
17291.015625; 1.08434E-4
17296.875000; 9.73651E-5
17302.734375; 9.90702E-5
17308.593750; 1.04407E-4
17314.453125; 1.04499E-4
17320.312500; 1.04610E-4
17326.171875; 1.12488E-4
17332.031250; 1.14916E-4
17337.890625; 1.22992E-4
17343.750000; 1.01609E-4
17349.609375; 9.83877E-5
17355.468750; 8.83417E-5
17361.328125; 9.33655E-5
17367.187500; 1.02266E-4
17373.046875; 1.03386E-4
17378.906250; 1.02327E-4
17384.765625; 1.13617E-4
17390.625000; 1.27093E-4
17396.484375; 1.22362E-4
17402.343750; 1.22282E-4
17408.203125; 1.07735E-4
17414.062500; 9.62525E-5
17419.921875; 1.06194E-4
17425.781250; 1.02203E-4
17431.640625; 1.06100E-4
17437.500000; 1.10816E-4
17443.359375; 9.22455E-5
17449.218750; 9.29272E-5
17455.078125; 9.74153E-5
17460.937500; 1.02762E-4
17466.796875; 9.86696E-5
17472.656250; 9.81733E-5
17478.515625; 1.04253E-4
17484.375000; 1.04684E-4
17490.234375; 1.01964E-4
17496.093750; 1.03950E-4
17501.953125; 1.01975E-4
17507.812500; 1.03662E-4
17513.671875; 9.33304E-5
17519.531250; 9.68851E-5
17525.390625; 1.07115E-4
17531.250000; 1.00296E-4
17537.109375; 9.34679E-5
17542.968750; 1.06510E-4
17548.828125; 9.93021E-5
17554.687500; 1.06252E-4
17560.546875; 8.79561E-5
17566.406250; 9.16471E-5
17572.265625; 1.13652E-4
17578.125000; 1.14291E-4
17583.984375; 1.10019E-4
17589.843750; 1.12536E-4
17595.703125; 9.07253E-5
17601.562500; 8.41156E-5
17607.421875; 1.02093E-4
17613.281250; 1.05745E-4
17619.140625; 1.06494E-4
17625.000000; 1.18971E-4
17630.859375; 1.25557E-4
17636.718750; 1.16899E-4
17642.578125; 1.02121E-4
17648.437500; 1.01521E-4
17654.296875; 1.19880E-4
17660.156250; 1.15331E-4
17666.015625; 1.06791E-4
17671.875000; 9.42438E-5
17677.734375; 9.56901E-5
17683.593750; 9.88955E-5
17689.453125; 9.89103E-5
17695.312500; 1.07272E-4
17701.171875; 1.10014E-4
17707.031250; 1.02974E-4
17712.890625; 1.10739E-4
17718.750000; 1.08279E-4
17724.609375; 1.22410E-4
17730.468750; 1.18920E-4
17736.328125; 1.12420E-4
17742.187500; 1.08521E-4
17748.046875; 1.08026E-4
17753.906250; 1.06806E-4
17759.765625; 1.08090E-4
17765.625000; 1.09971E-4
17771.484375; 9.50910E-5
17777.343750; 9.78261E-5
17783.203125; 1.04905E-4
17789.062500; 1.10445E-4
17794.921875; 1.14044E-4
17800.781250; 1.01631E-4
17806.640625; 9.07056E-5
17812.500000; 1.02015E-4
17818.359375; 1.00936E-4
17824.218750; 1.12606E-4
17830.078125; 1.09340E-4
17835.937500; 1.19767E-4
17841.796875; 1.05316E-4
17847.656250; 9.39669E-5
17853.515625; 1.05847E-4
17859.375000; 1.12544E-4
17865.234375; 1.06655E-4
17871.093750; 9.58831E-5
17876.953125; 9.95251E-5
17882.812500; 9.25082E-5
17888.671875; 9.61172E-5
17894.531250; 1.08546E-4
17900.390625; 1.00269E-4
17906.250000; 1.10931E-4
17912.109375; 1.20059E-4
17917.968750; 1.06064E-4
17923.828125; 1.00378E-4
17929.687500; 1.16198E-4
17935.546875; 1.18221E-4
17941.406250; 1.13120E-4
17947.265625; 1.01171E-4
17953.125000; 1.05364E-4
17958.984375; 1.01716E-4
17964.843750; 1.00722E-4
17970.703125; 1.03934E-4
17976.562500; 1.04410E-4
17982.421875; 1.03120E-4
17988.281250; 1.01476E-4
17994.140625; 9.62872E-5
18000.000000; 1.04699E-4
18005.859375; 1.03326E-4
18011.718750; 1.01906E-4
18017.578125; 1.16323E-4
18023.437500; 1.01372E-4
18029.296875; 1.04064E-4
18035.156250; 1.10123E-4
18041.015625; 1.04935E-4
18046.875000; 9.60460E-5
18052.734375; 9.79771E-5
18058.593750; 9.86617E-5
18064.453125; 9.87132E-5
18070.312500; 9.71346E-5
18076.171875; 1.07818E-4
18082.031250; 9.84093E-5
18087.890625; 9.21654E-5
18093.750000; 1.07526E-4
18099.609375; 1.03436E-4
18105.468750; 8.86031E-5
18111.328125; 1.06928E-4
18117.187500; 1.08689E-4
18123.046875; 9.47298E-5
18128.906250; 8.89482E-5
18134.765625; 9.84389E-5
18140.625000; 9.66762E-5
18146.484375; 9.76141E-5
18152.343750; 1.06026E-4
18158.203125; 1.10388E-4
18164.062500; 1.13119E-4
18169.921875; 1.07586E-4
18175.781250; 9.33495E-5
18181.640625; 9.13542E-5
18187.500000; 1.10028E-4
18193.359375; 1.16370E-4
18199.218750; 1.15445E-4
18205.078125; 1.05158E-4
18210.937500; 1.02179E-4
18216.796875; 1.11396E-4
18222.656250; 1.15564E-4
18228.515625; 1.10291E-4
18234.375000; 1.08053E-4
18240.234375; 1.00318E-4
18246.093750; 1.13331E-4
18251.953125; 1.25679E-4
18257.812500; 1.24508E-4
18263.671875; 1.18987E-4
18269.531250; 1.04445E-4
18275.390625; 1.01061E-4
18281.250000; 1.06671E-4
18287.109375; 9.68871E-5
18292.968750; 1.01008E-4
18298.828125; 9.73251E-5
18304.687500; 9.86102E-5
18310.546875; 9.26678E-5
18316.406250; 9.78488E-5
18322.265625; 1.11354E-4
18328.125000; 1.01225E-4
18333.984375; 1.03855E-4
18339.843750; 1.03878E-4
18345.703125; 1.01686E-4
18351.562500; 1.01909E-4
18357.421875; 9.95182E-5
18363.281250; 1.03509E-4
18369.140625; 1.05646E-4
18375.000000; 1.04570E-4
18380.859375; 9.75401E-5
18386.718750; 9.55885E-5
18392.578125; 1.05809E-4
18398.437500; 1.14856E-4
18404.296875; 1.13080E-4
18410.156250; 1.06146E-4
18416.015625; 1.09317E-4
18421.875000; 1.07335E-4
18427.734375; 1.07292E-4
18433.593750; 1.06510E-4
18439.453125; 1.15957E-4
18445.312500; 1.25902E-4
18451.171875; 1.05860E-4
18457.031250; 1.05288E-4
18462.890625; 1.06811E-4
18468.750000; 1.02838E-4
18474.609375; 1.17171E-4
18480.468750; 8.98421E-5
18486.328125; 1.01297E-4
18492.187500; 1.02677E-4
18498.046875; 1.00141E-4
18503.906250; 1.14126E-4
18509.765625; 1.16317E-4
18515.625000; 1.06841E-4
18521.484375; 1.00653E-4
18527.343750; 1.07154E-4
18533.203125; 1.00794E-4
18539.062500; 9.84138E-5
18544.921875; 1.05736E-4
18550.781250; 1.16336E-4
18556.640625; 1.21489E-4
18562.500000; 1.12554E-4
18568.359375; 9.53848E-5
18574.218750; 8.92880E-5
18580.078125; 9.90974E-5
18585.937500; 1.02715E-4
18591.796875; 1.09387E-4
18597.656250; 9.82302E-5
18603.515625; 8.82018E-5
18609.375000; 1.02575E-4
18615.234375; 1.19181E-4
18621.093750; 1.08796E-4
18626.953125; 9.79385E-5
18632.812500; 9.63033E-5
18638.671875; 9.90107E-5
18644.531250; 1.03776E-4
18650.390625; 1.02082E-4
18656.250000; 9.70342E-5
18662.109375; 9.71817E-5
18667.968750; 9.69011E-5
18673.828125; 8.56704E-5
18679.687500; 9.00258E-5
18685.546875; 1.12943E-4
18691.406250; 1.09523E-4
18697.265625; 1.12100E-4
18703.125000; 1.08346E-4
18708.984375; 1.03267E-4
18714.843750; 1.06343E-4
18720.703125; 1.10924E-4
18726.562500; 1.05261E-4
18732.421875; 1.00628E-4
18738.281250; 1.00900E-4
18744.140625; 1.10977E-4
18750.000000; 1.03805E-4
18755.859375; 1.05937E-4
18761.718750; 1.14028E-4
18767.578125; 1.03312E-4
18773.437500; 9.90221E-5
18779.296875; 1.01103E-4
18785.156250; 1.11421E-4
18791.015625; 1.11003E-4
18796.875000; 1.04267E-4
18802.734375; 1.11581E-4
18808.593750; 1.07886E-4
18814.453125; 9.36634E-5
18820.312500; 9.66017E-5
18826.171875; 1.12023E-4
18832.031250; 1.23141E-4
18837.890625; 1.19166E-4
18843.750000; 1.06265E-4
18849.609375; 9.40951E-5
18855.468750; 1.05237E-4
18861.328125; 1.09955E-4
18867.187500; 9.62364E-5
18873.046875; 1.05974E-4
18878.906250; 1.09443E-4
18884.765625; 1.00676E-4
18890.625000; 9.42886E-5
18896.484375; 1.10606E-4
18902.343750; 1.13414E-4
18908.203125; 9.78198E-5
18914.062500; 9.38366E-5
18919.921875; 9.83961E-5
18925.781250; 1.09192E-4
18931.640625; 1.05924E-4
18937.500000; 1.05559E-4
18943.359375; 1.03504E-4
18949.218750; 9.69561E-5
18955.078125; 9.27953E-5
18960.937500; 1.05023E-4
18966.796875; 1.08787E-4
18972.656250; 1.06919E-4
18978.515625; 1.01430E-4
18984.375000; 1.05120E-4
18990.234375; 1.10780E-4
18996.093750; 1.07722E-4
19001.953125; 1.04528E-4
19007.812500; 9.14429E-5
19013.671875; 9.24137E-5
19019.531250; 1.03846E-4
19025.390625; 1.07314E-4
19031.250000; 1.09289E-4
19037.109375; 1.08462E-4
19042.968750; 1.08878E-4
19048.828125; 1.06512E-4
19054.687500; 1.04223E-4
19060.546875; 1.08964E-4
19066.406250; 1.13872E-4
19072.265625; 1.09639E-4
19078.125000; 1.01056E-4
19083.984375; 9.85792E-5
19089.843750; 9.99961E-5
19095.703125; 1.01436E-4
19101.562500; 1.07342E-4
19107.421875; 1.15091E-4
19113.281250; 1.21636E-4
19119.140625; 1.08678E-4
19125.000000; 1.03362E-4
19130.859375; 9.41147E-5
19136.718750; 1.01491E-4
19142.578125; 9.99034E-5
19148.437500; 1.05508E-4
19154.296875; 1.10294E-4
19160.156250; 1.14598E-4
19166.015625; 1.23166E-4
19171.875000; 1.20105E-4
19177.734375; 1.10171E-4
19183.593750; 1.05794E-4
19189.453125; 1.19458E-4
19195.312500; 1.14895E-4
19201.171875; 1.08388E-4
19207.031250; 1.11643E-4
19212.890625; 1.08218E-4
19218.750000; 1.12357E-4
19224.609375; 1.08698E-4
19230.468750; 9.88878E-5
19236.328125; 1.07213E-4
19242.187500; 1.01337E-4
19248.046875; 1.11328E-4
19253.906250; 1.02198E-4
19259.765625; 1.06394E-4
19265.625000; 9.45522E-5
19271.484375; 9.14347E-5
19277.343750; 9.26783E-5
19283.203125; 9.21970E-5
19289.062500; 1.06220E-4
19294.921875; 1.02085E-4
19300.781250; 9.51276E-5
19306.640625; 9.35388E-5
19312.500000; 9.73342E-5
19318.359375; 1.08360E-4
19324.218750; 1.05333E-4
19330.078125; 1.00368E-4
19335.937500; 1.03341E-4
19341.796875; 1.04386E-4
19347.656250; 1.01560E-4
19353.515625; 1.12617E-4
19359.375000; 1.12887E-4
19365.234375; 1.18209E-4
19371.093750; 9.96371E-5
19376.953125; 1.03265E-4
19382.812500; 1.08181E-4
19388.671875; 1.05591E-4
19394.531250; 1.09447E-4
19400.390625; 1.03761E-4
19406.250000; 1.08447E-4
19412.109375; 1.08629E-4
19417.968750; 1.07713E-4
19423.828125; 1.03930E-4
19429.687500; 1.06631E-4
19435.546875; 1.10861E-4
19441.406250; 1.00463E-4
19447.265625; 1.03752E-4
19453.125000; 1.12199E-4
19458.984375; 1.13644E-4
19464.843750; 9.89612E-5
19470.703125; 9.65231E-5
19476.562500; 1.05333E-4
19482.421875; 1.01624E-4
19488.281250; 1.01092E-4
19494.140625; 1.05886E-4
19500.000000; 1.01430E-4
19505.859375; 1.01724E-4
19511.718750; 1.02531E-4
19517.578125; 1.32941E-4
19523.437500; 1.20380E-4
19529.296875; 1.01441E-4
19535.156250; 1.09968E-4
19541.015625; 1.01842E-4
19546.875000; 1.03287E-4
19552.734375; 1.07016E-4
19558.593750; 1.18167E-4
19564.453125; 1.05721E-4
19570.312500; 1.04395E-4
19576.171875; 1.03702E-4
19582.031250; 1.02731E-4
19587.890625; 1.05971E-4
19593.750000; 1.07412E-4
19599.609375; 1.08633E-4
19605.468750; 1.08322E-4
19611.328125; 9.51642E-5
19617.187500; 9.65272E-5
19623.046875; 1.11683E-4
19628.906250; 1.13984E-4
19634.765625; 1.14001E-4
19640.625000; 1.07084E-4
19646.484375; 1.05216E-4
19652.343750; 1.07716E-4
19658.203125; 1.11440E-4
19664.062500; 9.84274E-5
19669.921875; 1.03934E-4
19675.781250; 1.08209E-4
19681.640625; 1.01527E-4
19687.500000; 9.92150E-5
19693.359375; 9.85483E-5
19699.218750; 9.71498E-5
19705.078125; 1.01856E-4
19710.937500; 1.12469E-4
19716.796875; 1.09591E-4
19722.656250; 1.06361E-4
19728.515625; 1.11702E-4
19734.375000; 1.01565E-4
19740.234375; 1.03875E-4
19746.093750; 1.03897E-4
19751.953125; 1.01330E-4
19757.812500; 9.22937E-5
19763.671875; 8.71985E-5
19769.531250; 9.21881E-5
19775.390625; 9.58523E-5
19781.250000; 1.05034E-4
19787.109375; 1.03514E-4
19792.968750; 1.05735E-4
19798.828125; 9.54096E-5
19804.687500; 9.17100E-5
19810.546875; 9.75444E-5
19816.406250; 1.04308E-4
19822.265625; 1.16742E-4
19828.125000; 1.14035E-4
19833.984375; 1.07475E-4
19839.843750; 1.04275E-4
19845.703125; 1.00624E-4
19851.562500; 1.13608E-4
19857.421875; 1.13554E-4
19863.281250; 1.06006E-4
19869.140625; 1.10537E-4
19875.000000; 1.03369E-4
19880.859375; 1.06462E-4
19886.718750; 1.10455E-4
19892.578125; 1.08455E-4
19898.437500; 1.06831E-4
19904.296875; 1.08306E-4
19910.156250; 1.00695E-4
19916.015625; 1.02213E-4
19921.875000; 9.48474E-5
19927.734375; 9.11291E-5
19933.593750; 1.07750E-4
19939.453125; 1.10612E-4
19945.312500; 1.05124E-4
19951.171875; 1.02694E-4
19957.031250; 1.07733E-4
19962.890625; 9.47860E-5
19968.750000; 9.19168E-5
19974.609375; 9.70217E-5
19980.468750; 9.66740E-5
19986.328125; 9.53645E-5
19992.187500; 1.02118E-4
19998.046875; 9.80136E-5
20003.906250; 9.22159E-5
20009.765625; 1.05531E-4
20015.625000; 1.08738E-4
20021.484375; 9.91390E-5
20027.343750; 1.00346E-4
20033.203125; 1.11860E-4
20039.062500; 1.19958E-4
20044.921875; 1.18230E-4
20050.781250; 1.13692E-4
20056.640625; 1.05004E-4
20062.500000; 8.99273E-5
20068.359375; 8.83638E-5
20074.218750; 1.00657E-4
20080.078125; 1.01554E-4
20085.937500; 9.52482E-5
20091.796875; 1.02058E-4
20097.656250; 9.92301E-5
20103.515625; 1.08989E-4
20109.375000; 9.97330E-5
20115.234375; 1.06051E-4
20121.093750; 1.16798E-4
20126.953125; 1.03883E-4
20132.812500; 1.07573E-4
20138.671875; 1.06725E-4
20144.531250; 9.95404E-5
20150.390625; 1.03569E-4
20156.250000; 1.04801E-4
20162.109375; 9.86252E-5
20167.968750; 1.06182E-4
20173.828125; 9.95229E-5
20179.687500; 9.09873E-5
20185.546875; 1.01169E-4
20191.406250; 1.09994E-4
20197.265625; 1.05127E-4
20203.125000; 9.61380E-5
20208.984375; 9.73591E-5
20214.843750; 1.01247E-4
20220.703125; 1.00960E-4
20226.562500; 1.08752E-4
20232.421875; 1.03143E-4
20238.281250; 1.04784E-4
20244.140625; 1.01052E-4
20250.000000; 9.25486E-5
20255.859375; 1.01093E-4
20261.718750; 1.08140E-4
20267.578125; 1.04188E-4
20273.437500; 1.03258E-4
20279.296875; 1.01605E-4
20285.156250; 1.01714E-4
20291.015625; 9.60826E-5
20296.875000; 9.23780E-5
20302.734375; 1.00480E-4
20308.593750; 1.03635E-4
20314.453125; 9.49419E-5
20320.312500; 1.00760E-4
20326.171875; 9.69866E-5
20332.031250; 9.01729E-5
20337.890625; 8.83922E-5
20343.750000; 9.33131E-5
20349.609375; 9.89061E-5
20355.468750; 1.05435E-4
20361.328125; 1.05150E-4
20367.187500; 1.09311E-4
20373.046875; 1.10878E-4
20378.906250; 1.22974E-4
20384.765625; 1.21880E-4
20390.625000; 1.09111E-4
20396.484375; 1.06405E-4
20402.343750; 9.99688E-5
20408.203125; 1.03895E-4
20414.062500; 1.16346E-4
20419.921875; 1.05894E-4
20425.781250; 1.05408E-4
20431.640625; 1.02019E-4
20437.500000; 1.04662E-4
20443.359375; 1.07816E-4
20449.218750; 9.94206E-5
20455.078125; 9.95715E-5
20460.937500; 1.07756E-4
20466.796875; 1.14939E-4
20472.656250; 1.09222E-4
20478.515625; 1.02240E-4
20484.375000; 1.12039E-4
20490.234375; 1.04963E-4
20496.093750; 9.95963E-5
20501.953125; 1.13919E-4
20507.812500; 1.11383E-4
20513.671875; 1.18956E-4
20519.531250; 1.14458E-4
20525.390625; 1.07132E-4
20531.250000; 1.05777E-4
20537.109375; 1.09457E-4
20542.968750; 1.11411E-4
20548.828125; 1.12037E-4
20554.687500; 1.17017E-4
20560.546875; 1.14253E-4
20566.406250; 1.00143E-4
20572.265625; 9.81108E-5
20578.125000; 9.31427E-5
20583.984375; 1.05553E-4
20589.843750; 1.08230E-4
20595.703125; 9.46286E-5
20601.562500; 9.77239E-5
20607.421875; 1.09046E-4
20613.281250; 1.14684E-4
20619.140625; 1.18285E-4
20625.000000; 1.22936E-4
20630.859375; 1.08586E-4
20636.718750; 9.94098E-5
20642.578125; 1.05835E-4
20648.437500; 1.13764E-4
20654.296875; 1.03135E-4
20660.156250; 1.04602E-4
20666.015625; 1.01266E-4
20671.875000; 1.04608E-4
20677.734375; 1.02297E-4
20683.593750; 1.09439E-4
20689.453125; 1.11319E-4
20695.312500; 9.44660E-5
20701.171875; 9.45565E-5
20707.031250; 9.47436E-5
20712.890625; 9.47647E-5
20718.750000; 1.00856E-4
20724.609375; 1.12514E-4
20730.468750; 1.24269E-4
20736.328125; 1.03940E-4
20742.187500; 1.13805E-4
20748.046875; 1.12613E-4
20753.906250; 1.03295E-4
20759.765625; 1.06554E-4
20765.625000; 9.88410E-5
20771.484375; 1.03049E-4
20777.343750; 9.74431E-5
20783.203125; 1.00509E-4
20789.062500; 1.01259E-4
20794.921875; 1.03708E-4
20800.781250; 1.00905E-4
20806.640625; 9.91899E-5
20812.500000; 1.10781E-4
20818.359375; 1.14815E-4
20824.218750; 1.08021E-4
20830.078125; 1.07601E-4
20835.937500; 1.09134E-4
20841.796875; 1.01026E-4
20847.656250; 9.40507E-5
20853.515625; 8.53010E-5
20859.375000; 9.51882E-5
20865.234375; 1.01831E-4
20871.093750; 1.08277E-4
20876.953125; 1.22627E-4
20882.812500; 8.85943E-5
20888.671875; 8.54942E-5
20894.531250; 9.84980E-5
20900.390625; 9.85844E-5
20906.250000; 9.01488E-5
20912.109375; 1.00999E-4
20917.968750; 1.04842E-4
20923.828125; 1.00005E-4
20929.687500; 1.04792E-4
20935.546875; 1.09543E-4
20941.406250; 1.04214E-4
20947.265625; 9.98322E-5
20953.125000; 1.03020E-4
20958.984375; 1.04723E-4
20964.843750; 1.04777E-4
20970.703125; 9.74430E-5
20976.562500; 1.06385E-4
20982.421875; 1.12680E-4
20988.281250; 1.05165E-4
20994.140625; 1.14098E-4
21000.000000; 1.08202E-4
21005.859375; 1.01857E-4
21011.718750; 9.77124E-5
21017.578125; 1.02254E-4
21023.437500; 1.04384E-4
21029.296875; 1.01893E-4
21035.156250; 9.60181E-5
21041.015625; 9.75639E-5
21046.875000; 9.90910E-5
21052.734375; 1.06246E-4
21058.593750; 9.95342E-5
21064.453125; 9.42295E-5
21070.312500; 1.07364E-4
21076.171875; 1.01064E-4
21082.031250; 1.01814E-4
21087.890625; 9.50187E-5
21093.750000; 9.62183E-5
21099.609375; 8.95000E-5
21105.468750; 1.00908E-4
21111.328125; 1.08652E-4
21117.187500; 1.11960E-4
21123.046875; 1.01440E-4
21128.906250; 1.02043E-4
21134.765625; 1.09717E-4
21140.625000; 1.07134E-4
21146.484375; 1.01268E-4
21152.343750; 9.59997E-5
21158.203125; 9.25029E-5
21164.062500; 1.02996E-4
21169.921875; 9.31940E-5
21175.781250; 9.25825E-5
21181.640625; 1.05091E-4
21187.500000; 1.01278E-4
21193.359375; 1.00365E-4
21199.218750; 1.10243E-4
21205.078125; 1.15330E-4
21210.937500; 9.89953E-5
21216.796875; 9.72566E-5
21222.656250; 1.04898E-4
21228.515625; 1.11524E-4
21234.375000; 1.09601E-4
21240.234375; 1.02021E-4
21246.093750; 1.03322E-4
21251.953125; 1.03068E-4
21257.812500; 9.31721E-5
21263.671875; 1.06174E-4
21269.531250; 1.07203E-4
21275.390625; 9.54355E-5
21281.250000; 9.96349E-5
21287.109375; 1.02140E-4
21292.968750; 9.93185E-5
21298.828125; 1.04214E-4
21304.687500; 9.72074E-5
21310.546875; 1.03900E-4
21316.406250; 1.14070E-4
21322.265625; 1.18528E-4
21328.125000; 1.16750E-4
21333.984375; 1.14744E-4
21339.843750; 1.15339E-4
21345.703125; 1.12553E-4
21351.562500; 1.04888E-4
21357.421875; 1.01655E-4
21363.281250; 1.02910E-4
21369.140625; 1.02991E-4
21375.000000; 9.46906E-5
21380.859375; 1.02187E-4
21386.718750; 1.14982E-4
21392.578125; 1.16117E-4
21398.437500; 9.93063E-5
21404.296875; 9.85144E-5
21410.156250; 1.08120E-4
21416.015625; 1.13067E-4
21421.875000; 1.22476E-4
21427.734375; 1.14760E-4
21433.593750; 1.05165E-4
21439.453125; 1.08138E-4
21445.312500; 1.03582E-4
21451.171875; 8.88600E-5
21457.031250; 9.85435E-5
21462.890625; 1.10303E-4
21468.750000; 1.10955E-4
21474.609375; 1.16780E-4
21480.468750; 1.15568E-4
21486.328125; 9.88338E-5
21492.187500; 1.02781E-4
21498.046875; 1.02454E-4
21503.906250; 9.97226E-5
21509.765625; 1.06481E-4
21515.625000; 1.04136E-4
21521.484375; 9.77426E-5
21527.343750; 1.07946E-4
21533.203125; 1.02429E-4
21539.062500; 1.00753E-4
21544.921875; 9.33170E-5
21550.781250; 9.99961E-5
21556.640625; 1.06090E-4
21562.500000; 1.05064E-4
21568.359375; 1.07375E-4
21574.218750; 1.08189E-4
21580.078125; 1.03050E-4
21585.937500; 1.08522E-4
21591.796875; 1.23060E-4
21597.656250; 1.14450E-4
21603.515625; 1.07469E-4
21609.375000; 1.06007E-4
21615.234375; 1.06641E-4
21621.093750; 1.02147E-4
21626.953125; 1.01603E-4
21632.812500; 1.06351E-4
21638.671875; 1.09489E-4
21644.531250; 1.09333E-4
21650.390625; 1.01199E-4
21656.250000; 9.96162E-5
21662.109375; 9.81901E-5
21667.968750; 9.39536E-5
21673.828125; 9.60085E-5
21679.687500; 8.96889E-5
21685.546875; 1.02450E-4
21691.406250; 1.10181E-4
21697.265625; 1.01209E-4
21703.125000; 1.03571E-4
21708.984375; 1.05210E-4
21714.843750; 8.82629E-5
21720.703125; 9.12455E-5
21726.562500; 9.65778E-5
21732.421875; 9.58797E-5
21738.281250; 1.02894E-4
21744.140625; 9.77684E-5
21750.000000; 9.97007E-5
21755.859375; 9.72965E-5
21761.718750; 1.03809E-4
21767.578125; 1.14301E-4
21773.437500; 1.12028E-4
21779.296875; 1.09257E-4
21785.156250; 9.77288E-5
21791.015625; 1.08357E-4
21796.875000; 1.05129E-4
21802.734375; 1.02284E-4
21808.593750; 1.11062E-4
21814.453125; 8.98999E-5
21820.312500; 1.10642E-4
21826.171875; 1.24102E-4
21832.031250; 1.11518E-4
21837.890625; 8.61110E-5
21843.750000; 9.56238E-5
21849.609375; 1.09295E-4
21855.468750; 1.13091E-4
21861.328125; 1.05480E-4
21867.187500; 1.06559E-4
21873.046875; 1.03205E-4
21878.906250; 1.04613E-4
21884.765625; 1.07223E-4
21890.625000; 1.01085E-4
21896.484375; 1.07022E-4
21902.343750; 1.04177E-4
21908.203125; 1.05528E-4
21914.062500; 1.08658E-4
21919.921875; 9.77041E-5
21925.781250; 9.31387E-5
21931.640625; 9.81948E-5
21937.500000; 1.02543E-4
21943.359375; 1.08031E-4
21949.218750; 1.11744E-4
21955.078125; 1.02489E-4
21960.937500; 1.03696E-4
21966.796875; 9.13641E-5
21972.656250; 8.69290E-5
21978.515625; 8.45606E-5
21984.375000; 8.63356E-5
21990.234375; 9.79772E-5
21996.093750; 1.07229E-4
22001.953125; 1.11767E-4
22007.812500; 9.65947E-5
22013.671875; 9.79548E-5
22019.531250; 1.07380E-4
22025.390625; 1.02418E-4
22031.250000; 1.14672E-4
22037.109375; 1.04855E-4
22042.968750; 9.68664E-5
22048.828125; 1.03349E-4
22054.687500; 1.03158E-4
22060.546875; 8.82573E-5
22066.406250; 9.06671E-5
22072.265625; 9.81704E-5
22078.125000; 1.03449E-4
22083.984375; 1.02140E-4
22089.843750; 9.44810E-5
22095.703125; 9.84920E-5
22101.562500; 9.99898E-5
22107.421875; 9.86022E-5
22113.281250; 9.20695E-5
22119.140625; 9.73717E-5
22125.000000; 9.83438E-5
22130.859375; 1.13792E-4
22136.718750; 1.16418E-4
22142.578125; 9.48352E-5
22148.437500; 9.87279E-5
22154.296875; 9.53629E-5
22160.156250; 1.10868E-4
22166.015625; 1.11347E-4
22171.875000; 1.05670E-4
22177.734375; 9.21891E-5
22183.593750; 1.00634E-4
22189.453125; 1.08310E-4
22195.312500; 1.03431E-4
22201.171875; 9.91932E-5
22207.031250; 1.03433E-4
22212.890625; 9.43177E-5
22218.750000; 9.36357E-5
22224.609375; 9.86696E-5
22230.468750; 1.09811E-4
22236.328125; 1.15914E-4
22242.187500; 1.18729E-4
22248.046875; 1.07897E-4
22253.906250; 1.09168E-4
22259.765625; 1.13852E-4
22265.625000; 1.03190E-4
22271.484375; 8.78711E-5
22277.343750; 9.92558E-5
22283.203125; 1.02824E-4
22289.062500; 1.02378E-4
22294.921875; 1.08422E-4
22300.781250; 1.06852E-4
22306.640625; 1.05615E-4
22312.500000; 9.35428E-5
22318.359375; 1.03640E-4
22324.218750; 1.05710E-4
22330.078125; 9.19323E-5
22335.937500; 9.95440E-5
22341.796875; 1.06425E-4
22347.656250; 1.01459E-4
22353.515625; 9.56481E-5
22359.375000; 9.26204E-5
22365.234375; 9.54733E-5
22371.093750; 9.29747E-5
22376.953125; 9.84618E-5
22382.812500; 1.01581E-4
22388.671875; 1.03932E-4
22394.531250; 9.66716E-5
22400.390625; 8.92671E-5
22406.250000; 8.95275E-5
22412.109375; 7.78811E-5
22417.968750; 8.79669E-5
22423.828125; 8.90835E-5
22429.687500; 9.58606E-5
22435.546875; 9.78722E-5
22441.406250; 9.52123E-5
22447.265625; 9.25629E-5
22453.125000; 9.28651E-5
22458.984375; 9.46372E-5
22464.843750; 1.01445E-4
22470.703125; 9.80849E-5
22476.562500; 1.05351E-4
22482.421875; 9.72516E-5
22488.281250; 9.88720E-5
22494.140625; 9.64676E-5
22500.000000; 9.36291E-5
22505.859375; 9.53898E-5
22511.718750; 1.07969E-4
22517.578125; 1.15968E-4
22523.437500; 1.09138E-4
22529.296875; 9.95143E-5
22535.156250; 9.24733E-5
22541.015625; 9.39902E-5
22546.875000; 9.25793E-5
22552.734375; 9.60557E-5
22558.593750; 1.02211E-4
22564.453125; 8.86597E-5
22570.312500; 8.81539E-5
22576.171875; 9.20570E-5
22582.031250; 1.03085E-4
22587.890625; 9.50203E-5
22593.750000; 9.12247E-5
22599.609375; 9.43726E-5
22605.468750; 1.00844E-4
22611.328125; 9.32905E-5
22617.187500; 8.06278E-5
22623.046875; 8.68375E-5
22628.906250; 8.97519E-5
22634.765625; 8.67391E-5
22640.625000; 9.59055E-5
22646.484375; 9.61486E-5
22652.343750; 9.25597E-5
22658.203125; 1.03185E-4
22664.062500; 9.28180E-5
22669.921875; 8.44635E-5
22675.781250; 8.80846E-5
22681.640625; 9.04256E-5
22687.500000; 9.27494E-5
22693.359375; 9.31683E-5
22699.218750; 9.45914E-5
22705.078125; 9.44107E-5
22710.937500; 8.74794E-5
22716.796875; 7.98651E-5
22722.656250; 9.61756E-5
22728.515625; 1.01844E-4
22734.375000; 8.75546E-5
22740.234375; 8.72405E-5
22746.093750; 9.77279E-5
22751.953125; 9.86071E-5
22757.812500; 9.82601E-5
22763.671875; 8.46357E-5
22769.531250; 8.82583E-5
22775.390625; 9.79524E-5
22781.250000; 8.96397E-5
22787.109375; 7.69629E-5
22792.968750; 8.19208E-5
22798.828125; 8.15288E-5
22804.687500; 8.50852E-5
22810.546875; 9.73991E-5
22816.406250; 9.57630E-5
22822.265625; 8.17414E-5
22828.125000; 8.91448E-5
22833.984375; 8.32441E-5
22839.843750; 8.79983E-5
22845.703125; 9.14515E-5
22851.562500; 8.50511E-5
22857.421875; 8.13429E-5
22863.281250; 8.97042E-5
22869.140625; 8.98362E-5
22875.000000; 8.52658E-5
22880.859375; 8.70990E-5
22886.718750; 8.14182E-5
22892.578125; 8.06719E-5
22898.437500; 7.98793E-5
22904.296875; 7.32878E-5
22910.156250; 7.89068E-5
22916.015625; 8.34680E-5
22921.875000; 8.85491E-5
22927.734375; 8.17091E-5
22933.593750; 8.15541E-5
22939.453125; 7.84010E-5
22945.312500; 9.00639E-5
22951.171875; 9.13980E-5
22957.031250; 7.36763E-5
22962.890625; 7.46034E-5
22968.750000; 7.45652E-5
22974.609375; 7.15131E-5
22980.468750; 7.44294E-5
22986.328125; 8.06675E-5
22992.187500; 7.66780E-5
22998.046875; 8.18010E-5
23003.906250; 8.34532E-5
23009.765625; 8.53265E-5
23015.625000; 8.23079E-5
23021.484375; 7.42408E-5
23027.343750; 7.00761E-5
23033.203125; 8.02575E-5
23039.062500; 8.04071E-5
23044.921875; 7.23070E-5
23050.781250; 7.57278E-5
23056.640625; 8.38959E-5
23062.500000; 8.83950E-5
23068.359375; 7.27820E-5
23074.218750; 7.93498E-5
23080.078125; 7.68497E-5
23085.937500; 7.61995E-5
23091.796875; 7.30819E-5
23097.656250; 7.39386E-5
23103.515625; 7.57228E-5
23109.375000; 7.45903E-5
23115.234375; 7.43609E-5
23121.093750; 6.88936E-5
23126.953125; 7.42896E-5
23132.812500; 6.83013E-5
23138.671875; 6.07924E-5
23144.531250; 7.48644E-5
23150.390625; 8.03188E-5
23156.250000; 7.06552E-5
23162.109375; 6.31010E-5
23167.968750; 6.14887E-5
23173.828125; 6.50493E-5
23179.687500; 7.77785E-5
23185.546875; 7.15445E-5
23191.406250; 7.76018E-5
23197.265625; 7.53889E-5
23203.125000; 7.48428E-5
23208.984375; 6.98133E-5
23214.843750; 6.48188E-5
23220.703125; 6.20477E-5
23226.562500; 5.79069E-5
23232.421875; 7.39609E-5
23238.281250; 6.74991E-5
23244.140625; 6.15507E-5
23250.000000; 7.02397E-5
23255.859375; 6.83980E-5
23261.718750; 6.03098E-5
23267.578125; 6.23084E-5
23273.437500; 6.38673E-5
23279.296875; 5.95888E-5
23285.156250; 5.47973E-5
23291.015625; 5.96390E-5
23296.875000; 6.47013E-5
23302.734375; 6.33005E-5
23308.593750; 6.57214E-5
23314.453125; 7.09700E-5
23320.312500; 7.21253E-5
23326.171875; 6.98040E-5
23332.031250; 5.91627E-5
23337.890625; 5.92138E-5
23343.750000; 5.49655E-5
23349.609375; 5.36634E-5
23355.468750; 5.60957E-5
23361.328125; 6.02460E-5
23367.187500; 6.02953E-5
23373.046875; 5.56240E-5
23378.906250; 5.33513E-5
23384.765625; 5.55619E-5
23390.625000; 5.66748E-5
23396.484375; 5.52680E-5
23402.343750; 5.56792E-5
23408.203125; 5.11586E-5
23414.062500; 5.65714E-5
23419.921875; 5.86772E-5
23425.781250; 5.71306E-5
23431.640625; 5.76147E-5
23437.500000; 5.46800E-5
23443.359375; 5.33914E-5
23449.218750; 4.93041E-5
23455.078125; 5.35872E-5
23460.937500; 5.41763E-5
23466.796875; 5.54814E-5
23472.656250; 7.75851E-5
23478.515625; 8.69878E-5
23484.375000; 5.12583E-5
23490.234375; 5.06136E-5
23496.093750; 5.42300E-5
23501.953125; 5.39988E-5
23507.812500; 5.21273E-5
23513.671875; 5.22917E-5
23519.531250; 6.50062E-5
23525.390625; 7.61970E-5
23531.250000; 5.46248E-5
23537.109375; 5.04262E-5
23542.968750; 4.76615E-5
23548.828125; 5.01022E-5
23554.687500; 4.84371E-5
23560.546875; 4.85550E-5
23566.406250; 4.60446E-5
23572.265625; 4.40106E-5
23578.125000; 4.31052E-5
23583.984375; 4.38312E-5
23589.843750; 4.18502E-5
23595.703125; 4.30970E-5
23601.562500; 4.82384E-5
23607.421875; 5.55004E-5
23613.281250; 5.91975E-5
23619.140625; 5.22512E-5
23625.000000; 4.82344E-5
23630.859375; 4.27603E-5
23636.718750; 4.59508E-5
23642.578125; 4.66522E-5
23648.437500; 4.47854E-5
23654.296875; 4.39133E-5
23660.156250; 4.41024E-5
23666.015625; 3.65789E-5
23671.875000; 3.50602E-5
23677.734375; 4.18452E-5
23683.593750; 4.23422E-5
23689.453125; 4.38936E-5
23695.312500; 4.73371E-5
23701.171875; 4.43935E-5
23707.031250; 4.12384E-5
23712.890625; 4.08378E-5
23718.750000; 4.08231E-5
23724.609375; 4.44418E-5
23730.468750; 4.33310E-5
23736.328125; 4.04575E-5
23742.187500; 4.34567E-5
23748.046875; 4.35474E-5
23753.906250; 4.10059E-5
23759.765625; 4.07022E-5
23765.625000; 4.02779E-5
23771.484375; 4.00124E-5
23777.343750; 4.42673E-5
23783.203125; 4.63682E-5
23789.062500; 4.34705E-5
23794.921875; 4.37431E-5
23800.781250; 4.00735E-5
23806.640625; 3.37376E-5
23812.500000; 3.60631E-5
23818.359375; 4.09598E-5
23824.218750; 4.41165E-5
23830.078125; 3.69232E-5
23835.937500; 3.68868E-5
23841.796875; 3.86740E-5
23847.656250; 3.67249E-5
23853.515625; 3.93472E-5
23859.375000; 3.64840E-5
23865.234375; 3.75537E-5
23871.093750; 3.71891E-5
23876.953125; 3.81482E-5
23882.812500; 3.97563E-5
23888.671875; 3.76112E-5
23894.531250; 3.65999E-5
23900.390625; 3.75662E-5
23906.250000; 3.66451E-5
23912.109375; 3.45716E-5
23917.968750; 4.03520E-5
23923.828125; 3.96869E-5
23929.687500; 3.87170E-5
23935.546875; 3.73488E-5
23941.406250; 3.37134E-5
23947.265625; 3.62766E-5
23953.125000; 3.75347E-5
23958.984375; 3.78788E-5
23964.843750; 3.53409E-5
23970.703125; 3.49485E-5
23976.562500; 3.87621E-5
23982.421875; 3.67375E-5
23988.281250; 3.52525E-5
23994.140625; 3.77107E-5
