* Measurement data measured by REW V5.31.3
* Source: PCM: default, no input selected, 2, volume: no control
* Format: 8192-point spectrum using Hann window and exponential averaging 0.97 
* Dated: Mar 9, 2025 1:27:46 PM
* REW Settings:
*  C-weighting compensation: Off
*  Target level: 75.0 dB
* Note: OSDEHA MU-OUTPUT; 8192-point spectrum using Hann window and exponential averaging 0.97  Input RMS 17.79 V 17.79 VC, 17.79 VA 17.79 V 22 - 22k UNW 948.8 uV >22k Distortion at 1,000.0 Hz, -14.99 dBFS: Gain: 29.68 dB THD: 0.018 % based on 21 harmonics  [0..22800 Hz] HHD: 0.0021 %  [10 .. 22] N: 0.079 %  [0..22800 Hz] N+D: 5.657 mV A THD+N: 0.081 %  [0..22800 Hz] SNR: 62.0 dB ENOB: 13.0 bits 2nd harmonic 0.018 % 140 deg 3rd harmonic 0.0014 % -26 deg 4th harmonic 0.00083 % 144 deg 5th harmonic 0.00064 % -25 deg 6th harmonic 0.00055 % -26 deg 7th harmonic 0.00058 % -12 deg 8th harmonic 0.00058 % 20 deg 9th harmonic 0.00060 % 35 deg 
* Measurement: OSDEHA MU-OUT 17.8V
* Smoothing: None
* Frequency Step: 5.859375 Hz
* Start Frequency: 5.859375 Hz
*
* Freq(Hz); V(V)
5.859375; 1.82355E-4
11.718750; 2.35448E-4
17.578125; 2.00911E-4
23.437500; 1.41867E-4
29.296875; 1.84420E-4
35.156250; 1.88879E-4
41.015625; 1.53135E-4
46.875000; 3.00873E-4
52.734375; 3.26754E-4
58.593750; 1.88179E-4
64.453125; 1.66103E-4
70.312500; 1.48059E-4
76.171875; 1.40117E-4
82.031250; 1.52877E-4
87.890625; 1.91836E-4
93.750000; 5.82761E-3
99.609375; 1.28844E-2
105.468750; 7.11490E-3
111.328125; 2.32973E-4
117.187500; 1.54460E-4
123.046875; 1.39114E-4
128.906250; 1.35631E-4
134.765625; 1.41365E-4
140.625000; 1.44579E-4
146.484375; 1.43001E-4
152.343750; 1.40529E-4
158.203125; 1.19484E-4
164.062500; 1.35493E-4
169.921875; 1.36125E-4
175.781250; 1.42471E-4
181.640625; 1.20948E-4
187.500000; 1.23260E-4
193.359375; 5.76848E-4
199.218750; 1.34375E-3
205.078125; 8.12386E-4
210.937500; 1.33000E-4
216.796875; 1.20601E-4
222.656250; 1.31340E-4
228.515625; 1.30568E-4
234.375000; 1.32480E-4
240.234375; 1.35834E-4
246.093750; 1.20825E-4
251.953125; 1.25312E-4
257.812500; 1.16213E-4
263.671875; 1.18909E-4
269.531250; 1.15669E-4
275.390625; 1.18805E-4
281.250000; 1.29219E-4
287.109375; 1.34401E-4
292.968750; 1.73481E-4
298.828125; 2.85716E-4
304.687500; 1.97735E-4
310.546875; 1.25012E-4
316.406250; 1.16407E-4
322.265625; 1.22395E-4
328.125000; 1.24822E-4
333.984375; 1.21132E-4
339.843750; 1.16702E-4
345.703125; 1.12490E-4
351.562500; 1.04347E-4
357.421875; 1.16988E-4
363.281250; 1.23164E-4
369.140625; 1.28626E-4
375.000000; 1.26427E-4
380.859375; 1.13168E-4
386.718750; 1.05583E-4
392.578125; 1.39923E-4
398.437500; 2.59651E-4
404.296875; 1.88736E-4
410.156250; 1.05566E-4
416.015625; 1.17156E-4
421.875000; 1.15795E-4
427.734375; 1.16391E-4
433.593750; 1.08914E-4
439.453125; 1.07728E-4
445.312500; 1.00497E-4
451.171875; 1.12982E-4
457.031250; 1.21414E-4
462.890625; 1.24783E-4
468.750000; 1.08736E-4
474.609375; 1.10715E-4
480.468750; 1.14282E-4
486.328125; 1.18641E-4
492.187500; 1.19365E-4
498.046875; 1.24142E-4
503.906250; 1.28326E-4
509.765625; 1.28403E-4
515.625000; 1.15024E-4
521.484375; 9.73630E-5
527.343750; 1.15463E-4
533.203125; 1.17339E-4
539.062500; 1.15274E-4
544.921875; 1.20407E-4
550.781250; 1.06973E-4
556.640625; 9.82789E-5
562.500000; 1.12769E-4
568.359375; 1.17853E-4
574.218750; 1.08409E-4
580.078125; 9.47111E-5
585.937500; 1.09077E-4
591.796875; 1.22458E-4
597.656250; 1.36476E-4
603.515625; 1.18910E-4
609.375000; 1.10799E-4
615.234375; 1.09017E-4
621.093750; 1.07632E-4
626.953125; 1.15520E-4
632.812500; 1.11580E-4
638.671875; 9.86939E-5
644.531250; 1.16529E-4
650.390625; 1.15642E-4
656.250000; 1.08720E-4
662.109375; 1.20732E-4
667.968750; 1.19772E-4
673.828125; 1.18009E-4
679.687500; 1.24634E-4
685.546875; 1.09823E-4
691.406250; 1.25272E-4
697.265625; 1.12683E-4
703.125000; 1.34293E-4
708.984375; 1.06179E-4
714.843750; 1.03557E-4
720.703125; 1.24572E-4
726.562500; 1.36896E-4
732.421875; 1.25974E-4
738.281250; 1.16173E-4
744.140625; 1.29010E-4
750.000000; 1.45443E-4
755.859375; 1.27915E-4
761.718750; 1.36605E-4
767.578125; 1.16432E-4
773.437500; 1.50903E-4
779.296875; 1.37246E-4
785.156250; 1.52990E-4
791.015625; 1.44358E-4
796.875000; 1.38625E-4
802.734375; 1.85093E-4
808.593750; 1.74751E-4
814.453125; 1.83811E-4
820.312500; 1.93600E-4
826.171875; 2.25226E-4
832.031250; 2.31684E-4
837.890625; 2.69341E-4
843.750000; 2.85124E-4
849.609375; 3.01912E-4
855.468750; 3.47579E-4
861.328125; 3.84792E-4
867.187500; 4.26691E-4
873.046875; 5.22792E-4
878.906250; 5.31581E-4
884.765625; 6.85400E-4
890.625000; 7.42084E-4
896.484375; 8.98635E-4
902.343750; 1.09401E-3
908.203125; 1.26502E-3
914.062500; 1.56955E-3
919.921875; 1.93155E-3
925.781250; 2.43556E-3
931.640625; 3.10824E-3
937.500000; 4.08004E-3
943.359375; 5.48876E-3
949.218750; 7.63239E-3
955.078125; 1.11025E-2
960.937500; 1.69033E-2
966.796875; 2.78494E-2
972.656250; 5.05769E-2
978.515625; 1.07486E-1
984.375000; 3.01031E-1
990.234375; 1.65553E0
996.093750; 1.32443E1
1001.953125; 1.65554E1
1007.812500; 4.73012E0
1013.671875; 4.73003E-1
1019.531250; 1.45543E-1
1025.390625; 6.36722E-2
1031.250000; 3.35081E-2
1037.109375; 1.98095E-2
1042.968750; 1.26769E-2
1048.828125; 8.61428E-3
1054.687500; 6.07957E-3
1060.546875; 4.48989E-3
1066.406250; 3.40588E-3
1072.265625; 2.63668E-3
1078.125000; 2.08542E-3
1083.984375; 1.67217E-3
1089.843750; 1.37999E-3
1095.703125; 1.12675E-3
1101.562500; 9.47494E-4
1107.421875; 8.17750E-4
1113.281250; 6.85612E-4
1119.140625; 5.92383E-4
1125.000000; 5.29409E-4
1130.859375; 4.46649E-4
1136.718750; 4.04609E-4
1142.578125; 3.43781E-4
1148.437500; 3.43127E-4
1154.296875; 2.80087E-4
1160.156250; 2.67614E-4
1166.015625; 2.36620E-4
1171.875000; 2.30980E-4
1177.734375; 1.87795E-4
1183.593750; 2.01217E-4
1189.453125; 1.75806E-4
1195.312500; 1.53148E-4
1201.171875; 1.57276E-4
1207.031250; 1.47847E-4
1212.890625; 1.33199E-4
1218.750000; 1.47322E-4
1224.609375; 1.40752E-4
1230.468750; 1.50654E-4
1236.328125; 1.31211E-4
1242.187500; 1.38385E-4
1248.046875; 1.10342E-4
1253.906250; 1.32020E-4
1259.765625; 1.15172E-4
1265.625000; 1.23704E-4
1271.484375; 1.33184E-4
1277.343750; 1.14838E-4
1283.203125; 1.21030E-4
1289.062500; 1.13392E-4
1294.921875; 1.06677E-4
1300.781250; 1.08559E-4
1306.640625; 1.07518E-4
1312.500000; 1.18532E-4
1318.359375; 1.23594E-4
1324.218750; 1.15848E-4
1330.078125; 1.05134E-4
1335.937500; 9.71892E-5
1341.796875; 1.15949E-4
1347.656250; 1.02853E-4
1353.515625; 1.10591E-4
1359.375000; 1.19820E-4
1365.234375; 1.20767E-4
1371.093750; 1.21134E-4
1376.953125; 1.06953E-4
1382.812500; 1.02161E-4
1388.671875; 1.07086E-4
1394.531250; 1.07813E-4
1400.390625; 1.05652E-4
1406.250000; 1.22545E-4
1412.109375; 1.18702E-4
1417.968750; 1.30772E-4
1423.828125; 1.23397E-4
1429.687500; 1.00669E-4
1435.546875; 1.15902E-4
1441.406250; 1.11821E-4
1447.265625; 1.14296E-4
1453.125000; 1.09469E-4
1458.984375; 1.09883E-4
1464.843750; 1.16939E-4
1470.703125; 1.09618E-4
1476.562500; 1.22339E-4
1482.421875; 1.07445E-4
1488.281250; 1.00520E-4
1494.140625; 1.01989E-4
1500.000000; 9.82648E-5
1505.859375; 1.05678E-4
1511.718750; 8.77021E-5
1517.578125; 9.02429E-5
1523.437500; 1.11640E-4
1529.296875; 1.02274E-4
1535.156250; 9.67041E-5
1541.015625; 9.93377E-5
1546.875000; 9.91385E-5
1552.734375; 1.12854E-4
1558.593750; 1.08877E-4
1564.453125; 1.14944E-4
1570.312500; 1.26728E-4
1576.171875; 1.07902E-4
1582.031250; 1.03536E-4
1587.890625; 1.01333E-4
1593.750000; 1.08492E-4
1599.609375; 1.19580E-4
1605.468750; 1.18736E-4
1611.328125; 1.13848E-4
1617.187500; 1.04791E-4
1623.046875; 1.00102E-4
1628.906250; 9.13530E-5
1634.765625; 1.02092E-4
1640.625000; 1.15021E-4
1646.484375; 1.12217E-4
1652.343750; 1.08508E-4
1658.203125; 9.48016E-5
1664.062500; 9.89695E-5
1669.921875; 1.09276E-4
1675.781250; 9.86724E-5
1681.640625; 1.00368E-4
1687.500000; 9.46737E-5
1693.359375; 1.07331E-4
1699.218750; 1.20054E-4
1705.078125; 1.24033E-4
1710.937500; 1.03238E-4
1716.796875; 9.33720E-5
1722.656250; 1.00708E-4
1728.515625; 1.04046E-4
1734.375000; 1.08380E-4
1740.234375; 1.17889E-4
1746.093750; 1.29410E-4
1751.953125; 1.18074E-4
1757.812500; 1.08223E-4
1763.671875; 1.09872E-4
1769.531250; 1.18134E-4
1775.390625; 1.14735E-4
1781.250000; 1.18370E-4
1787.109375; 1.08694E-4
1792.968750; 1.11944E-4
1798.828125; 1.24870E-4
1804.687500; 1.18047E-4
1810.546875; 1.14948E-4
1816.406250; 1.09108E-4
1822.265625; 9.54997E-5
1828.125000; 1.07593E-4
1833.984375; 1.21523E-4
1839.843750; 1.18819E-4
1845.703125; 1.11293E-4
1851.562500; 1.25462E-4
1857.421875; 1.21642E-4
1863.281250; 1.03386E-4
1869.140625; 1.02461E-4
1875.000000; 1.07517E-4
1880.859375; 1.07328E-4
1886.718750; 9.62978E-5
1892.578125; 1.06900E-4
1898.437500; 9.33474E-5
1904.296875; 8.73606E-5
1910.156250; 1.01331E-4
1916.015625; 1.13470E-4
1921.875000; 1.05833E-4
1927.734375; 1.13262E-4
1933.593750; 9.61015E-5
1939.453125; 1.00462E-4
1945.312500; 9.69602E-5
1951.171875; 1.12120E-4
1957.031250; 1.09500E-4
1962.890625; 9.82415E-5
1968.750000; 1.10187E-4
1974.609375; 1.19304E-4
1980.468750; 1.17653E-4
1986.328125; 1.33270E-4
1992.187500; 8.44731E-4
1998.046875; 2.93476E-3
2003.906250; 2.36174E-3
2009.765625; 3.23665E-4
2015.625000; 1.16987E-4
2021.484375; 1.06304E-4
2027.343750; 9.45330E-5
2033.203125; 9.30282E-5
2039.062500; 1.11620E-4
2044.921875; 1.16934E-4
2050.781250; 1.34835E-4
2056.640625; 1.30976E-4
2062.500000; 9.70970E-5
2068.359375; 9.95840E-5
2074.218750; 1.07328E-4
2080.078125; 1.07264E-4
2085.937500; 1.07312E-4
2091.796875; 1.08166E-4
2097.656250; 1.20082E-4
2103.515625; 1.01423E-4
2109.375000; 8.41527E-5
2115.234375; 1.00506E-4
2121.093750; 1.08746E-4
2126.953125; 9.89128E-5
2132.812500; 1.16619E-4
2138.671875; 1.14622E-4
2144.531250; 8.94725E-5
2150.390625; 9.24446E-5
2156.250000; 9.74134E-5
2162.109375; 1.04715E-4
2167.968750; 1.09861E-4
2173.828125; 1.10441E-4
2179.687500; 1.11322E-4
2185.546875; 1.26865E-4
2191.406250; 1.23797E-4
2197.265625; 1.06864E-4
2203.125000; 1.03626E-4
2208.984375; 1.15374E-4
2214.843750; 1.08140E-4
2220.703125; 9.43602E-5
2226.562500; 8.93036E-5
2232.421875; 9.36542E-5
2238.281250; 1.01177E-4
2244.140625; 1.15978E-4
2250.000000; 1.10557E-4
2255.859375; 1.06672E-4
2261.718750; 1.08343E-4
2267.578125; 1.07793E-4
2273.437500; 1.07054E-4
2279.296875; 9.69577E-5
2285.156250; 1.07971E-4
2291.015625; 1.19955E-4
2296.875000; 1.00617E-4
2302.734375; 1.00007E-4
2308.593750; 1.11602E-4
2314.453125; 1.13640E-4
2320.312500; 9.87576E-5
2326.171875; 1.02413E-4
2332.031250; 1.14031E-4
2337.890625; 1.18098E-4
2343.750000; 1.10952E-4
2349.609375; 9.24525E-5
2355.468750; 9.06223E-5
2361.328125; 1.04711E-4
2367.187500; 1.10957E-4
2373.046875; 1.27889E-4
2378.906250; 1.14170E-4
2384.765625; 1.06073E-4
2390.625000; 1.06651E-4
2396.484375; 1.10768E-4
2402.343750; 1.07467E-4
2408.203125; 1.15840E-4
2414.062500; 1.23464E-4
2419.921875; 1.11577E-4
2425.781250; 1.25585E-4
2431.640625; 1.23419E-4
2437.500000; 1.00011E-4
2443.359375; 9.77244E-5
2449.218750; 1.17143E-4
2455.078125; 1.05893E-4
2460.937500; 1.17956E-4
2466.796875; 1.15157E-4
2472.656250; 1.10853E-4
2478.515625; 9.88312E-5
2484.375000; 1.17021E-4
2490.234375; 1.14520E-4
2496.093750; 9.39729E-5
2501.953125; 9.88373E-5
2507.812500; 1.06590E-4
2513.671875; 1.09996E-4
2519.531250; 1.16686E-4
2525.390625; 1.08493E-4
2531.250000; 1.14650E-4
2537.109375; 1.06571E-4
2542.968750; 1.14549E-4
2548.828125; 1.09799E-4
2554.687500; 1.05641E-4
2560.546875; 1.17559E-4
2566.406250; 1.07169E-4
2572.265625; 1.07406E-4
2578.125000; 1.01986E-4
2583.984375; 1.01906E-4
2589.843750; 9.53624E-5
2595.703125; 9.44706E-5
2601.562500; 1.04938E-4
2607.421875; 1.02346E-4
2613.281250; 1.16550E-4
2619.140625; 1.21954E-4
2625.000000; 1.11842E-4
2630.859375; 1.09347E-4
2636.718750; 1.07219E-4
2642.578125; 9.69198E-5
2648.437500; 1.09602E-4
2654.296875; 1.13246E-4
2660.156250; 1.08809E-4
2666.015625; 1.16568E-4
2671.875000; 1.01760E-4
2677.734375; 1.05702E-4
2683.593750; 1.17380E-4
2689.453125; 1.12535E-4
2695.312500; 1.05224E-4
2701.171875; 1.06760E-4
2707.031250; 1.01345E-4
2712.890625; 1.03561E-4
2718.750000; 1.23362E-4
2724.609375; 1.21609E-4
2730.468750; 1.04905E-4
2736.328125; 1.15270E-4
2742.187500; 1.14578E-4
2748.046875; 1.14054E-4
2753.906250; 1.15102E-4
2759.765625; 1.05482E-4
2765.625000; 1.15101E-4
2771.484375; 1.12740E-4
2777.343750; 1.18560E-4
2783.203125; 1.23344E-4
2789.062500; 1.29066E-4
2794.921875; 1.24192E-4
2800.781250; 1.16548E-4
2806.640625; 1.15069E-4
2812.500000; 1.02696E-4
2818.359375; 1.03015E-4
2824.218750; 1.17681E-4
2830.078125; 1.25055E-4
2835.937500; 1.05773E-4
2841.796875; 1.03629E-4
2847.656250; 1.18099E-4
2853.515625; 1.26651E-4
2859.375000; 1.09962E-4
2865.234375; 1.07125E-4
2871.093750; 1.12576E-4
2876.953125; 1.10184E-4
2882.812500; 1.11792E-4
2888.671875; 1.18484E-4
2894.531250; 1.24178E-4
2900.390625; 1.20889E-4
2906.250000; 1.10720E-4
2912.109375; 1.02441E-4
2917.968750; 1.07654E-4
2923.828125; 1.15581E-4
2929.687500; 1.11816E-4
2935.546875; 1.13181E-4
2941.406250; 1.24123E-4
2947.265625; 1.19212E-4
2953.125000; 1.02779E-4
2958.984375; 1.00944E-4
2964.843750; 9.59886E-5
2970.703125; 1.11944E-4
2976.562500; 1.16057E-4
2982.421875; 1.14413E-4
2988.281250; 1.17883E-4
2994.140625; 1.81280E-4
3000.000000; 2.87769E-4
3005.859375; 1.64127E-4
3011.718750; 1.15909E-4
3017.578125; 1.03062E-4
3023.437500; 1.01544E-4
3029.296875; 1.07018E-4
3035.156250; 1.09420E-4
3041.015625; 1.21798E-4
3046.875000; 1.21505E-4
3052.734375; 1.09835E-4
3058.593750; 9.89931E-5
3064.453125; 8.95046E-5
3070.312500; 8.17561E-5
3076.171875; 1.06724E-4
3082.031250; 1.10962E-4
3087.890625; 9.97332E-5
3093.750000; 1.07272E-4
3099.609375; 1.06174E-4
3105.468750; 1.00933E-4
3111.328125; 9.56499E-5
3117.187500; 1.01488E-4
3123.046875; 1.23993E-4
3128.906250; 1.26228E-4
3134.765625; 1.27200E-4
3140.625000; 1.12975E-4
3146.484375; 1.12232E-4
3152.343750; 1.23636E-4
3158.203125; 9.92550E-5
3164.062500; 1.16656E-4
3169.921875; 1.07991E-4
3175.781250; 1.05562E-4
3181.640625; 1.09335E-4
3187.500000; 1.08267E-4
3193.359375; 1.07949E-4
3199.218750; 1.12428E-4
3205.078125; 1.04661E-4
3210.937500; 9.69278E-5
3216.796875; 9.92546E-5
3222.656250; 9.38187E-5
3228.515625; 1.01017E-4
3234.375000; 9.91195E-5
3240.234375; 8.80930E-5
3246.093750; 1.18064E-4
3251.953125; 1.25164E-4
3257.812500; 1.18945E-4
3263.671875; 1.24711E-4
3269.531250; 1.17620E-4
3275.390625; 1.00692E-4
3281.250000; 1.09345E-4
3287.109375; 1.20749E-4
3292.968750; 1.28609E-4
3298.828125; 1.19720E-4
3304.687500; 1.09731E-4
3310.546875; 1.27400E-4
3316.406250; 1.07541E-4
3322.265625; 1.04362E-4
3328.125000; 1.04766E-4
3333.984375; 1.07678E-4
3339.843750; 1.13186E-4
3345.703125; 1.03958E-4
3351.562500; 1.02987E-4
3357.421875; 1.06559E-4
3363.281250; 1.16312E-4
3369.140625; 1.13339E-4
3375.000000; 1.06854E-4
3380.859375; 1.03481E-4
3386.718750; 1.10870E-4
3392.578125; 1.14223E-4
3398.437500; 1.03508E-4
3404.296875; 9.22283E-5
3410.156250; 1.12418E-4
3416.015625; 1.13116E-4
3421.875000; 1.03162E-4
3427.734375; 1.13544E-4
3433.593750; 1.14093E-4
3439.453125; 9.60785E-5
3445.312500; 1.02266E-4
3451.171875; 1.16562E-4
3457.031250; 1.02900E-4
3462.890625; 1.04780E-4
3468.750000; 1.08331E-4
3474.609375; 1.19467E-4
3480.468750; 1.16113E-4
3486.328125; 1.06381E-4
3492.187500; 1.07720E-4
3498.046875; 1.11105E-4
3503.906250; 1.03632E-4
3509.765625; 9.92080E-5
3515.625000; 8.87613E-5
3521.484375; 1.05868E-4
3527.343750; 1.09966E-4
3533.203125; 1.00804E-4
3539.062500; 1.04064E-4
3544.921875; 1.16428E-4
3550.781250; 1.04333E-4
3556.640625; 9.79800E-5
3562.500000; 9.30344E-5
3568.359375; 1.01200E-4
3574.218750; 1.04383E-4
3580.078125; 1.12714E-4
3585.937500; 1.22105E-4
3591.796875; 1.26801E-4
3597.656250; 1.12472E-4
3603.515625; 1.11173E-4
3609.375000; 1.06436E-4
3615.234375; 1.03032E-4
3621.093750; 1.06539E-4
3626.953125; 1.19770E-4
3632.812500; 1.19194E-4
3638.671875; 1.20366E-4
3644.531250; 1.10481E-4
3650.390625; 1.04058E-4
3656.250000; 8.99479E-5
3662.109375; 1.03340E-4
3667.968750; 1.15400E-4
3673.828125; 1.07152E-4
3679.687500; 1.09592E-4
3685.546875; 9.80375E-5
3691.406250; 9.39324E-5
3697.265625; 9.89519E-5
3703.125000; 9.93719E-5
3708.984375; 1.05821E-4
3714.843750; 1.05745E-4
3720.703125; 1.11174E-4
3726.562500; 1.11161E-4
3732.421875; 1.13710E-4
3738.281250; 1.05710E-4
3744.140625; 1.06249E-4
3750.000000; 1.03389E-4
3755.859375; 1.04349E-4
3761.718750; 1.04292E-4
3767.578125; 1.12225E-4
3773.437500; 1.19985E-4
3779.296875; 1.07345E-4
3785.156250; 9.54048E-5
3791.015625; 1.01242E-4
3796.875000; 1.03992E-4
3802.734375; 1.18430E-4
3808.593750; 1.13237E-4
3814.453125; 1.05771E-4
3820.312500; 1.12382E-4
3826.171875; 1.28473E-4
3832.031250; 1.29646E-4
3837.890625; 1.19032E-4
3843.750000; 1.02397E-4
3849.609375; 9.13728E-5
3855.468750; 1.03556E-4
3861.328125; 1.04042E-4
3867.187500; 9.79442E-5
3873.046875; 1.11049E-4
3878.906250; 1.11526E-4
3884.765625; 1.13996E-4
3890.625000; 1.09696E-4
3896.484375; 1.04962E-4
3902.343750; 9.57202E-5
3908.203125; 1.00178E-4
3914.062500; 1.01711E-4
3919.921875; 9.71064E-5
3925.781250; 1.05696E-4
3931.640625; 1.04522E-4
3937.500000; 9.94962E-5
3943.359375; 1.17431E-4
3949.218750; 9.81842E-5
3955.078125; 9.69727E-5
3960.937500; 1.03890E-4
3966.796875; 1.09472E-4
3972.656250; 9.59790E-5
3978.515625; 9.78636E-5
3984.375000; 1.09380E-4
3990.234375; 1.01874E-4
3996.093750; 1.72670E-4
4001.953125; 1.97121E-4
4007.812500; 1.05523E-4
4013.671875; 9.44749E-5
4019.531250; 1.06322E-4
4025.390625; 1.01672E-4
4031.250000; 1.07352E-4
4037.109375; 1.12244E-4
4042.968750; 1.10647E-4
4048.828125; 1.13131E-4
4054.687500; 1.12267E-4
4060.546875; 1.09352E-4
4066.406250; 1.07625E-4
4072.265625; 1.03120E-4
4078.125000; 1.06300E-4
4083.984375; 1.17137E-4
4089.843750; 1.22006E-4
4095.703125; 1.12218E-4
4101.562500; 1.01078E-4
4107.421875; 9.78320E-5
4113.281250; 9.64158E-5
4119.140625; 9.30911E-5
4125.000000; 1.06796E-4
4130.859375; 1.03719E-4
4136.718750; 1.08085E-4
4142.578125; 1.02762E-4
4148.437500; 1.11969E-4
4154.296875; 1.17179E-4
4160.156250; 1.14578E-4
4166.015625; 9.92603E-5
4171.875000; 9.62265E-5
4177.734375; 9.18328E-5
4183.593750; 1.07460E-4
4189.453125; 1.08776E-4
4195.312500; 1.22033E-4
4201.171875; 9.46921E-5
4207.031250; 9.17726E-5
4212.890625; 1.07878E-4
4218.750000; 1.15202E-4
4224.609375; 1.25098E-4
4230.468750; 1.20672E-4
4236.328125; 9.96123E-5
4242.187500; 1.01561E-4
4248.046875; 1.15354E-4
4253.906250; 1.03297E-4
4259.765625; 1.02514E-4
4265.625000; 1.10375E-4
4271.484375; 1.19086E-4
4277.343750; 1.18112E-4
4283.203125; 1.22023E-4
4289.062500; 1.17075E-4
4294.921875; 1.08987E-4
4300.781250; 1.06563E-4
4306.640625; 1.09300E-4
4312.500000; 1.09631E-4
4318.359375; 1.14720E-4
4324.218750; 1.10632E-4
4330.078125; 1.15195E-4
4335.937500; 1.08449E-4
4341.796875; 7.84082E-5
4347.656250; 8.92172E-5
4353.515625; 1.01706E-4
4359.375000; 8.88406E-5
4365.234375; 1.14626E-4
4371.093750; 1.15621E-4
4376.953125; 1.18893E-4
4382.812500; 1.09636E-4
4388.671875; 1.13112E-4
4394.531250; 1.05143E-4
4400.390625; 9.68104E-5
4406.250000; 1.00992E-4
4412.109375; 1.10698E-4
4417.968750; 1.09719E-4
4423.828125; 1.00954E-4
4429.687500; 1.05728E-4
4435.546875; 1.08164E-4
4441.406250; 1.01303E-4
4447.265625; 1.15686E-4
4453.125000; 1.20405E-4
4458.984375; 1.06938E-4
4464.843750; 1.13554E-4
4470.703125; 1.10109E-4
4476.562500; 9.18713E-5
4482.421875; 9.54912E-5
4488.281250; 1.01287E-4
4494.140625; 1.04583E-4
4500.000000; 1.03888E-4
4505.859375; 1.19650E-4
4511.718750; 1.10455E-4
4517.578125; 1.06928E-4
4523.437500; 1.04339E-4
4529.296875; 1.15702E-4
4535.156250; 1.27242E-4
4541.015625; 1.21330E-4
4546.875000; 1.12627E-4
4552.734375; 1.00125E-4
4558.593750; 1.14718E-4
4564.453125; 1.26484E-4
4570.312500; 1.29505E-4
4576.171875; 1.17511E-4
4582.031250; 1.11392E-4
4587.890625; 1.17348E-4
4593.750000; 1.16323E-4
4599.609375; 1.02464E-4
4605.468750; 1.09764E-4
4611.328125; 1.22658E-4
4617.187500; 1.14014E-4
4623.046875; 1.02586E-4
4628.906250; 8.60219E-5
4634.765625; 9.61180E-5
4640.625000; 9.57781E-5
4646.484375; 9.86803E-5
4652.343750; 1.00758E-4
4658.203125; 1.10109E-4
4664.062500; 1.05713E-4
4669.921875; 1.03216E-4
4675.781250; 9.60416E-5
4681.640625; 1.03695E-4
4687.500000; 1.10594E-4
4693.359375; 1.06125E-4
4699.218750; 1.02637E-4
4705.078125; 9.08092E-5
4710.937500; 1.04285E-4
4716.796875; 1.12908E-4
4722.656250; 1.11860E-4
4728.515625; 1.06631E-4
4734.375000; 9.72839E-5
4740.234375; 9.72859E-5
4746.093750; 1.06798E-4
4751.953125; 9.80983E-5
4757.812500; 9.86105E-5
4763.671875; 1.06451E-4
4769.531250; 1.12249E-4
4775.390625; 1.16680E-4
4781.250000; 1.04174E-4
4787.109375; 9.48128E-5
4792.968750; 1.03193E-4
4798.828125; 9.91027E-5
4804.687500; 1.09876E-4
4810.546875; 1.02239E-4
4816.406250; 1.03865E-4
4822.265625; 1.09857E-4
4828.125000; 1.14787E-4
4833.984375; 1.18872E-4
4839.843750; 1.08096E-4
4845.703125; 1.03986E-4
4851.562500; 1.04499E-4
4857.421875; 9.22120E-5
4863.281250; 9.68164E-5
4869.140625; 9.97527E-5
4875.000000; 1.15948E-4
4880.859375; 1.13859E-4
4886.718750; 1.04987E-4
4892.578125; 1.04107E-4
4898.437500; 9.80946E-5
4904.296875; 1.03803E-4
4910.156250; 1.26464E-4
4916.015625; 1.05604E-4
4921.875000; 9.67039E-5
4927.734375; 1.03187E-4
4933.593750; 1.17001E-4
4939.453125; 1.14004E-4
4945.312500; 1.09521E-4
4951.171875; 1.01098E-4
4957.031250; 1.13169E-4
4962.890625; 1.26370E-4
4968.750000; 1.19277E-4
4974.609375; 9.84814E-5
4980.468750; 9.73484E-5
4986.328125; 1.06851E-4
4992.187500; 1.16577E-4
4998.046875; 1.18826E-4
5003.906250; 1.15877E-4
5009.765625; 1.16819E-4
5015.625000; 1.10974E-4
5021.484375; 9.90228E-5
5027.343750; 9.28728E-5
5033.203125; 1.17151E-4
5039.062500; 1.23160E-4
5044.921875; 1.14803E-4
5050.781250; 1.06624E-4
5056.640625; 1.19977E-4
5062.500000; 1.16682E-4
5068.359375; 9.90218E-5
5074.218750; 9.54465E-5
5080.078125; 1.02751E-4
5085.937500; 9.78884E-5
5091.796875; 1.12162E-4
5097.656250; 1.12757E-4
5103.515625; 1.03995E-4
5109.375000; 1.06119E-4
5115.234375; 1.04361E-4
5121.093750; 9.98061E-5
5126.953125; 1.11658E-4
5132.812500; 1.23560E-4
5138.671875; 1.15175E-4
5144.531250; 1.20132E-4
5150.390625; 1.13099E-4
5156.250000; 1.01466E-4
5162.109375; 9.59984E-5
5167.968750; 1.04293E-4
5173.828125; 1.05028E-4
5179.687500; 9.62647E-5
5185.546875; 1.02690E-4
5191.406250; 1.07002E-4
5197.265625; 1.07748E-4
5203.125000; 1.13957E-4
5208.984375; 1.08178E-4
5214.843750; 1.16663E-4
5220.703125; 1.12095E-4
5226.562500; 1.08443E-4
5232.421875; 1.12337E-4
5238.281250; 1.20787E-4
5244.140625; 1.15068E-4
5250.000000; 1.21369E-4
5255.859375; 1.13304E-4
5261.718750; 1.08025E-4
5267.578125; 1.11271E-4
5273.437500; 1.13218E-4
5279.296875; 1.21661E-4
5285.156250; 1.16603E-4
5291.015625; 9.95099E-5
5296.875000; 9.86564E-5
5302.734375; 1.11853E-4
5308.593750; 1.08299E-4
5314.453125; 1.13964E-4
5320.312500; 1.18605E-4
5326.171875; 1.08073E-4
5332.031250; 1.08299E-4
5337.890625; 1.03486E-4
5343.750000; 1.06838E-4
5349.609375; 1.11467E-4
5355.468750; 1.03748E-4
5361.328125; 1.13498E-4
5367.187500; 1.21723E-4
5373.046875; 1.11552E-4
5378.906250; 1.13875E-4
5384.765625; 1.01319E-4
5390.625000; 9.04475E-5
5396.484375; 9.30275E-5
5402.343750; 1.19099E-4
5408.203125; 1.33801E-4
5414.062500; 1.03951E-4
5419.921875; 9.59487E-5
5425.781250; 1.05184E-4
5431.640625; 1.04852E-4
5437.500000; 1.04483E-4
5443.359375; 1.19773E-4
5449.218750; 1.19946E-4
5455.078125; 1.03886E-4
5460.937500; 1.12336E-4
5466.796875; 1.12558E-4
5472.656250; 1.06448E-4
5478.515625; 1.13928E-4
5484.375000; 1.16356E-4
5490.234375; 1.11438E-4
5496.093750; 1.10495E-4
5501.953125; 1.06379E-4
5507.812500; 1.11092E-4
5513.671875; 1.17834E-4
5519.531250; 1.08483E-4
5525.390625; 1.02736E-4
5531.250000; 1.04256E-4
5537.109375; 1.16889E-4
5542.968750; 1.18167E-4
5548.828125; 1.29768E-4
5554.687500; 1.15284E-4
5560.546875; 9.78153E-5
5566.406250; 1.06351E-4
5572.265625; 1.07363E-4
5578.125000; 1.03024E-4
5583.984375; 9.58471E-5
5589.843750; 1.18699E-4
5595.703125; 1.15040E-4
5601.562500; 1.09793E-4
5607.421875; 9.66822E-5
5613.281250; 1.05990E-4
5619.140625; 1.05631E-4
5625.000000; 1.04038E-4
5630.859375; 1.19195E-4
5636.718750; 1.24107E-4
5642.578125; 1.22101E-4
5648.437500; 1.10514E-4
5654.296875; 1.07905E-4
5660.156250; 1.15772E-4
5666.015625; 1.06922E-4
5671.875000; 1.02189E-4
5677.734375; 9.97523E-5
5683.593750; 1.01751E-4
5689.453125; 1.20898E-4
5695.312500; 1.08029E-4
5701.171875; 1.09446E-4
5707.031250; 1.15044E-4
5712.890625; 1.20548E-4
5718.750000; 1.23878E-4
5724.609375; 1.08201E-4
5730.468750; 1.08257E-4
5736.328125; 1.03358E-4
5742.187500; 1.03653E-4
5748.046875; 1.09488E-4
5753.906250; 1.14340E-4
5759.765625; 1.08635E-4
5765.625000; 1.03384E-4
5771.484375; 9.49585E-5
5777.343750; 1.13825E-4
5783.203125; 1.08082E-4
5789.062500; 9.38849E-5
5794.921875; 1.02280E-4
5800.781250; 1.14373E-4
5806.640625; 1.17114E-4
5812.500000; 1.08971E-4
5818.359375; 9.26490E-5
5824.218750; 9.68938E-5
5830.078125; 1.02285E-4
5835.937500; 1.12240E-4
5841.796875; 1.06681E-4
5847.656250; 1.05354E-4
5853.515625; 1.11954E-4
5859.375000; 1.07408E-4
5865.234375; 1.14197E-4
5871.093750; 1.02037E-4
5876.953125; 1.02707E-4
5882.812500; 1.01611E-4
5888.671875; 1.01767E-4
5894.531250; 9.74605E-5
5900.390625; 9.97916E-5
5906.250000; 9.83206E-5
5912.109375; 1.00311E-4
5917.968750; 9.75615E-5
5923.828125; 1.02863E-4
5929.687500; 1.03868E-4
5935.546875; 1.12736E-4
5941.406250; 1.11198E-4
5947.265625; 1.16215E-4
5953.125000; 1.19364E-4
5958.984375; 1.11771E-4
5964.843750; 1.04403E-4
5970.703125; 9.44966E-5
5976.562500; 8.37533E-5
5982.421875; 9.00856E-5
5988.281250; 1.02447E-4
5994.140625; 1.02736E-4
6000.000000; 8.83632E-5
6005.859375; 9.64052E-5
6011.718750; 9.06189E-5
6017.578125; 1.07211E-4
6023.437500; 1.22404E-4
6029.296875; 9.97234E-5
6035.156250; 1.04295E-4
6041.015625; 1.14434E-4
6046.875000; 1.12187E-4
6052.734375; 1.05744E-4
6058.593750; 1.33090E-4
6064.453125; 1.25437E-4
6070.312500; 1.09993E-4
6076.171875; 9.44479E-5
6082.031250; 1.16926E-4
6087.890625; 1.23534E-4
6093.750000; 1.04447E-4
6099.609375; 1.01804E-4
6105.468750; 9.77856E-5
6111.328125; 1.07534E-4
6117.187500; 1.34680E-4
6123.046875; 1.25237E-4
6128.906250; 1.02909E-4
6134.765625; 1.03638E-4
6140.625000; 1.18959E-4
6146.484375; 1.14431E-4
6152.343750; 1.16964E-4
6158.203125; 1.02702E-4
6164.062500; 9.58545E-5
6169.921875; 1.06515E-4
6175.781250; 1.21390E-4
6181.640625; 1.07175E-4
6187.500000; 9.75392E-5
6193.359375; 1.08136E-4
6199.218750; 1.08615E-4
6205.078125; 1.19473E-4
6210.937500; 1.08228E-4
6216.796875; 8.77083E-5
6222.656250; 9.61427E-5
6228.515625; 1.09146E-4
6234.375000; 1.05348E-4
6240.234375; 8.44142E-5
6246.093750; 9.99706E-5
6251.953125; 1.00534E-4
6257.812500; 1.05545E-4
6263.671875; 1.10222E-4
6269.531250; 1.10236E-4
6275.390625; 1.05472E-4
6281.250000; 1.12739E-4
6287.109375; 1.08991E-4
6292.968750; 1.08189E-4
6298.828125; 1.04169E-4
6304.687500; 1.09439E-4
6310.546875; 1.20251E-4
6316.406250; 1.17166E-4
6322.265625; 1.24512E-4
6328.125000; 1.16878E-4
6333.984375; 1.21638E-4
6339.843750; 1.08877E-4
6345.703125; 1.01343E-4
6351.562500; 1.03137E-4
6357.421875; 9.38633E-5
6363.281250; 9.70894E-5
6369.140625; 9.74332E-5
6375.000000; 1.10673E-4
6380.859375; 1.04474E-4
6386.718750; 9.69005E-5
6392.578125; 9.66822E-5
6398.437500; 1.01988E-4
6404.296875; 1.12057E-4
6410.156250; 1.11953E-4
6416.015625; 1.01674E-4
6421.875000; 9.68161E-5
6427.734375; 1.02057E-4
6433.593750; 1.08673E-4
6439.453125; 1.06301E-4
6445.312500; 1.14866E-4
6451.171875; 1.14728E-4
6457.031250; 1.05130E-4
6462.890625; 1.09655E-4
6468.750000; 1.01249E-4
6474.609375; 1.06089E-4
6480.468750; 9.56357E-5
6486.328125; 8.39089E-5
6492.187500; 9.36112E-5
6498.046875; 1.13074E-4
6503.906250; 1.10433E-4
6509.765625; 1.08393E-4
6515.625000; 1.07199E-4
6521.484375; 1.01207E-4
6527.343750; 1.01872E-4
6533.203125; 1.13025E-4
6539.062500; 1.19294E-4
6544.921875; 1.07768E-4
6550.781250; 1.03841E-4
6556.640625; 9.73130E-5
6562.500000; 1.08681E-4
6568.359375; 1.01707E-4
6574.218750; 1.04095E-4
6580.078125; 1.09892E-4
6585.937500; 1.05067E-4
6591.796875; 1.01086E-4
6597.656250; 1.04853E-4
6603.515625; 1.16424E-4
6609.375000; 1.25866E-4
6615.234375; 1.32452E-4
6621.093750; 1.21119E-4
6626.953125; 1.04677E-4
6632.812500; 1.17013E-4
6638.671875; 9.98783E-5
6644.531250; 9.26869E-5
6650.390625; 9.51646E-5
6656.250000; 9.84644E-5
6662.109375; 9.39736E-5
6667.968750; 7.91300E-5
6673.828125; 9.98653E-5
6679.687500; 1.18175E-4
6685.546875; 1.13354E-4
6691.406250; 1.18253E-4
6697.265625; 1.04308E-4
6703.125000; 1.04828E-4
6708.984375; 1.17035E-4
6714.843750; 1.16259E-4
6720.703125; 1.12732E-4
6726.562500; 1.12124E-4
6732.421875; 1.28076E-4
6738.281250; 1.29318E-4
6744.140625; 1.13685E-4
6750.000000; 1.00947E-4
6755.859375; 9.95695E-5
6761.718750; 9.37075E-5
6767.578125; 1.11780E-4
6773.437500; 1.20549E-4
6779.296875; 1.25666E-4
6785.156250; 1.17728E-4
6791.015625; 1.01597E-4
6796.875000; 1.11160E-4
6802.734375; 1.26935E-4
6808.593750; 1.17429E-4
6814.453125; 1.15860E-4
6820.312500; 1.12359E-4
6826.171875; 1.09524E-4
6832.031250; 1.20216E-4
6837.890625; 1.10081E-4
6843.750000; 1.02694E-4
6849.609375; 1.12280E-4
6855.468750; 1.12519E-4
6861.328125; 1.02525E-4
6867.187500; 1.08534E-4
6873.046875; 1.21818E-4
6878.906250; 1.12725E-4
6884.765625; 1.09465E-4
6890.625000; 1.12430E-4
6896.484375; 1.04982E-4
6902.343750; 1.07828E-4
6908.203125; 1.00931E-4
6914.062500; 1.08395E-4
6919.921875; 1.06948E-4
6925.781250; 1.14269E-4
6931.640625; 1.03951E-4
6937.500000; 9.36373E-5
6943.359375; 1.07192E-4
6949.218750; 1.24656E-4
6955.078125; 1.27766E-4
6960.937500; 1.10378E-4
6966.796875; 1.00720E-4
6972.656250; 1.20343E-4
6978.515625; 1.09120E-4
6984.375000; 1.05055E-4
6990.234375; 1.06786E-4
6996.093750; 1.07123E-4
7001.953125; 1.03528E-4
7007.812500; 9.40071E-5
7013.671875; 1.03014E-4
7019.531250; 9.77173E-5
7025.390625; 9.91653E-5
7031.250000; 9.48334E-5
7037.109375; 1.03035E-4
7042.968750; 1.08868E-4
7048.828125; 1.09568E-4
7054.687500; 1.20206E-4
7060.546875; 1.14083E-4
7066.406250; 1.17481E-4
7072.265625; 1.02914E-4
7078.125000; 1.08865E-4
7083.984375; 1.17113E-4
7089.843750; 1.00733E-4
7095.703125; 1.10416E-4
7101.562500; 1.07125E-4
7107.421875; 1.05197E-4
7113.281250; 1.09830E-4
7119.140625; 1.06735E-4
7125.000000; 1.13138E-4
7130.859375; 1.17018E-4
7136.718750; 1.00856E-4
7142.578125; 1.00419E-4
7148.437500; 1.08027E-4
7154.296875; 1.03015E-4
7160.156250; 1.15343E-4
7166.015625; 1.13264E-4
7171.875000; 9.74930E-5
7177.734375; 9.97510E-5
7183.593750; 1.10129E-4
7189.453125; 9.62279E-5
7195.312500; 1.03911E-4
7201.171875; 1.09535E-4
7207.031250; 1.06820E-4
7212.890625; 1.07897E-4
7218.750000; 1.06318E-4
7224.609375; 1.10037E-4
7230.468750; 1.15165E-4
7236.328125; 1.15721E-4
7242.187500; 9.82713E-5
7248.046875; 1.10640E-4
7253.906250; 1.14784E-4
7259.765625; 1.11788E-4
7265.625000; 1.12181E-4
7271.484375; 1.04072E-4
7277.343750; 9.93999E-5
7283.203125; 1.05982E-4
7289.062500; 1.01199E-4
7294.921875; 1.20664E-4
7300.781250; 1.15739E-4
7306.640625; 1.16519E-4
7312.500000; 1.10198E-4
7318.359375; 1.19462E-4
7324.218750; 1.19698E-4
7330.078125; 1.14038E-4
7335.937500; 1.02760E-4
7341.796875; 1.19083E-4
7347.656250; 1.15848E-4
7353.515625; 1.04938E-4
7359.375000; 1.19665E-4
7365.234375; 1.03283E-4
7371.093750; 1.08338E-4
7376.953125; 1.12473E-4
7382.812500; 1.25452E-4
7388.671875; 1.14787E-4
7394.531250; 9.87985E-5
7400.390625; 1.04994E-4
7406.250000; 1.16583E-4
7412.109375; 1.14451E-4
7417.968750; 1.02705E-4
7423.828125; 1.00614E-4
7429.687500; 9.83044E-5
7435.546875; 1.09923E-4
7441.406250; 1.07625E-4
7447.265625; 9.39519E-5
7453.125000; 1.05044E-4
7458.984375; 1.14449E-4
7464.843750; 1.03372E-4
7470.703125; 1.07381E-4
7476.562500; 1.02648E-4
7482.421875; 1.00552E-4
7488.281250; 1.00583E-4
7494.140625; 1.20442E-4
7500.000000; 1.16343E-4
7505.859375; 1.07771E-4
7511.718750; 1.07869E-4
7517.578125; 1.04080E-4
7523.437500; 9.55009E-5
7529.296875; 9.75870E-5
7535.156250; 1.02154E-4
7541.015625; 1.05635E-4
7546.875000; 1.01985E-4
7552.734375; 1.01379E-4
7558.593750; 1.00481E-4
7564.453125; 1.11214E-4
7570.312500; 1.09379E-4
7576.171875; 1.02668E-4
7582.031250; 1.02056E-4
7587.890625; 9.53397E-5
7593.750000; 1.04212E-4
7599.609375; 1.14672E-4
7605.468750; 1.04938E-4
7611.328125; 1.03820E-4
7617.187500; 9.62930E-5
7623.046875; 1.02025E-4
7628.906250; 1.13575E-4
7634.765625; 1.00214E-4
7640.625000; 9.77743E-5
7646.484375; 1.04900E-4
7652.343750; 1.08594E-4
7658.203125; 1.13462E-4
7664.062500; 1.18134E-4
7669.921875; 1.07166E-4
7675.781250; 1.06475E-4
7681.640625; 1.01199E-4
7687.500000; 1.00950E-4
7693.359375; 1.24365E-4
7699.218750; 1.20879E-4
7705.078125; 1.04265E-4
7710.937500; 1.00819E-4
7716.796875; 9.94583E-5
7722.656250; 9.39603E-5
7728.515625; 9.81084E-5
7734.375000; 9.74221E-5
7740.234375; 1.12575E-4
7746.093750; 1.09570E-4
7751.953125; 1.13517E-4
7757.812500; 1.03482E-4
7763.671875; 1.05859E-4
7769.531250; 1.13894E-4
7775.390625; 1.16689E-4
7781.250000; 1.12722E-4
7787.109375; 1.06013E-4
7792.968750; 8.47412E-5
7798.828125; 9.20873E-5
7804.687500; 1.00934E-4
7810.546875; 1.14547E-4
7816.406250; 1.17751E-4
7822.265625; 1.25426E-4
7828.125000; 1.25948E-4
7833.984375; 1.14954E-4
7839.843750; 9.82068E-5
7845.703125; 1.09806E-4
7851.562500; 1.01027E-4
7857.421875; 1.00072E-4
7863.281250; 1.10575E-4
7869.140625; 9.86137E-5
7875.000000; 1.03667E-4
7880.859375; 1.16177E-4
7886.718750; 1.21727E-4
7892.578125; 1.10372E-4
7898.437500; 1.03058E-4
7904.296875; 1.02143E-4
7910.156250; 9.74585E-5
7916.015625; 1.10371E-4
7921.875000; 1.11026E-4
7927.734375; 1.05955E-4
7933.593750; 1.00300E-4
7939.453125; 1.06168E-4
7945.312500; 1.00124E-4
7951.171875; 9.94384E-5
7957.031250; 1.06625E-4
7962.890625; 1.26301E-4
7968.750000; 1.24645E-4
7974.609375; 1.16780E-4
7980.468750; 9.98626E-5
7986.328125; 8.29082E-5
7992.187500; 8.85962E-5
7998.046875; 1.11303E-4
8003.906250; 1.10845E-4
8009.765625; 1.06892E-4
8015.625000; 1.12662E-4
8021.484375; 1.04847E-4
8027.343750; 1.15557E-4
8033.203125; 1.17945E-4
8039.062500; 1.05852E-4
8044.921875; 1.08862E-4
8050.781250; 9.81246E-5
8056.640625; 9.16056E-5
8062.500000; 8.40057E-5
8068.359375; 9.52350E-5
8074.218750; 9.71761E-5
8080.078125; 1.04622E-4
8085.937500; 1.03299E-4
8091.796875; 9.67972E-5
8097.656250; 9.06595E-5
8103.515625; 1.19945E-4
8109.375000; 1.19503E-4
8115.234375; 1.11968E-4
8121.093750; 1.09422E-4
8126.953125; 1.18043E-4
8132.812500; 1.16408E-4
8138.671875; 1.03004E-4
8144.531250; 1.13132E-4
8150.390625; 1.13638E-4
8156.250000; 1.00543E-4
8162.109375; 8.91043E-5
8167.968750; 9.28456E-5
8173.828125; 9.52960E-5
8179.687500; 1.12738E-4
8185.546875; 1.13447E-4
8191.406250; 1.14511E-4
8197.265625; 1.08685E-4
8203.125000; 1.02117E-4
8208.984375; 9.60603E-5
8214.843750; 9.66283E-5
8220.703125; 9.88714E-5
8226.562500; 1.06980E-4
8232.421875; 1.16628E-4
8238.281250; 1.11026E-4
8244.140625; 1.07848E-4
8250.000000; 1.11497E-4
8255.859375; 1.04770E-4
8261.718750; 1.05803E-4
8267.578125; 1.07122E-4
8273.437500; 1.14900E-4
8279.296875; 1.14158E-4
8285.156250; 1.01761E-4
8291.015625; 1.00455E-4
8296.875000; 1.04220E-4
8302.734375; 1.15276E-4
8308.593750; 1.07602E-4
8314.453125; 1.07196E-4
8320.312500; 9.85160E-5
8326.171875; 8.95421E-5
8332.031250; 1.12508E-4
8337.890625; 1.13680E-4
8343.750000; 9.90371E-5
8349.609375; 1.05113E-4
8355.468750; 1.12004E-4
8361.328125; 1.15045E-4
8367.187500; 1.17805E-4
8373.046875; 1.00337E-4
8378.906250; 1.04966E-4
8384.765625; 1.12196E-4
8390.625000; 1.08922E-4
8396.484375; 9.87390E-5
8402.343750; 1.01802E-4
8408.203125; 1.14059E-4
8414.062500; 1.14718E-4
8419.921875; 1.10393E-4
8425.781250; 1.13355E-4
8431.640625; 1.02794E-4
8437.500000; 1.01159E-4
8443.359375; 1.14233E-4
8449.218750; 1.14034E-4
8455.078125; 1.03973E-4
8460.937500; 9.67918E-5
8466.796875; 1.01418E-4
8472.656250; 1.01269E-4
8478.515625; 1.07589E-4
8484.375000; 1.00144E-4
8490.234375; 9.92211E-5
8496.093750; 1.16905E-4
8501.953125; 1.27690E-4
8507.812500; 1.16718E-4
8513.671875; 1.03299E-4
8519.531250; 1.02601E-4
8525.390625; 1.19935E-4
8531.250000; 1.19834E-4
8537.109375; 1.08242E-4
8542.968750; 1.07291E-4
8548.828125; 9.82546E-5
8554.687500; 1.07134E-4
8560.546875; 1.08917E-4
8566.406250; 1.06494E-4
8572.265625; 1.19849E-4
8578.125000; 1.14602E-4
8583.984375; 1.12076E-4
8589.843750; 1.05998E-4
8595.703125; 1.05326E-4
8601.562500; 1.00903E-4
8607.421875; 9.97197E-5
8613.281250; 1.12197E-4
8619.140625; 1.14330E-4
8625.000000; 1.08789E-4
8630.859375; 1.12211E-4
8636.718750; 1.26394E-4
8642.578125; 1.24763E-4
8648.437500; 1.06317E-4
8654.296875; 1.01174E-4
8660.156250; 1.08314E-4
8666.015625; 1.06716E-4
8671.875000; 9.79637E-5
8677.734375; 1.07837E-4
8683.593750; 1.05866E-4
8689.453125; 9.86461E-5
8695.312500; 1.08537E-4
8701.171875; 1.04753E-4
8707.031250; 1.07202E-4
8712.890625; 1.03303E-4
8718.750000; 9.54401E-5
8724.609375; 9.63466E-5
8730.468750; 9.62522E-5
8736.328125; 1.04330E-4
8742.187500; 9.29605E-5
8748.046875; 9.85200E-5
8753.906250; 1.16397E-4
8759.765625; 1.13238E-4
8765.625000; 1.13061E-4
8771.484375; 1.10308E-4
8777.343750; 9.87619E-5
8783.203125; 9.60148E-5
8789.062500; 9.49845E-5
8794.921875; 9.95291E-5
8800.781250; 1.10619E-4
8806.640625; 1.12359E-4
8812.500000; 1.09737E-4
8818.359375; 1.02209E-4
8824.218750; 8.64797E-5
8830.078125; 1.07287E-4
8835.937500; 1.12203E-4
8841.796875; 1.19239E-4
8847.656250; 1.15442E-4
8853.515625; 9.49643E-5
8859.375000; 1.02219E-4
8865.234375; 1.07506E-4
8871.093750; 1.01133E-4
8876.953125; 9.84868E-5
8882.812500; 9.80312E-5
8888.671875; 1.05494E-4
8894.531250; 1.00665E-4
8900.390625; 9.50079E-5
8906.250000; 1.03112E-4
8912.109375; 1.09461E-4
8917.968750; 1.06582E-4
8923.828125; 9.02488E-5
8929.687500; 9.84686E-5
8935.546875; 9.54884E-5
8941.406250; 1.12696E-4
8947.265625; 1.11402E-4
8953.125000; 1.15023E-4
8958.984375; 1.01564E-4
8964.843750; 1.06719E-4
8970.703125; 1.07046E-4
8976.562500; 1.17175E-4
8982.421875; 1.01915E-4
8988.281250; 1.16221E-4
8994.140625; 1.20517E-4
9000.000000; 1.03463E-4
9005.859375; 1.03708E-4
9011.718750; 9.99205E-5
9017.578125; 9.76573E-5
9023.437500; 1.00230E-4
9029.296875; 1.07531E-4
9035.156250; 1.12636E-4
9041.015625; 1.26249E-4
9046.875000; 1.25238E-4
9052.734375; 1.20276E-4
9058.593750; 1.25262E-4
9064.453125; 1.17290E-4
9070.312500; 1.16253E-4
9076.171875; 1.04232E-4
9082.031250; 1.15636E-4
9087.890625; 1.18886E-4
9093.750000; 1.06183E-4
9099.609375; 1.01653E-4
9105.468750; 9.78261E-5
9111.328125; 1.08274E-4
9117.187500; 1.13221E-4
9123.046875; 1.16014E-4
9128.906250; 1.12053E-4
9134.765625; 1.03724E-4
9140.625000; 1.12344E-4
9146.484375; 1.14541E-4
9152.343750; 1.17394E-4
9158.203125; 1.19334E-4
9164.062500; 9.73005E-5
9169.921875; 1.07755E-4
9175.781250; 1.08321E-4
9181.640625; 1.04591E-4
9187.500000; 1.15838E-4
9193.359375; 1.10012E-4
9199.218750; 1.08157E-4
9205.078125; 1.04956E-4
9210.937500; 1.03309E-4
9216.796875; 1.04061E-4
9222.656250; 1.10409E-4
9228.515625; 1.10476E-4
9234.375000; 9.82134E-5
9240.234375; 1.03359E-4
9246.093750; 1.04803E-4
9251.953125; 1.00348E-4
9257.812500; 9.77351E-5
9263.671875; 1.12268E-4
9269.531250; 1.05750E-4
9275.390625; 1.05990E-4
9281.250000; 1.06567E-4
9287.109375; 1.02024E-4
9292.968750; 1.09126E-4
9298.828125; 1.07533E-4
9304.687500; 1.08936E-4
9310.546875; 1.00713E-4
9316.406250; 1.04666E-4
9322.265625; 1.28223E-4
9328.125000; 1.31337E-4
9333.984375; 1.19066E-4
9339.843750; 1.21908E-4
9345.703125; 1.18448E-4
9351.562500; 1.07990E-4
9357.421875; 1.01086E-4
9363.281250; 9.97680E-5
9369.140625; 1.01086E-4
9375.000000; 1.00310E-4
9380.859375; 1.09221E-4
9386.718750; 1.29387E-4
9392.578125; 1.21620E-4
9398.437500; 9.75853E-5
9404.296875; 9.47861E-5
9410.156250; 8.74818E-5
9416.015625; 1.02607E-4
9421.875000; 1.03921E-4
9427.734375; 9.39675E-5
9433.593750; 8.94920E-5
9439.453125; 1.09001E-4
9445.312500; 1.09658E-4
9451.171875; 9.75675E-5
9457.031250; 1.04826E-4
9462.890625; 1.14101E-4
9468.750000; 1.17612E-4
9474.609375; 1.29542E-4
9480.468750; 1.14408E-4
9486.328125; 1.09154E-4
9492.187500; 9.99658E-5
9498.046875; 1.01008E-4
9503.906250; 1.06341E-4
9509.765625; 1.07010E-4
9515.625000; 1.00488E-4
9521.484375; 1.12239E-4
9527.343750; 1.18939E-4
9533.203125; 1.12669E-4
9539.062500; 1.02142E-4
9544.921875; 1.01273E-4
9550.781250; 1.13641E-4
9556.640625; 1.14041E-4
9562.500000; 1.16155E-4
9568.359375; 1.12077E-4
9574.218750; 9.31017E-5
9580.078125; 1.00382E-4
9585.937500; 1.17288E-4
9591.796875; 1.25126E-4
9597.656250; 1.12055E-4
9603.515625; 1.10400E-4
9609.375000; 1.26120E-4
9615.234375; 1.15277E-4
9621.093750; 1.04376E-4
9626.953125; 1.12056E-4
9632.812500; 1.03059E-4
9638.671875; 9.88170E-5
9644.531250; 1.01241E-4
9650.390625; 1.02848E-4
9656.250000; 1.09247E-4
9662.109375; 1.04396E-4
9667.968750; 9.66113E-5
9673.828125; 1.00123E-4
9679.687500; 9.83053E-5
9685.546875; 1.04679E-4
9691.406250; 1.00723E-4
9697.265625; 1.02914E-4
9703.125000; 1.04108E-4
9708.984375; 1.09110E-4
9714.843750; 1.11594E-4
9720.703125; 9.44584E-5
9726.562500; 9.46288E-5
9732.421875; 8.92640E-5
9738.281250; 8.21088E-5
9744.140625; 9.41775E-5
9750.000000; 9.85627E-5
9755.859375; 1.12523E-4
9761.718750; 1.11394E-4
9767.578125; 1.18567E-4
9773.437500; 1.07883E-4
9779.296875; 9.53171E-5
9785.156250; 1.08780E-4
9791.015625; 1.03464E-4
9796.875000; 1.09843E-4
9802.734375; 1.04734E-4
9808.593750; 9.90107E-5
9814.453125; 9.85113E-5
9820.312500; 1.06138E-4
9826.171875; 9.91668E-5
9832.031250; 9.88703E-5
9837.890625; 1.07356E-4
9843.750000; 1.03204E-4
9849.609375; 1.03204E-4
9855.468750; 1.03580E-4
9861.328125; 1.14833E-4
9867.187500; 1.13222E-4
9873.046875; 1.06311E-4
9878.906250; 1.10542E-4
9884.765625; 1.11122E-4
9890.625000; 1.13359E-4
9896.484375; 1.11723E-4
9902.343750; 1.12236E-4
9908.203125; 1.12957E-4
9914.062500; 1.05557E-4
9919.921875; 1.04461E-4
9925.781250; 1.23030E-4
9931.640625; 1.10700E-4
9937.500000; 1.07007E-4
9943.359375; 1.03185E-4
9949.218750; 1.00573E-4
9955.078125; 1.06887E-4
9960.937500; 1.07849E-4
9966.796875; 1.05411E-4
9972.656250; 1.03164E-4
9978.515625; 1.03191E-4
9984.375000; 1.10050E-4
9990.234375; 1.12624E-4
9996.093750; 1.10563E-4
10001.953125; 1.00008E-4
10007.812500; 1.00469E-4
10013.671875; 9.76921E-5
10019.531250; 9.83588E-5
10025.390625; 9.02480E-5
10031.250000; 9.75752E-5
10037.109375; 1.01111E-4
10042.968750; 9.70061E-5
10048.828125; 1.03160E-4
10054.687500; 1.02377E-4
10060.546875; 1.03235E-4
10066.406250; 1.07660E-4
10072.265625; 1.02984E-4
10078.125000; 1.04882E-4
10083.984375; 1.03491E-4
10089.843750; 1.05798E-4
10095.703125; 1.15656E-4
10101.562500; 1.18768E-4
10107.421875; 1.15404E-4
10113.281250; 1.04815E-4
10119.140625; 1.15870E-4
10125.000000; 1.14290E-4
10130.859375; 1.15311E-4
10136.718750; 1.10381E-4
10142.578125; 9.89265E-5
10148.437500; 9.96424E-5
10154.296875; 1.11130E-4
10160.156250; 1.07687E-4
10166.015625; 1.11957E-4
10171.875000; 1.00903E-4
10177.734375; 1.05023E-4
10183.593750; 1.11823E-4
10189.453125; 1.10245E-4
10195.312500; 9.70555E-5
10201.171875; 8.62345E-5
10207.031250; 9.88601E-5
10212.890625; 1.00654E-4
10218.750000; 1.05464E-4
10224.609375; 1.03881E-4
10230.468750; 1.12904E-4
10236.328125; 1.09771E-4
10242.187500; 1.02901E-4
10248.046875; 1.05503E-4
10253.906250; 1.07676E-4
10259.765625; 1.12440E-4
10265.625000; 1.07798E-4
10271.484375; 9.63896E-5
10277.343750; 1.14749E-4
10283.203125; 1.20965E-4
10289.062500; 1.11847E-4
10294.921875; 1.09727E-4
10300.781250; 1.06993E-4
10306.640625; 1.02708E-4
10312.500000; 1.02567E-4
10318.359375; 9.14604E-5
10324.218750; 1.00341E-4
10330.078125; 1.06737E-4
10335.937500; 1.03035E-4
10341.796875; 1.01116E-4
10347.656250; 9.05388E-5
10353.515625; 1.02478E-4
10359.375000; 1.04219E-4
10365.234375; 1.11549E-4
10371.093750; 1.16465E-4
10376.953125; 1.07781E-4
10382.812500; 1.04073E-4
10388.671875; 1.02183E-4
10394.531250; 1.10050E-4
10400.390625; 1.04999E-4
10406.250000; 1.11174E-4
10412.109375; 1.21815E-4
10417.968750; 1.17538E-4
10423.828125; 1.15629E-4
10429.687500; 1.09213E-4
10435.546875; 9.58164E-5
10441.406250; 1.03699E-4
10447.265625; 1.07117E-4
10453.125000; 9.99260E-5
10458.984375; 1.03966E-4
10464.843750; 9.58373E-5
10470.703125; 1.10744E-4
10476.562500; 1.15431E-4
10482.421875; 1.12609E-4
10488.281250; 1.20283E-4
10494.140625; 1.03331E-4
10500.000000; 1.13094E-4
10505.859375; 1.10088E-4
10511.718750; 1.06209E-4
10517.578125; 1.07306E-4
10523.437500; 1.05405E-4
10529.296875; 1.04689E-4
10535.156250; 1.13040E-4
10541.015625; 1.00841E-4
10546.875000; 1.08306E-4
10552.734375; 1.01157E-4
10558.593750; 1.06611E-4
10564.453125; 1.11737E-4
10570.312500; 1.09080E-4
10576.171875; 9.92877E-5
10582.031250; 9.50608E-5
10587.890625; 1.11397E-4
10593.750000; 1.19821E-4
10599.609375; 1.04481E-4
10605.468750; 9.71648E-5
10611.328125; 1.07701E-4
10617.187500; 9.97566E-5
10623.046875; 9.95368E-5
10628.906250; 1.05607E-4
10634.765625; 1.10064E-4
10640.625000; 9.53789E-5
10646.484375; 1.00231E-4
10652.343750; 1.09493E-4
10658.203125; 1.11549E-4
10664.062500; 1.06675E-4
10669.921875; 1.07861E-4
10675.781250; 1.07193E-4
10681.640625; 1.24511E-4
10687.500000; 1.19305E-4
10693.359375; 1.16106E-4
10699.218750; 1.17352E-4
10705.078125; 9.42687E-5
10710.937500; 1.10300E-4
10716.796875; 1.13695E-4
10722.656250; 1.07046E-4
10728.515625; 1.01662E-4
10734.375000; 9.99550E-5
10740.234375; 9.56176E-5
10746.093750; 9.69031E-5
10751.953125; 1.02975E-4
10757.812500; 9.27953E-5
10763.671875; 9.58912E-5
10769.531250; 1.10538E-4
10775.390625; 1.04999E-4
10781.250000; 9.73998E-5
10787.109375; 1.02604E-4
10792.968750; 1.16127E-4
10798.828125; 1.16962E-4
10804.687500; 1.19404E-4
10810.546875; 1.00782E-4
10816.406250; 1.13223E-4
10822.265625; 1.20847E-4
10828.125000; 1.06586E-4
10833.984375; 9.71841E-5
10839.843750; 1.11687E-4
10845.703125; 1.17778E-4
10851.562500; 1.02839E-4
10857.421875; 1.08618E-4
10863.281250; 1.08317E-4
10869.140625; 1.13702E-4
10875.000000; 1.08410E-4
10880.859375; 1.18135E-4
10886.718750; 1.24223E-4
10892.578125; 1.13709E-4
10898.437500; 1.05181E-4
10904.296875; 1.07069E-4
10910.156250; 1.15061E-4
10916.015625; 1.07911E-4
10921.875000; 1.10107E-4
10927.734375; 1.06294E-4
10933.593750; 1.21358E-4
10939.453125; 1.23525E-4
10945.312500; 1.17616E-4
10951.171875; 1.04613E-4
10957.031250; 1.04971E-4
10962.890625; 9.98948E-5
10968.750000; 1.13286E-4
10974.609375; 1.13786E-4
10980.468750; 1.27101E-4
10986.328125; 1.25758E-4
10992.187500; 1.05017E-4
10998.046875; 1.08743E-4
11003.906250; 1.16111E-4
11009.765625; 9.53497E-5
11015.625000; 1.00908E-4
11021.484375; 1.01896E-4
11027.343750; 1.23379E-4
11033.203125; 1.13602E-4
11039.062500; 9.96646E-5
11044.921875; 1.04000E-4
11050.781250; 1.17255E-4
11056.640625; 1.19104E-4
11062.500000; 1.14963E-4
11068.359375; 1.19805E-4
11074.218750; 1.14488E-4
11080.078125; 9.59656E-5
11085.937500; 9.02464E-5
11091.796875; 9.08888E-5
11097.656250; 1.06191E-4
11103.515625; 1.17687E-4
11109.375000; 1.13215E-4
11115.234375; 9.93901E-5
11121.093750; 1.12951E-4
11126.953125; 1.19855E-4
11132.812500; 1.06455E-4
11138.671875; 1.07663E-4
11144.531250; 1.20644E-4
11150.390625; 1.10189E-4
11156.250000; 1.15131E-4
11162.109375; 1.22514E-4
11167.968750; 1.11478E-4
11173.828125; 1.07481E-4
11179.687500; 1.12620E-4
11185.546875; 1.00398E-4
11191.406250; 1.00451E-4
11197.265625; 1.10231E-4
11203.125000; 1.07729E-4
11208.984375; 1.08335E-4
11214.843750; 1.01387E-4
11220.703125; 9.10295E-5
11226.562500; 8.78906E-5
11232.421875; 1.01320E-4
11238.281250; 1.10457E-4
11244.140625; 1.07341E-4
11250.000000; 9.88210E-5
11255.859375; 1.01119E-4
11261.718750; 9.90163E-5
11267.578125; 1.15056E-4
11273.437500; 1.11494E-4
11279.296875; 1.12110E-4
11285.156250; 1.22369E-4
11291.015625; 1.20057E-4
11296.875000; 1.13470E-4
11302.734375; 1.02474E-4
11308.593750; 1.01304E-4
11314.453125; 1.08336E-4
11320.312500; 1.06863E-4
11326.171875; 1.07049E-4
11332.031250; 1.04205E-4
11337.890625; 1.08819E-4
11343.750000; 1.10113E-4
11349.609375; 1.08544E-4
11355.468750; 1.05690E-4
11361.328125; 1.08614E-4
11367.187500; 1.07280E-4
11373.046875; 1.01521E-4
11378.906250; 9.60253E-5
11384.765625; 8.93385E-5
11390.625000; 9.41363E-5
11396.484375; 1.05808E-4
11402.343750; 1.05786E-4
11408.203125; 9.86012E-5
11414.062500; 1.08931E-4
11419.921875; 1.12483E-4
11425.781250; 1.12648E-4
11431.640625; 1.09481E-4
11437.500000; 1.06758E-4
11443.359375; 1.22469E-4
11449.218750; 9.79513E-5
11455.078125; 9.81798E-5
11460.937500; 1.10808E-4
11466.796875; 1.20634E-4
11472.656250; 1.11698E-4
11478.515625; 1.11119E-4
11484.375000; 1.04815E-4
11490.234375; 9.98013E-5
11496.093750; 1.08804E-4
11501.953125; 1.12451E-4
11507.812500; 1.05604E-4
11513.671875; 9.52178E-5
11519.531250; 9.22699E-5
11525.390625; 9.92761E-5
11531.250000; 1.03050E-4
11537.109375; 1.02461E-4
11542.968750; 1.06931E-4
11548.828125; 9.72832E-5
11554.687500; 1.04506E-4
11560.546875; 1.06458E-4
11566.406250; 1.00847E-4
11572.265625; 1.03951E-4
11578.125000; 1.08853E-4
11583.984375; 1.11401E-4
11589.843750; 1.16255E-4
11595.703125; 1.05943E-4
11601.562500; 9.98197E-5
11607.421875; 1.06868E-4
11613.281250; 1.01700E-4
11619.140625; 1.11146E-4
11625.000000; 1.07471E-4
11630.859375; 1.03304E-4
11636.718750; 1.23153E-4
11642.578125; 1.19200E-4
11648.437500; 1.17471E-4
11654.296875; 1.02579E-4
11660.156250; 1.02610E-4
11666.015625; 1.18037E-4
11671.875000; 1.01469E-4
11677.734375; 8.78380E-5
11683.593750; 8.58969E-5
11689.453125; 9.10591E-5
11695.312500; 1.02441E-4
11701.171875; 1.01045E-4
11707.031250; 1.14689E-4
11712.890625; 1.08815E-4
11718.750000; 9.64239E-5
11724.609375; 1.06785E-4
11730.468750; 9.85661E-5
11736.328125; 1.10362E-4
11742.187500; 1.11737E-4
11748.046875; 1.12988E-4
11753.906250; 1.14672E-4
11759.765625; 1.22902E-4
11765.625000; 1.07970E-4
11771.484375; 1.03079E-4
11777.343750; 1.14489E-4
11783.203125; 1.06276E-4
11789.062500; 1.15528E-4
11794.921875; 1.00077E-4
11800.781250; 1.06176E-4
11806.640625; 1.07710E-4
11812.500000; 1.08119E-4
11818.359375; 1.11977E-4
11824.218750; 1.16571E-4
11830.078125; 1.10685E-4
11835.937500; 1.08169E-4
11841.796875; 1.02398E-4
11847.656250; 1.06851E-4
11853.515625; 1.13104E-4
11859.375000; 9.25942E-5
11865.234375; 1.17426E-4
11871.093750; 1.21151E-4
11876.953125; 1.19533E-4
11882.812500; 1.05511E-4
11888.671875; 1.07964E-4
11894.531250; 1.09007E-4
11900.390625; 1.03951E-4
11906.250000; 1.06796E-4
11912.109375; 9.99001E-5
11917.968750; 9.86583E-5
11923.828125; 1.04189E-4
11929.687500; 1.12314E-4
11935.546875; 1.15547E-4
11941.406250; 9.78076E-5
11947.265625; 9.16846E-5
11953.125000; 1.03901E-4
11958.984375; 1.06578E-4
11964.843750; 1.07567E-4
11970.703125; 1.06037E-4
11976.562500; 1.04447E-4
11982.421875; 1.03251E-4
11988.281250; 1.12675E-4
11994.140625; 1.18086E-4
12000.000000; 1.10392E-4
12005.859375; 9.71154E-5
12011.718750; 9.86438E-5
12017.578125; 1.01967E-4
12023.437500; 9.94691E-5
12029.296875; 9.14003E-5
12035.156250; 9.03871E-5
12041.015625; 9.82988E-5
12046.875000; 9.45391E-5
12052.734375; 1.08934E-4
12058.593750; 9.95969E-5
12064.453125; 1.07998E-4
12070.312500; 1.14828E-4
12076.171875; 9.69504E-5
12082.031250; 9.36312E-5
12087.890625; 1.14106E-4
12093.750000; 1.17060E-4
12099.609375; 1.19937E-4
12105.468750; 1.12830E-4
12111.328125; 1.11450E-4
12117.187500; 1.19306E-4
12123.046875; 1.09511E-4
12128.906250; 9.74072E-5
12134.765625; 1.10904E-4
12140.625000; 1.02727E-4
12146.484375; 1.02510E-4
12152.343750; 1.06264E-4
12158.203125; 1.03065E-4
12164.062500; 1.15872E-4
12169.921875; 1.10680E-4
12175.781250; 9.73595E-5
12181.640625; 1.03494E-4
12187.500000; 1.04463E-4
12193.359375; 9.76518E-5
12199.218750; 8.44900E-5
12205.078125; 1.03785E-4
12210.937500; 1.07883E-4
12216.796875; 9.48240E-5
12222.656250; 8.88911E-5
12228.515625; 1.13216E-4
12234.375000; 1.08702E-4
12240.234375; 9.33460E-5
12246.093750; 1.08860E-4
12251.953125; 1.13023E-4
12257.812500; 1.04796E-4
12263.671875; 1.03952E-4
12269.531250; 1.09896E-4
12275.390625; 1.00824E-4
12281.250000; 1.00714E-4
12287.109375; 1.07493E-4
12292.968750; 1.00116E-4
12298.828125; 9.83111E-5
12304.687500; 8.60450E-5
12310.546875; 8.87112E-5
12316.406250; 9.81410E-5
12322.265625; 1.02173E-4
12328.125000; 1.05050E-4
12333.984375; 1.08870E-4
12339.843750; 9.54250E-5
12345.703125; 1.08664E-4
12351.562500; 1.11674E-4
12357.421875; 1.25555E-4
12363.281250; 1.21743E-4
12369.140625; 1.00690E-4
12375.000000; 9.98196E-5
12380.859375; 1.08718E-4
12386.718750; 1.11767E-4
12392.578125; 1.03413E-4
12398.437500; 1.02194E-4
12404.296875; 9.22021E-5
12410.156250; 9.51236E-5
12416.015625; 9.44377E-5
12421.875000; 9.87696E-5
12427.734375; 1.05838E-4
12433.593750; 1.19142E-4
12439.453125; 9.73502E-5
12445.312500; 1.06203E-4
12451.171875; 1.10483E-4
12457.031250; 1.22010E-4
12462.890625; 1.14698E-4
12468.750000; 1.06275E-4
12474.609375; 1.12301E-4
12480.468750; 9.43648E-5
12486.328125; 9.30900E-5
12492.187500; 1.06829E-4
12498.046875; 1.12254E-4
12503.906250; 9.99694E-5
12509.765625; 9.37032E-5
12515.625000; 1.00070E-4
12521.484375; 1.03159E-4
12527.343750; 1.01194E-4
12533.203125; 1.12808E-4
12539.062500; 1.05715E-4
12544.921875; 1.18854E-4
12550.781250; 1.13952E-4
12556.640625; 9.63243E-5
12562.500000; 8.74168E-5
12568.359375; 9.87527E-5
12574.218750; 1.00439E-4
12580.078125; 1.05470E-4
12585.937500; 9.77435E-5
12591.796875; 1.03466E-4
12597.656250; 1.06347E-4
12603.515625; 1.08812E-4
12609.375000; 1.05583E-4
12615.234375; 9.62783E-5
12621.093750; 1.01863E-4
12626.953125; 1.01130E-4
12632.812500; 1.00775E-4
12638.671875; 1.10405E-4
12644.531250; 1.07805E-4
12650.390625; 1.04226E-4
12656.250000; 1.07601E-4
12662.109375; 1.14270E-4
12667.968750; 1.20110E-4
12673.828125; 1.11139E-4
12679.687500; 1.04615E-4
12685.546875; 1.08874E-4
12691.406250; 1.17460E-4
12697.265625; 9.63728E-5
12703.125000; 1.04053E-4
12708.984375; 1.07810E-4
12714.843750; 1.13051E-4
12720.703125; 1.11712E-4
12726.562500; 1.09067E-4
12732.421875; 1.07658E-4
12738.281250; 1.07259E-4
12744.140625; 1.09132E-4
12750.000000; 1.07309E-4
12755.859375; 9.80340E-5
12761.718750; 1.14065E-4
12767.578125; 1.14695E-4
12773.437500; 1.13577E-4
12779.296875; 1.08204E-4
12785.156250; 1.11033E-4
12791.015625; 1.04391E-4
12796.875000; 1.00978E-4
12802.734375; 1.00951E-4
12808.593750; 9.64787E-5
12814.453125; 1.15141E-4
12820.312500; 1.24792E-4
12826.171875; 1.12648E-4
12832.031250; 1.09910E-4
12837.890625; 1.11676E-4
12843.750000; 1.23524E-4
12849.609375; 1.07483E-4
12855.468750; 9.99591E-5
12861.328125; 1.03785E-4
12867.187500; 1.21791E-4
12873.046875; 1.03051E-4
12878.906250; 9.78078E-5
12884.765625; 1.05505E-4
12890.625000; 1.12552E-4
12896.484375; 1.05110E-4
12902.343750; 1.02949E-4
12908.203125; 1.02541E-4
12914.062500; 1.10155E-4
12919.921875; 1.22168E-4
12925.781250; 1.19469E-4
12931.640625; 1.14635E-4
12937.500000; 1.01708E-4
12943.359375; 1.10117E-4
12949.218750; 1.16797E-4
12955.078125; 9.78468E-5
12960.937500; 1.08089E-4
12966.796875; 1.25759E-4
12972.656250; 1.04575E-4
12978.515625; 9.69598E-5
12984.375000; 9.60833E-5
12990.234375; 9.46572E-5
12996.093750; 9.60082E-5
13001.953125; 9.59294E-5
13007.812500; 9.42839E-5
13013.671875; 1.05427E-4
13019.531250; 1.14757E-4
13025.390625; 1.13155E-4
13031.250000; 1.10665E-4
13037.109375; 1.15572E-4
13042.968750; 1.10518E-4
13048.828125; 1.01549E-4
13054.687500; 1.17734E-4
13060.546875; 1.19324E-4
13066.406250; 1.13368E-4
13072.265625; 1.24491E-4
13078.125000; 1.03943E-4
13083.984375; 1.02361E-4
13089.843750; 1.20209E-4
13095.703125; 1.10672E-4
13101.562500; 1.09368E-4
13107.421875; 1.11823E-4
13113.281250; 1.18612E-4
13119.140625; 1.03606E-4
13125.000000; 1.03583E-4
13130.859375; 1.11024E-4
13136.718750; 1.16785E-4
13142.578125; 1.20841E-4
13148.437500; 1.15989E-4
13154.296875; 1.08728E-4
13160.156250; 1.02611E-4
13166.015625; 9.30805E-5
13171.875000; 9.41864E-5
13177.734375; 1.01912E-4
13183.593750; 1.10000E-4
13189.453125; 1.15480E-4
13195.312500; 1.20187E-4
13201.171875; 1.11889E-4
13207.031250; 9.59630E-5
13212.890625; 1.05110E-4
13218.750000; 1.10822E-4
13224.609375; 1.10745E-4
13230.468750; 1.04741E-4
13236.328125; 1.02103E-4
13242.187500; 1.06085E-4
13248.046875; 1.05239E-4
13253.906250; 9.93432E-5
13259.765625; 1.16986E-4
13265.625000; 1.13118E-4
13271.484375; 9.79111E-5
13277.343750; 9.96051E-5
13283.203125; 1.11863E-4
13289.062500; 1.04287E-4
13294.921875; 1.00980E-4
13300.781250; 1.03898E-4
13306.640625; 9.59273E-5
13312.500000; 9.41917E-5
13318.359375; 1.14612E-4
13324.218750; 1.14515E-4
13330.078125; 1.11742E-4
13335.937500; 1.07675E-4
13341.796875; 1.16783E-4
13347.656250; 1.02858E-4
13353.515625; 1.12693E-4
13359.375000; 1.08599E-4
13365.234375; 1.11781E-4
13371.093750; 1.11361E-4
13376.953125; 9.56158E-5
13382.812500; 8.81660E-5
13388.671875; 9.64202E-5
13394.531250; 1.14391E-4
13400.390625; 1.12720E-4
13406.250000; 1.13850E-4
13412.109375; 1.02178E-4
13417.968750; 1.06695E-4
13423.828125; 1.06353E-4
13429.687500; 1.09942E-4
13435.546875; 1.14607E-4
13441.406250; 1.19819E-4
13447.265625; 1.15206E-4
13453.125000; 1.03383E-4
13458.984375; 1.15722E-4
13464.843750; 1.25979E-4
13470.703125; 1.17377E-4
13476.562500; 1.24155E-4
13482.421875; 1.14410E-4
13488.281250; 1.09810E-4
13494.140625; 1.16120E-4
13500.000000; 1.03618E-4
13505.859375; 1.07681E-4
13511.718750; 1.00809E-4
13517.578125; 1.04498E-4
13523.437500; 1.11717E-4
13529.296875; 8.99308E-5
13535.156250; 8.44889E-5
13541.015625; 8.85786E-5
13546.875000; 1.00065E-4
13552.734375; 1.15521E-4
13558.593750; 1.06187E-4
13564.453125; 9.55672E-5
13570.312500; 9.57365E-5
13576.171875; 9.89504E-5
13582.031250; 1.08264E-4
13587.890625; 1.03719E-4
13593.750000; 9.83430E-5
13599.609375; 9.98105E-5
13605.468750; 9.78140E-5
13611.328125; 1.07738E-4
13617.187500; 1.11328E-4
13623.046875; 1.12233E-4
13628.906250; 1.13552E-4
13634.765625; 1.06937E-4
13640.625000; 1.04431E-4
13646.484375; 1.14643E-4
13652.343750; 1.14328E-4
13658.203125; 1.16729E-4
13664.062500; 1.01735E-4
13669.921875; 1.03195E-4
13675.781250; 1.06011E-4
13681.640625; 8.96074E-5
13687.500000; 1.10671E-4
13693.359375; 9.96899E-5
13699.218750; 8.61033E-5
13705.078125; 1.02362E-4
13710.937500; 1.01950E-4
13716.796875; 1.07226E-4
13722.656250; 1.03698E-4
13728.515625; 9.83110E-5
13734.375000; 1.02737E-4
13740.234375; 9.70649E-5
13746.093750; 1.01631E-4
13751.953125; 9.29679E-5
13757.812500; 9.80259E-5
13763.671875; 1.13236E-4
13769.531250; 1.21161E-4
13775.390625; 1.14791E-4
13781.250000; 1.01742E-4
13787.109375; 1.04019E-4
13792.968750; 1.10027E-4
13798.828125; 1.01988E-4
13804.687500; 9.55358E-5
13810.546875; 1.03676E-4
13816.406250; 1.12285E-4
13822.265625; 1.20383E-4
13828.125000; 1.05160E-4
13833.984375; 9.96756E-5
13839.843750; 1.03089E-4
13845.703125; 1.02187E-4
13851.562500; 1.03660E-4
13857.421875; 1.04141E-4
13863.281250; 1.04897E-4
13869.140625; 1.05681E-4
13875.000000; 1.16598E-4
13880.859375; 1.05058E-4
13886.718750; 9.86718E-5
13892.578125; 1.09669E-4
13898.437500; 1.04990E-4
13904.296875; 1.11898E-4
13910.156250; 1.05670E-4
13916.015625; 1.03122E-4
13921.875000; 1.02662E-4
13927.734375; 9.59401E-5
13933.593750; 9.75952E-5
13939.453125; 9.76776E-5
13945.312500; 1.17778E-4
13951.171875; 1.24348E-4
13957.031250; 1.09217E-4
13962.890625; 1.05082E-4
13968.750000; 1.05847E-4
13974.609375; 1.04887E-4
13980.468750; 1.05526E-4
13986.328125; 9.88276E-5
13992.187500; 1.00986E-4
13998.046875; 9.32274E-5
14003.906250; 1.14623E-4
14009.765625; 1.08337E-4
14015.625000; 9.59788E-5
14021.484375; 9.47376E-5
14027.343750; 9.75212E-5
14033.203125; 1.03083E-4
14039.062500; 9.63617E-5
14044.921875; 9.97145E-5
14050.781250; 1.11480E-4
14056.640625; 9.84424E-5
14062.500000; 1.05865E-4
14068.359375; 1.13638E-4
14074.218750; 1.11256E-4
14080.078125; 1.02357E-4
14085.937500; 9.13044E-5
14091.796875; 8.22478E-5
14097.656250; 9.12597E-5
14103.515625; 1.00667E-4
14109.375000; 9.50585E-5
14115.234375; 9.85613E-5
14121.093750; 9.70578E-5
14126.953125; 1.08966E-4
14132.812500; 1.13837E-4
14138.671875; 1.05182E-4
14144.531250; 1.00438E-4
14150.390625; 9.99671E-5
14156.250000; 9.60423E-5
14162.109375; 1.03300E-4
14167.968750; 1.12039E-4
14173.828125; 1.19260E-4
14179.687500; 1.18562E-4
14185.546875; 1.13948E-4
14191.406250; 1.15305E-4
14197.265625; 1.19330E-4
14203.125000; 1.08274E-4
14208.984375; 1.09870E-4
14214.843750; 1.19420E-4
14220.703125; 1.07029E-4
14226.562500; 1.08427E-4
14232.421875; 9.20961E-5
14238.281250; 1.06217E-4
14244.140625; 1.09528E-4
14250.000000; 1.03178E-4
14255.859375; 9.42944E-5
14261.718750; 1.01931E-4
14267.578125; 1.03521E-4
14273.437500; 1.19064E-4
14279.296875; 1.03990E-4
14285.156250; 9.32311E-5
14291.015625; 1.02996E-4
14296.875000; 9.90125E-5
14302.734375; 9.78928E-5
14308.593750; 9.96056E-5
14314.453125; 1.06457E-4
14320.312500; 1.06333E-4
14326.171875; 9.98883E-5
14332.031250; 1.12534E-4
14337.890625; 1.13985E-4
14343.750000; 1.16269E-4
14349.609375; 1.24091E-4
14355.468750; 1.11680E-4
14361.328125; 1.04890E-4
14367.187500; 8.79490E-5
14373.046875; 9.19443E-5
14378.906250; 9.79087E-5
14384.765625; 9.54188E-5
14390.625000; 1.09173E-4
14396.484375; 1.18774E-4
14402.343750; 1.06845E-4
14408.203125; 1.19871E-4
14414.062500; 1.08607E-4
14419.921875; 9.89238E-5
14425.781250; 1.05038E-4
14431.640625; 9.87912E-5
14437.500000; 1.02520E-4
14443.359375; 1.10126E-4
14449.218750; 1.08533E-4
14455.078125; 1.00393E-4
14460.937500; 9.65937E-5
14466.796875; 1.01344E-4
14472.656250; 9.30307E-5
14478.515625; 8.96631E-5
14484.375000; 9.29115E-5
14490.234375; 9.85388E-5
14496.093750; 9.35148E-5
14501.953125; 8.67050E-5
14507.812500; 9.03843E-5
14513.671875; 8.61068E-5
14519.531250; 9.02173E-5
14525.390625; 1.06841E-4
14531.250000; 1.15517E-4
14537.109375; 1.22763E-4
14542.968750; 1.27336E-4
14548.828125; 1.10126E-4
14554.687500; 8.55095E-5
14560.546875; 1.04970E-4
14566.406250; 1.24842E-4
14572.265625; 1.10753E-4
14578.125000; 9.54556E-5
14583.984375; 9.99584E-5
14589.843750; 1.05119E-4
14595.703125; 1.21530E-4
14601.562500; 1.22969E-4
14607.421875; 1.06786E-4
14613.281250; 1.05172E-4
14619.140625; 1.00133E-4
14625.000000; 1.01984E-4
14630.859375; 1.01162E-4
14636.718750; 1.03402E-4
14642.578125; 1.08771E-4
14648.437500; 1.09264E-4
14654.296875; 1.04819E-4
14660.156250; 1.21881E-4
14666.015625; 1.18792E-4
14671.875000; 1.04906E-4
14677.734375; 1.06862E-4
14683.593750; 1.09172E-4
14689.453125; 1.00527E-4
14695.312500; 1.06465E-4
14701.171875; 1.14950E-4
14707.031250; 1.05877E-4
14712.890625; 1.00122E-4
14718.750000; 1.15575E-4
14724.609375; 1.25290E-4
14730.468750; 1.10690E-4
14736.328125; 9.48392E-5
14742.187500; 9.00032E-5
14748.046875; 1.02405E-4
14753.906250; 1.01554E-4
14759.765625; 9.60809E-5
14765.625000; 9.52800E-5
14771.484375; 9.65812E-5
14777.343750; 9.63948E-5
14783.203125; 1.03112E-4
14789.062500; 1.05719E-4
14794.921875; 1.09410E-4
14800.781250; 1.07667E-4
14806.640625; 1.13321E-4
14812.500000; 1.00290E-4
14818.359375; 9.97848E-5
14824.218750; 1.11047E-4
14830.078125; 1.06431E-4
14835.937500; 9.40541E-5
14841.796875; 1.01365E-4
14847.656250; 1.06040E-4
14853.515625; 1.05243E-4
14859.375000; 1.01390E-4
14865.234375; 9.91694E-5
14871.093750; 1.10248E-4
14876.953125; 1.09663E-4
14882.812500; 1.07863E-4
14888.671875; 1.17142E-4
14894.531250; 1.12708E-4
14900.390625; 1.00635E-4
14906.250000; 9.90853E-5
14912.109375; 1.03907E-4
14917.968750; 1.12533E-4
14923.828125; 9.68142E-5
14929.687500; 1.01013E-4
14935.546875; 1.06157E-4
14941.406250; 1.08219E-4
14947.265625; 1.13299E-4
14953.125000; 1.10781E-4
14958.984375; 1.05258E-4
14964.843750; 1.00375E-4
14970.703125; 8.84003E-5
14976.562500; 9.69871E-5
14982.421875; 9.76859E-5
14988.281250; 9.69969E-5
14994.140625; 1.18810E-4
15000.000000; 1.09381E-4
15005.859375; 1.22613E-4
15011.718750; 1.15782E-4
15017.578125; 9.17280E-5
15023.437500; 9.66652E-5
15029.296875; 9.67302E-5
15035.156250; 1.01373E-4
15041.015625; 9.61849E-5
15046.875000; 1.06112E-4
15052.734375; 1.07594E-4
15058.593750; 1.11116E-4
15064.453125; 1.13741E-4
15070.312500; 1.05935E-4
15076.171875; 9.29260E-5
15082.031250; 9.69278E-5
15087.890625; 9.05589E-5
15093.750000; 1.06249E-4
15099.609375; 1.04123E-4
15105.468750; 1.14433E-4
15111.328125; 1.10455E-4
15117.187500; 1.23693E-4
15123.046875; 1.07929E-4
15128.906250; 1.07104E-4
15134.765625; 1.04776E-4
15140.625000; 9.43906E-5
15146.484375; 1.00586E-4
15152.343750; 1.08829E-4
15158.203125; 1.12671E-4
15164.062500; 1.04040E-4
15169.921875; 1.05478E-4
15175.781250; 1.03152E-4
15181.640625; 9.34340E-5
15187.500000; 1.12211E-4
15193.359375; 1.16756E-4
15199.218750; 1.08708E-4
15205.078125; 1.09157E-4
15210.937500; 9.52981E-5
15216.796875; 1.07583E-4
15222.656250; 1.13920E-4
15228.515625; 1.23365E-4
15234.375000; 1.30809E-4
15240.234375; 1.20168E-4
15246.093750; 1.15451E-4
15251.953125; 1.11279E-4
15257.812500; 1.08830E-4
15263.671875; 1.03025E-4
15269.531250; 1.02809E-4
15275.390625; 1.15972E-4
15281.250000; 1.18154E-4
15287.109375; 1.06211E-4
15292.968750; 1.07995E-4
15298.828125; 1.01949E-4
15304.687500; 1.09260E-4
15310.546875; 1.20587E-4
15316.406250; 1.02650E-4
15322.265625; 8.87493E-5
15328.125000; 8.60602E-5
15333.984375; 1.06390E-4
15339.843750; 1.23140E-4
15345.703125; 1.08694E-4
15351.562500; 1.10054E-4
15357.421875; 9.67250E-5
15363.281250; 1.01150E-4
15369.140625; 8.68947E-5
15375.000000; 9.13901E-5
15380.859375; 9.51313E-5
15386.718750; 1.09285E-4
15392.578125; 1.14758E-4
15398.437500; 1.04496E-4
15404.296875; 9.42586E-5
15410.156250; 9.98283E-5
15416.015625; 1.01520E-4
15421.875000; 1.03727E-4
15427.734375; 9.57199E-5
15433.593750; 1.09096E-4
15439.453125; 1.05997E-4
15445.312500; 9.55243E-5
15451.171875; 9.62653E-5
15457.031250; 1.10502E-4
15462.890625; 1.07022E-4
15468.750000; 1.02495E-4
15474.609375; 1.06105E-4
15480.468750; 1.08183E-4
15486.328125; 9.53522E-5
15492.187500; 9.52074E-5
15498.046875; 1.04982E-4
15503.906250; 1.15134E-4
15509.765625; 1.09516E-4
15515.625000; 1.12153E-4
15521.484375; 1.07751E-4
15527.343750; 1.04206E-4
15533.203125; 1.15496E-4
15539.062500; 1.23398E-4
15544.921875; 1.01385E-4
15550.781250; 9.20417E-5
15556.640625; 1.08907E-4
15562.500000; 1.07688E-4
15568.359375; 9.35650E-5
15574.218750; 9.39713E-5
15580.078125; 1.01943E-4
15585.937500; 9.85045E-5
15591.796875; 1.04720E-4
15597.656250; 1.06936E-4
15603.515625; 1.00012E-4
15609.375000; 9.79519E-5
15615.234375; 1.10650E-4
15621.093750; 1.08318E-4
15626.953125; 1.10023E-4
15632.812500; 1.17945E-4
15638.671875; 1.08395E-4
15644.531250; 1.01858E-4
15650.390625; 1.03603E-4
15656.250000; 1.17733E-4
15662.109375; 1.01395E-4
15667.968750; 1.10803E-4
15673.828125; 1.04817E-4
15679.687500; 1.10279E-4
15685.546875; 1.14964E-4
15691.406250; 1.12836E-4
15697.265625; 1.02927E-4
15703.125000; 1.02370E-4
15708.984375; 1.08506E-4
15714.843750; 9.72990E-5
15720.703125; 8.77435E-5
15726.562500; 1.06371E-4
15732.421875; 1.08250E-4
15738.281250; 1.11445E-4
15744.140625; 1.14360E-4
15750.000000; 1.29259E-4
15755.859375; 1.03971E-4
15761.718750; 9.46553E-5
15767.578125; 1.04823E-4
15773.437500; 1.11683E-4
15779.296875; 1.11162E-4
15785.156250; 1.04703E-4
15791.015625; 1.05452E-4
15796.875000; 1.07817E-4
15802.734375; 1.11648E-4
15808.593750; 1.10606E-4
15814.453125; 1.14288E-4
15820.312500; 1.13097E-4
15826.171875; 1.03541E-4
15832.031250; 1.05969E-4
15837.890625; 1.14744E-4
15843.750000; 1.18084E-4
15849.609375; 1.12240E-4
15855.468750; 1.11307E-4
15861.328125; 1.06397E-4
15867.187500; 1.03376E-4
15873.046875; 1.06359E-4
15878.906250; 9.72831E-5
15884.765625; 1.00496E-4
15890.625000; 1.10842E-4
15896.484375; 1.17528E-4
15902.343750; 1.06707E-4
15908.203125; 1.16079E-4
15914.062500; 1.03842E-4
15919.921875; 1.10583E-4
15925.781250; 1.20426E-4
15931.640625; 1.08275E-4
15937.500000; 1.01820E-4
15943.359375; 1.08985E-4
15949.218750; 1.20431E-4
15955.078125; 1.21380E-4
15960.937500; 9.63976E-5
15966.796875; 8.26602E-5
15972.656250; 1.01062E-4
15978.515625; 1.01906E-4
15984.375000; 1.01502E-4
15990.234375; 1.14034E-4
15996.093750; 1.10439E-4
16001.953125; 1.07001E-4
16007.812500; 1.01043E-4
16013.671875; 9.50724E-5
16019.531250; 9.77976E-5
16025.390625; 1.14890E-4
16031.250000; 1.16759E-4
16037.109375; 1.21283E-4
16042.968750; 1.11181E-4
16048.828125; 1.05575E-4
16054.687500; 9.81579E-5
16060.546875; 1.08742E-4
16066.406250; 1.08524E-4
16072.265625; 1.08732E-4
16078.125000; 9.48639E-5
16083.984375; 1.06908E-4
16089.843750; 1.18914E-4
16095.703125; 1.10240E-4
16101.562500; 1.09451E-4
16107.421875; 1.02874E-4
16113.281250; 1.04062E-4
16119.140625; 1.07534E-4
16125.000000; 9.98571E-5
16130.859375; 9.91182E-5
16136.718750; 9.03062E-5
16142.578125; 9.55316E-5
16148.437500; 8.62130E-5
16154.296875; 1.00559E-4
16160.156250; 1.05136E-4
16166.015625; 9.48288E-5
16171.875000; 9.38762E-5
16177.734375; 1.00110E-4
16183.593750; 9.91492E-5
16189.453125; 1.04138E-4
16195.312500; 9.06353E-5
16201.171875; 1.02643E-4
16207.031250; 1.13781E-4
16212.890625; 9.72110E-5
16218.750000; 1.00832E-4
16224.609375; 9.96741E-5
16230.468750; 1.15970E-4
16236.328125; 1.05563E-4
16242.187500; 1.06452E-4
16248.046875; 1.14637E-4
16253.906250; 1.00375E-4
16259.765625; 9.73319E-5
16265.625000; 1.04770E-4
16271.484375; 1.09254E-4
16277.343750; 1.03816E-4
16283.203125; 1.17626E-4
16289.062500; 1.21258E-4
16294.921875; 1.21659E-4
16300.781250; 1.11364E-4
16306.640625; 9.38124E-5
16312.500000; 9.79998E-5
16318.359375; 1.00106E-4
16324.218750; 9.29686E-5
16330.078125; 9.97488E-5
16335.937500; 1.04971E-4
16341.796875; 1.06062E-4
16347.656250; 1.03407E-4
16353.515625; 1.06306E-4
16359.375000; 1.08711E-4
16365.234375; 1.11527E-4
16371.093750; 1.15314E-4
16376.953125; 1.08200E-4
16382.812500; 9.63799E-5
16388.671875; 1.05392E-4
16394.531250; 1.12226E-4
16400.390625; 1.11383E-4
16406.250000; 1.08100E-4
16412.109375; 1.08274E-4
16417.968750; 1.08718E-4
16423.828125; 1.04659E-4
16429.687500; 1.05303E-4
16435.546875; 9.54335E-5
16441.406250; 9.78307E-5
16447.265625; 1.08826E-4
16453.125000; 1.19391E-4
16458.984375; 1.05876E-4
16464.843750; 1.00609E-4
16470.703125; 1.11400E-4
16476.562500; 1.01104E-4
16482.421875; 1.06901E-4
16488.281250; 1.11090E-4
16494.140625; 1.06602E-4
16500.000000; 1.09360E-4
16505.859375; 9.46861E-5
16511.718750; 8.08412E-5
16517.578125; 9.06420E-5
16523.437500; 1.01416E-4
16529.296875; 1.09173E-4
16535.156250; 1.05022E-4
16541.015625; 1.09096E-4
16546.875000; 1.04048E-4
16552.734375; 9.56486E-5
16558.593750; 8.51044E-5
16564.453125; 9.92621E-5
16570.312500; 1.10509E-4
16576.171875; 1.19519E-4
16582.031250; 1.14204E-4
16587.890625; 1.04411E-4
16593.750000; 1.06407E-4
16599.609375; 1.00461E-4
16605.468750; 1.07633E-4
16611.328125; 9.31093E-5
16617.187500; 9.12804E-5
16623.046875; 9.98413E-5
16628.906250; 1.03875E-4
16634.765625; 1.12965E-4
16640.625000; 1.19411E-4
16646.484375; 1.05054E-4
16652.343750; 9.67873E-5
16658.203125; 1.00748E-4
16664.062500; 9.13410E-5
16669.921875; 1.03881E-4
16675.781250; 1.14064E-4
16681.640625; 9.93528E-5
16687.500000; 9.79441E-5
16693.359375; 1.06861E-4
16699.218750; 1.00508E-4
16705.078125; 1.03695E-4
16710.937500; 1.06504E-4
16716.796875; 1.02437E-4
16722.656250; 9.78715E-5
16728.515625; 1.09841E-4
16734.375000; 1.11721E-4
16740.234375; 1.07842E-4
16746.093750; 1.08974E-4
16751.953125; 1.00777E-4
16757.812500; 9.21851E-5
16763.671875; 9.82565E-5
16769.531250; 9.32332E-5
16775.390625; 1.00461E-4
16781.250000; 1.10119E-4
16787.109375; 1.14714E-4
16792.968750; 1.08349E-4
16798.828125; 1.05856E-4
16804.687500; 1.09490E-4
16810.546875; 1.14223E-4
16816.406250; 1.13673E-4
16822.265625; 1.11641E-4
16828.125000; 1.02934E-4
16833.984375; 9.70777E-5
16839.843750; 9.62317E-5
16845.703125; 9.65492E-5
16851.562500; 1.07461E-4
16857.421875; 1.09138E-4
16863.281250; 1.00479E-4
16869.140625; 1.00970E-4
16875.000000; 1.05121E-4
16880.859375; 1.07644E-4
16886.718750; 1.03261E-4
16892.578125; 1.00201E-4
16898.437500; 1.04532E-4
16904.296875; 1.02930E-4
16910.156250; 9.71570E-5
16916.015625; 1.05312E-4
16921.875000; 1.02389E-4
16927.734375; 1.06162E-4
16933.593750; 9.46752E-5
16939.453125; 1.08064E-4
16945.312500; 1.19044E-4
16951.171875; 1.08907E-4
16957.031250; 8.33286E-5
16962.890625; 9.73605E-5
16968.750000; 1.12163E-4
16974.609375; 1.08979E-4
16980.468750; 9.16541E-5
16986.328125; 9.19899E-5
16992.187500; 1.06932E-4
16998.046875; 1.13733E-4
17003.906250; 1.10436E-4
17009.765625; 9.76138E-5
17015.625000; 9.84234E-5
17021.484375; 1.11763E-4
17027.343750; 1.13885E-4
17033.203125; 1.10468E-4
17039.062500; 1.11089E-4
17044.921875; 1.01310E-4
17050.781250; 1.02562E-4
17056.640625; 1.14134E-4
17062.500000; 1.02687E-4
17068.359375; 1.05563E-4
17074.218750; 1.00865E-4
17080.078125; 9.67265E-5
17085.937500; 1.00489E-4
17091.796875; 1.04082E-4
17097.656250; 1.09226E-4
17103.515625; 8.95384E-5
17109.375000; 1.13817E-4
17115.234375; 1.06079E-4
17121.093750; 1.11411E-4
17126.953125; 1.13794E-4
17132.812500; 9.63125E-5
17138.671875; 9.91953E-5
17144.531250; 1.08625E-4
17150.390625; 1.08244E-4
17156.250000; 9.89435E-5
17162.109375; 1.07273E-4
17167.968750; 9.83265E-5
17173.828125; 1.03222E-4
17179.687500; 1.00097E-4
17185.546875; 9.07964E-5
17191.406250; 9.38315E-5
17197.265625; 9.92428E-5
17203.125000; 9.07961E-5
17208.984375; 8.74353E-5
17214.843750; 9.90359E-5
17220.703125; 1.04608E-4
17226.562500; 1.07512E-4
17232.421875; 1.11335E-4
17238.281250; 1.16544E-4
17244.140625; 1.10114E-4
17250.000000; 1.09134E-4
17255.859375; 1.03521E-4
17261.718750; 9.91128E-5
17267.578125; 9.28399E-5
17273.437500; 1.03016E-4
17279.296875; 1.09604E-4
17285.156250; 1.08068E-4
17291.015625; 1.13691E-4
17296.875000; 1.06594E-4
17302.734375; 1.05127E-4
17308.593750; 1.01904E-4
17314.453125; 9.56193E-5
17320.312500; 8.56810E-5
17326.171875; 9.94993E-5
17332.031250; 1.01734E-4
17337.890625; 1.03210E-4
17343.750000; 1.03430E-4
17349.609375; 9.90284E-5
17355.468750; 9.67895E-5
17361.328125; 9.92745E-5
17367.187500; 1.01898E-4
17373.046875; 1.00073E-4
17378.906250; 1.00471E-4
17384.765625; 1.05741E-4
17390.625000; 1.03184E-4
17396.484375; 1.06051E-4
17402.343750; 1.06781E-4
17408.203125; 9.90699E-5
17414.062500; 1.04823E-4
17419.921875; 1.09560E-4
17425.781250; 1.07775E-4
17431.640625; 1.09316E-4
17437.500000; 1.16930E-4
17443.359375; 1.03509E-4
17449.218750; 1.01712E-4
17455.078125; 1.10697E-4
17460.937500; 1.26545E-4
17466.796875; 1.23605E-4
17472.656250; 1.08425E-4
17478.515625; 9.06247E-5
17484.375000; 9.61389E-5
17490.234375; 1.04892E-4
17496.093750; 1.14779E-4
17501.953125; 1.13530E-4
17507.812500; 1.01298E-4
17513.671875; 1.01968E-4
17519.531250; 1.03168E-4
17525.390625; 1.00799E-4
17531.250000; 1.06567E-4
17537.109375; 1.08476E-4
17542.968750; 1.17210E-4
17548.828125; 1.21053E-4
17554.687500; 1.09987E-4
17560.546875; 1.01436E-4
17566.406250; 9.30391E-5
17572.265625; 1.13806E-4
17578.125000; 1.18473E-4
17583.984375; 9.72763E-5
17589.843750; 8.60823E-5
17595.703125; 8.70546E-5
17601.562500; 1.04068E-4
17607.421875; 9.77095E-5
17613.281250; 8.91456E-5
17619.140625; 9.00198E-5
17625.000000; 1.07963E-4
17630.859375; 1.01672E-4
17636.718750; 9.01094E-5
17642.578125; 9.74282E-5
17648.437500; 9.68389E-5
17654.296875; 9.39382E-5
17660.156250; 1.02365E-4
17666.015625; 1.05127E-4
17671.875000; 1.05042E-4
17677.734375; 1.08472E-4
17683.593750; 9.66380E-5
17689.453125; 9.17949E-5
17695.312500; 9.41209E-5
17701.171875; 1.06384E-4
17707.031250; 1.09425E-4
17712.890625; 9.85868E-5
17718.750000; 9.62408E-5
17724.609375; 1.00662E-4
17730.468750; 8.63981E-5
17736.328125; 9.52189E-5
17742.187500; 1.14935E-4
17748.046875; 1.01578E-4
17753.906250; 1.10843E-4
17759.765625; 1.11599E-4
17765.625000; 1.23748E-4
17771.484375; 1.27079E-4
17777.343750; 1.10396E-4
17783.203125; 1.05816E-4
17789.062500; 1.06566E-4
17794.921875; 1.07360E-4
17800.781250; 1.05692E-4
17806.640625; 9.05333E-5
17812.500000; 1.00294E-4
17818.359375; 9.81613E-5
17824.218750; 1.03402E-4
17830.078125; 9.77139E-5
17835.937500; 9.51973E-5
17841.796875; 1.08964E-4
17847.656250; 9.96444E-5
17853.515625; 1.06912E-4
17859.375000; 1.10731E-4
17865.234375; 9.77826E-5
17871.093750; 8.95719E-5
17876.953125; 9.92706E-5
17882.812500; 9.12985E-5
17888.671875; 1.12604E-4
17894.531250; 1.19036E-4
17900.390625; 1.19678E-4
17906.250000; 1.16072E-4
17912.109375; 1.19559E-4
17917.968750; 1.05511E-4
17923.828125; 9.82487E-5
17929.687500; 9.77354E-5
17935.546875; 9.56870E-5
17941.406250; 1.03797E-4
17947.265625; 1.22957E-4
17953.125000; 1.04936E-4
17958.984375; 9.54087E-5
17964.843750; 9.00974E-5
17970.703125; 9.91506E-5
17976.562500; 1.14420E-4
17982.421875; 1.07697E-4
17988.281250; 1.09569E-4
17994.140625; 1.11569E-4
18000.000000; 1.16804E-4
18005.859375; 1.08520E-4
18011.718750; 1.07797E-4
18017.578125; 9.37634E-5
18023.437500; 9.21163E-5
18029.296875; 1.00364E-4
18035.156250; 1.09876E-4
18041.015625; 1.18510E-4
18046.875000; 1.05632E-4
18052.734375; 1.01766E-4
18058.593750; 8.76391E-5
18064.453125; 8.95628E-5
18070.312500; 1.04188E-4
18076.171875; 1.01590E-4
18082.031250; 9.81681E-5
18087.890625; 9.98934E-5
18093.750000; 1.02865E-4
18099.609375; 9.73109E-5
18105.468750; 9.91713E-5
18111.328125; 9.49658E-5
18117.187500; 9.73948E-5
18123.046875; 1.03385E-4
18128.906250; 9.79979E-5
18134.765625; 1.16741E-4
18140.625000; 1.16989E-4
18146.484375; 1.07901E-4
18152.343750; 1.01283E-4
18158.203125; 9.90619E-5
18164.062500; 9.82714E-5
18169.921875; 1.02188E-4
18175.781250; 1.05068E-4
18181.640625; 1.22209E-4
18187.500000; 1.22293E-4
18193.359375; 9.05374E-5
18199.218750; 8.44450E-5
18205.078125; 8.20173E-5
18210.937500; 9.14419E-5
18216.796875; 9.21677E-5
18222.656250; 1.00369E-4
18228.515625; 1.19879E-4
18234.375000; 1.19171E-4
18240.234375; 1.04929E-4
18246.093750; 9.53031E-5
18251.953125; 9.67013E-5
18257.812500; 1.08539E-4
18263.671875; 1.09377E-4
18269.531250; 9.73135E-5
18275.390625; 1.01559E-4
18281.250000; 9.97453E-5
18287.109375; 1.01392E-4
18292.968750; 1.12485E-4
18298.828125; 1.11871E-4
18304.687500; 9.80229E-5
18310.546875; 1.04105E-4
18316.406250; 1.05183E-4
18322.265625; 1.04938E-4
18328.125000; 1.06374E-4
18333.984375; 1.04448E-4
18339.843750; 1.14598E-4
18345.703125; 1.10886E-4
18351.562500; 1.15316E-4
18357.421875; 1.08561E-4
18363.281250; 1.06395E-4
18369.140625; 1.03534E-4
18375.000000; 9.78350E-5
18380.859375; 1.15881E-4
18386.718750; 1.08119E-4
18392.578125; 1.15083E-4
18398.437500; 1.17200E-4
18404.296875; 1.00339E-4
18410.156250; 1.10887E-4
18416.015625; 1.01040E-4
18421.875000; 1.04204E-4
18427.734375; 1.10187E-4
18433.593750; 1.01437E-4
18439.453125; 1.09477E-4
18445.312500; 1.18777E-4
18451.171875; 1.25926E-4
18457.031250; 1.16785E-4
18462.890625; 1.02201E-4
18468.750000; 1.01858E-4
18474.609375; 1.03117E-4
18480.468750; 9.84219E-5
18486.328125; 9.77405E-5
18492.187500; 9.32081E-5
18498.046875; 1.13639E-4
18503.906250; 1.21084E-4
18509.765625; 1.08299E-4
18515.625000; 1.04582E-4
18521.484375; 1.05060E-4
18527.343750; 1.04666E-4
18533.203125; 1.11429E-4
18539.062500; 1.04782E-4
18544.921875; 1.07929E-4
18550.781250; 1.10575E-4
18556.640625; 1.12725E-4
18562.500000; 1.14709E-4
18568.359375; 1.11465E-4
18574.218750; 1.00363E-4
18580.078125; 1.03317E-4
18585.937500; 9.39883E-5
18591.796875; 9.80655E-5
18597.656250; 1.06076E-4
18603.515625; 1.02510E-4
18609.375000; 9.70697E-5
18615.234375; 9.61659E-5
18621.093750; 1.11011E-4
18626.953125; 1.07958E-4
18632.812500; 1.02297E-4
18638.671875; 1.20931E-4
18644.531250; 1.00443E-4
18650.390625; 1.04774E-4
18656.250000; 1.12545E-4
18662.109375; 1.06296E-4
18667.968750; 1.06030E-4
18673.828125; 9.72204E-5
18679.687500; 1.02414E-4
18685.546875; 1.13442E-4
18691.406250; 1.03406E-4
18697.265625; 1.07327E-4
18703.125000; 1.23235E-4
18708.984375; 1.15280E-4
18714.843750; 9.57482E-5
18720.703125; 8.38890E-5
18726.562500; 8.77816E-5
18732.421875; 1.03971E-4
18738.281250; 1.08829E-4
18744.140625; 1.07977E-4
18750.000000; 1.03006E-4
18755.859375; 1.00652E-4
18761.718750; 1.05454E-4
18767.578125; 1.19104E-4
18773.437500; 1.05566E-4
18779.296875; 1.02659E-4
18785.156250; 1.07357E-4
18791.015625; 9.79230E-5
18796.875000; 1.03076E-4
18802.734375; 1.22114E-4
18808.593750; 1.21938E-4
18814.453125; 1.08143E-4
18820.312500; 1.08051E-4
18826.171875; 1.23100E-4
18832.031250; 9.98997E-5
18837.890625; 1.05224E-4
18843.750000; 1.08152E-4
18849.609375; 1.01363E-4
18855.468750; 1.06639E-4
18861.328125; 1.12577E-4
18867.187500; 1.02019E-4
18873.046875; 1.03461E-4
18878.906250; 1.07383E-4
18884.765625; 1.13031E-4
18890.625000; 1.00033E-4
18896.484375; 1.08888E-4
18902.343750; 1.04524E-4
18908.203125; 1.00149E-4
18914.062500; 1.15076E-4
18919.921875; 1.18115E-4
18925.781250; 1.01478E-4
18931.640625; 1.03775E-4
18937.500000; 1.11777E-4
18943.359375; 1.04522E-4
18949.218750; 1.21092E-4
18955.078125; 1.24881E-4
18960.937500; 9.86441E-5
18966.796875; 9.46269E-5
18972.656250; 1.08744E-4
18978.515625; 1.03157E-4
18984.375000; 9.45526E-5
18990.234375; 8.73424E-5
18996.093750; 1.01623E-4
19001.953125; 9.70194E-5
19007.812500; 1.06218E-4
19013.671875; 1.07406E-4
19019.531250; 1.03011E-4
19025.390625; 1.10183E-4
19031.250000; 1.16363E-4
19037.109375; 1.23701E-4
19042.968750; 1.19267E-4
19048.828125; 1.17358E-4
19054.687500; 1.12417E-4
19060.546875; 1.20291E-4
19066.406250; 1.09557E-4
19072.265625; 1.18380E-4
19078.125000; 1.18226E-4
19083.984375; 9.00956E-5
19089.843750; 1.05975E-4
19095.703125; 1.19726E-4
19101.562500; 1.23481E-4
19107.421875; 9.52476E-5
19113.281250; 9.63609E-5
19119.140625; 9.70237E-5
19125.000000; 1.05989E-4
19130.859375; 1.11386E-4
19136.718750; 1.05148E-4
19142.578125; 1.00570E-4
19148.437500; 1.14957E-4
19154.296875; 1.07536E-4
19160.156250; 1.02960E-4
19166.015625; 1.13981E-4
19171.875000; 1.17769E-4
19177.734375; 1.08329E-4
19183.593750; 1.19177E-4
19189.453125; 1.17110E-4
19195.312500; 9.14420E-5
19201.171875; 8.41716E-5
19207.031250; 9.78745E-5
19212.890625; 1.02218E-4
19218.750000; 1.08579E-4
19224.609375; 1.06109E-4
19230.468750; 9.92601E-5
19236.328125; 1.03617E-4
19242.187500; 1.17084E-4
19248.046875; 1.22793E-4
19253.906250; 1.00349E-4
19259.765625; 1.00640E-4
19265.625000; 1.10926E-4
19271.484375; 1.22761E-4
19277.343750; 1.18804E-4
19283.203125; 1.12650E-4
19289.062500; 1.03153E-4
19294.921875; 9.63207E-5
19300.781250; 9.57862E-5
19306.640625; 9.14700E-5
19312.500000; 1.00450E-4
19318.359375; 9.60498E-5
19324.218750; 1.04707E-4
19330.078125; 9.90721E-5
19335.937500; 1.00537E-4
19341.796875; 9.72549E-5
19347.656250; 8.83043E-5
19353.515625; 9.53583E-5
19359.375000; 9.83404E-5
19365.234375; 9.57382E-5
19371.093750; 1.07622E-4
19376.953125; 1.02300E-4
19382.812500; 9.70310E-5
19388.671875; 1.12063E-4
19394.531250; 1.21165E-4
19400.390625; 1.09445E-4
19406.250000; 1.07521E-4
19412.109375; 9.81263E-5
19417.968750; 9.88594E-5
19423.828125; 1.07323E-4
19429.687500; 1.10688E-4
19435.546875; 1.17027E-4
19441.406250; 9.68435E-5
19447.265625; 9.98894E-5
19453.125000; 9.27147E-5
19458.984375; 8.78242E-5
19464.843750; 1.00716E-4
19470.703125; 1.19199E-4
19476.562500; 1.08321E-4
19482.421875; 9.63515E-5
19488.281250; 9.12353E-5
19494.140625; 1.03876E-4
19500.000000; 1.07898E-4
19505.859375; 9.81081E-5
19511.718750; 1.06579E-4
19517.578125; 1.00486E-4
19523.437500; 1.08486E-4
19529.296875; 1.11415E-4
19535.156250; 1.05811E-4
19541.015625; 9.89459E-5
19546.875000; 1.04062E-4
19552.734375; 1.12946E-4
19558.593750; 1.11112E-4
19564.453125; 9.76470E-5
19570.312500; 9.68622E-5
19576.171875; 1.03143E-4
19582.031250; 9.78132E-5
19587.890625; 9.66713E-5
19593.750000; 8.62289E-5
19599.609375; 8.66046E-5
19605.468750; 9.93938E-5
19611.328125; 9.99131E-5
19617.187500; 9.07773E-5
19623.046875; 1.04155E-4
19628.906250; 1.05770E-4
19634.765625; 9.84241E-5
19640.625000; 9.62118E-5
19646.484375; 1.06633E-4
19652.343750; 1.16495E-4
19658.203125; 1.13669E-4
19664.062500; 1.02096E-4
19669.921875; 1.02940E-4
19675.781250; 1.03973E-4
19681.640625; 1.03916E-4
19687.500000; 1.11349E-4
19693.359375; 9.94068E-5
19699.218750; 1.03222E-4
19705.078125; 1.08372E-4
19710.937500; 9.81799E-5
19716.796875; 1.06745E-4
19722.656250; 1.04208E-4
19728.515625; 1.03686E-4
19734.375000; 1.09261E-4
19740.234375; 9.81144E-5
19746.093750; 9.06705E-5
19751.953125; 9.42535E-5
19757.812500; 1.04327E-4
19763.671875; 1.06542E-4
19769.531250; 1.02103E-4
19775.390625; 9.84099E-5
19781.250000; 9.88775E-5
19787.109375; 1.02907E-4
19792.968750; 1.05589E-4
19798.828125; 1.03908E-4
19804.687500; 9.94434E-5
19810.546875; 1.08671E-4
19816.406250; 1.02384E-4
19822.265625; 9.09925E-5
19828.125000; 1.02091E-4
19833.984375; 1.05080E-4
19839.843750; 1.00504E-4
19845.703125; 9.96890E-5
19851.562500; 9.61800E-5
19857.421875; 9.72548E-5
19863.281250; 9.93862E-5
19869.140625; 9.73798E-5
19875.000000; 1.01210E-4
19880.859375; 9.71908E-5
19886.718750; 9.53212E-5
19892.578125; 1.05710E-4
19898.437500; 1.07850E-4
19904.296875; 9.98657E-5
19910.156250; 9.43467E-5
19916.015625; 1.06042E-4
19921.875000; 1.09846E-4
19927.734375; 1.10900E-4
19933.593750; 1.18394E-4
19939.453125; 1.08621E-4
19945.312500; 1.07417E-4
19951.171875; 1.07760E-4
19957.031250; 8.74099E-5
19962.890625; 8.43592E-5
19968.750000; 8.90565E-5
19974.609375; 9.96118E-5
19980.468750; 1.00473E-4
19986.328125; 9.30767E-5
19992.187500; 1.04679E-4
19998.046875; 1.09742E-4
20003.906250; 1.14436E-4
20009.765625; 9.92559E-5
20015.625000; 9.55177E-5
20021.484375; 8.80583E-5
20027.343750; 9.46505E-5
20033.203125; 9.15928E-5
20039.062500; 1.06648E-4
20044.921875; 1.12692E-4
20050.781250; 9.93708E-5
20056.640625; 1.01559E-4
20062.500000; 9.72040E-5
20068.359375; 1.07221E-4
20074.218750; 1.00821E-4
20080.078125; 9.57639E-5
20085.937500; 1.07528E-4
20091.796875; 1.05630E-4
20097.656250; 1.04524E-4
20103.515625; 1.03739E-4
20109.375000; 9.49405E-5
20115.234375; 1.09794E-4
20121.093750; 1.18795E-4
20126.953125; 1.09460E-4
20132.812500; 9.58738E-5
20138.671875; 9.39960E-5
20144.531250; 1.08455E-4
20150.390625; 1.01093E-4
20156.250000; 9.13983E-5
20162.109375; 9.61332E-5
20167.968750; 1.02021E-4
20173.828125; 1.01457E-4
20179.687500; 1.08723E-4
20185.546875; 1.07446E-4
20191.406250; 9.60882E-5
20197.265625; 1.03355E-4
20203.125000; 1.06647E-4
20208.984375; 1.02772E-4
20214.843750; 8.93045E-5
20220.703125; 9.73364E-5
20226.562500; 1.06242E-4
20232.421875; 1.17058E-4
20238.281250; 1.03472E-4
20244.140625; 1.05368E-4
20250.000000; 1.11423E-4
20255.859375; 1.08510E-4
20261.718750; 1.06300E-4
20267.578125; 1.03013E-4
20273.437500; 9.75346E-5
20279.296875; 9.73011E-5
20285.156250; 9.54535E-5
20291.015625; 1.06452E-4
20296.875000; 1.03863E-4
20302.734375; 1.00231E-4
20308.593750; 1.10018E-4
20314.453125; 1.02636E-4
20320.312500; 1.01779E-4
20326.171875; 1.20670E-4
20332.031250; 1.04729E-4
20337.890625; 1.03465E-4
20343.750000; 1.17814E-4
20349.609375; 1.12828E-4
20355.468750; 9.93824E-5
20361.328125; 1.05977E-4
20367.187500; 1.16255E-4
20373.046875; 9.30951E-5
20378.906250; 9.15965E-5
20384.765625; 1.17082E-4
20390.625000; 1.14177E-4
20396.484375; 1.08658E-4
20402.343750; 1.07857E-4
20408.203125; 1.05441E-4
20414.062500; 9.76754E-5
20419.921875; 8.33338E-5
20425.781250; 9.84585E-5
20431.640625; 1.04238E-4
20437.500000; 1.02104E-4
20443.359375; 1.01883E-4
20449.218750; 1.15227E-4
20455.078125; 1.10506E-4
20460.937500; 1.00323E-4
20466.796875; 1.02551E-4
20472.656250; 1.16015E-4
20478.515625; 1.04946E-4
20484.375000; 9.64923E-5
20490.234375; 8.44724E-5
20496.093750; 8.34713E-5
20501.953125; 1.00330E-4
20507.812500; 1.02498E-4
20513.671875; 1.11149E-4
20519.531250; 9.58763E-5
20525.390625; 9.99430E-5
20531.250000; 8.47850E-5
20537.109375; 9.45921E-5
20542.968750; 9.49074E-5
20548.828125; 1.00299E-4
20554.687500; 9.44505E-5
20560.546875; 8.87950E-5
20566.406250; 1.00276E-4
20572.265625; 1.08494E-4
20578.125000; 1.08121E-4
20583.984375; 1.04937E-4
20589.843750; 9.74632E-5
20595.703125; 1.03342E-4
20601.562500; 1.16551E-4
20607.421875; 1.20687E-4
20613.281250; 1.06207E-4
20619.140625; 1.05687E-4
20625.000000; 1.07173E-4
20630.859375; 1.07728E-4
20636.718750; 9.33422E-5
20642.578125; 1.08720E-4
20648.437500; 1.06101E-4
20654.296875; 1.03176E-4
20660.156250; 1.06378E-4
20666.015625; 1.11133E-4
20671.875000; 9.71473E-5
20677.734375; 1.02701E-4
20683.593750; 1.14357E-4
20689.453125; 1.09294E-4
20695.312500; 1.09741E-4
20701.171875; 1.00070E-4
20707.031250; 1.05913E-4
20712.890625; 9.48763E-5
20718.750000; 9.88704E-5
20724.609375; 1.05803E-4
20730.468750; 1.02609E-4
20736.328125; 1.03992E-4
20742.187500; 1.13743E-4
20748.046875; 1.03168E-4
20753.906250; 1.04252E-4
20759.765625; 1.02175E-4
20765.625000; 1.05641E-4
20771.484375; 1.12961E-4
20777.343750; 1.00771E-4
20783.203125; 1.09122E-4
20789.062500; 1.04259E-4
20794.921875; 9.99579E-5
20800.781250; 9.72764E-5
20806.640625; 9.74043E-5
20812.500000; 9.27587E-5
20818.359375; 9.59934E-5
20824.218750; 7.90052E-5
20830.078125; 8.67892E-5
20835.937500; 1.03942E-4
20841.796875; 9.26373E-5
20847.656250; 1.03609E-4
20853.515625; 1.11056E-4
20859.375000; 1.07018E-4
20865.234375; 9.93089E-5
20871.093750; 1.00435E-4
20876.953125; 1.03809E-4
20882.812500; 1.14150E-4
20888.671875; 1.03471E-4
20894.531250; 9.71799E-5
20900.390625; 1.06898E-4
20906.250000; 1.09148E-4
20912.109375; 1.11200E-4
20917.968750; 1.10699E-4
20923.828125; 9.26338E-5
20929.687500; 1.11745E-4
20935.546875; 1.10025E-4
20941.406250; 9.54458E-5
20947.265625; 9.61705E-5
20953.125000; 9.52190E-5
20958.984375; 8.41612E-5
20964.843750; 9.87930E-5
20970.703125; 1.17017E-4
20976.562500; 1.12155E-4
20982.421875; 1.03046E-4
20988.281250; 1.03183E-4
20994.140625; 1.18700E-4
21000.000000; 1.20146E-4
21005.859375; 1.17119E-4
21011.718750; 1.05358E-4
21017.578125; 1.21248E-4
21023.437500; 1.20686E-4
21029.296875; 1.24073E-4
21035.156250; 1.07185E-4
21041.015625; 9.78452E-5
21046.875000; 9.75550E-5
21052.734375; 9.62352E-5
21058.593750; 1.06835E-4
21064.453125; 1.11129E-4
21070.312500; 1.19003E-4
21076.171875; 1.05552E-4
21082.031250; 9.90756E-5
21087.890625; 9.30984E-5
21093.750000; 1.11458E-4
21099.609375; 9.97051E-5
21105.468750; 8.21116E-5
21111.328125; 9.35112E-5
21117.187500; 1.06356E-4
21123.046875; 1.07969E-4
21128.906250; 1.00829E-4
21134.765625; 1.05285E-4
21140.625000; 9.90094E-5
21146.484375; 9.08536E-5
21152.343750; 8.80565E-5
21158.203125; 1.03326E-4
21164.062500; 1.08596E-4
21169.921875; 1.01596E-4
21175.781250; 9.61245E-5
21181.640625; 1.09774E-4
21187.500000; 1.16230E-4
21193.359375; 1.10931E-4
21199.218750; 1.09023E-4
21205.078125; 1.10474E-4
21210.937500; 1.02559E-4
21216.796875; 9.20449E-5
21222.656250; 1.02018E-4
21228.515625; 1.06151E-4
21234.375000; 1.08768E-4
21240.234375; 1.14416E-4
21246.093750; 9.79911E-5
21251.953125; 9.02263E-5
21257.812500; 9.92325E-5
21263.671875; 1.01178E-4
21269.531250; 9.44933E-5
21275.390625; 1.02689E-4
21281.250000; 1.02055E-4
21287.109375; 9.59150E-5
21292.968750; 1.07581E-4
21298.828125; 1.05161E-4
21304.687500; 1.07812E-4
21310.546875; 1.21799E-4
21316.406250; 1.16269E-4
21322.265625; 1.06834E-4
21328.125000; 1.10711E-4
21333.984375; 1.03044E-4
21339.843750; 9.30047E-5
21345.703125; 8.84833E-5
21351.562500; 8.73241E-5
21357.421875; 9.17823E-5
21363.281250; 9.83995E-5
21369.140625; 9.94285E-5
21375.000000; 9.59718E-5
21380.859375; 8.69087E-5
21386.718750; 9.39394E-5
21392.578125; 9.84596E-5
21398.437500; 8.84039E-5
21404.296875; 8.66486E-5
21410.156250; 9.35573E-5
21416.015625; 9.90904E-5
21421.875000; 1.01194E-4
21427.734375; 1.07748E-4
21433.593750; 1.03909E-4
21439.453125; 1.00072E-4
21445.312500; 9.76653E-5
21451.171875; 1.02493E-4
21457.031250; 1.10436E-4
21462.890625; 1.04311E-4
21468.750000; 9.45729E-5
21474.609375; 1.04077E-4
21480.468750; 1.09027E-4
21486.328125; 1.01407E-4
21492.187500; 1.01718E-4
21498.046875; 1.17570E-4
21503.906250; 1.00081E-4
21509.765625; 1.00626E-4
21515.625000; 1.01478E-4
21521.484375; 1.13845E-4
21527.343750; 1.16300E-4
21533.203125; 1.02883E-4
21539.062500; 9.78548E-5
21544.921875; 1.04313E-4
21550.781250; 9.05483E-5
21556.640625; 9.54452E-5
21562.500000; 1.02521E-4
21568.359375; 9.55482E-5
21574.218750; 1.04369E-4
21580.078125; 1.06388E-4
21585.937500; 1.01749E-4
21591.796875; 1.06574E-4
21597.656250; 1.06916E-4
21603.515625; 9.03341E-5
21609.375000; 9.68469E-5
21615.234375; 1.02592E-4
21621.093750; 9.99069E-5
21626.953125; 1.09703E-4
21632.812500; 1.03938E-4
21638.671875; 9.03962E-5
21644.531250; 1.02421E-4
21650.390625; 1.02168E-4
21656.250000; 9.34763E-5
21662.109375; 8.89723E-5
21667.968750; 9.40637E-5
21673.828125; 9.67007E-5
21679.687500; 9.93117E-5
21685.546875; 1.00668E-4
21691.406250; 9.63689E-5
21697.265625; 8.34975E-5
21703.125000; 1.03477E-4
21708.984375; 1.17403E-4
21714.843750; 1.02942E-4
21720.703125; 9.51696E-5
21726.562500; 9.38044E-5
21732.421875; 1.04595E-4
21738.281250; 1.12208E-4
21744.140625; 1.09075E-4
21750.000000; 9.70548E-5
21755.859375; 9.26252E-5
21761.718750; 1.02694E-4
21767.578125; 1.06053E-4
21773.437500; 9.27023E-5
21779.296875; 9.94669E-5
21785.156250; 1.13457E-4
21791.015625; 9.84830E-5
21796.875000; 1.02737E-4
21802.734375; 1.02252E-4
21808.593750; 9.94762E-5
21814.453125; 1.01428E-4
21820.312500; 1.08939E-4
21826.171875; 1.12556E-4
21832.031250; 9.31718E-5
21837.890625; 1.02829E-4
21843.750000; 1.06591E-4
21849.609375; 9.06865E-5
21855.468750; 1.03517E-4
21861.328125; 1.07571E-4
21867.187500; 9.69805E-5
21873.046875; 9.47036E-5
21878.906250; 9.39242E-5
21884.765625; 1.04952E-4
21890.625000; 1.03826E-4
21896.484375; 9.89890E-5
21902.343750; 1.02064E-4
21908.203125; 1.08266E-4
21914.062500; 9.76951E-5
21919.921875; 1.03462E-4
21925.781250; 1.03171E-4
21931.640625; 1.10320E-4
21937.500000; 1.19869E-4
21943.359375; 1.03829E-4
21949.218750; 8.96582E-5
21955.078125; 9.28543E-5
21960.937500; 1.03264E-4
21966.796875; 1.16140E-4
21972.656250; 1.24324E-4
21978.515625; 1.09752E-4
21984.375000; 1.03951E-4
21990.234375; 1.03021E-4
21996.093750; 1.02259E-4
22001.953125; 1.09971E-4
22007.812500; 1.05062E-4
22013.671875; 1.00778E-4
22019.531250; 1.12165E-4
22025.390625; 1.00903E-4
22031.250000; 9.22236E-5
22037.109375; 1.05789E-4
22042.968750; 1.07352E-4
22048.828125; 9.58941E-5
22054.687500; 9.05610E-5
22060.546875; 9.51053E-5
22066.406250; 1.04229E-4
22072.265625; 1.12211E-4
22078.125000; 1.06237E-4
22083.984375; 1.05954E-4
22089.843750; 1.03701E-4
22095.703125; 1.09043E-4
22101.562500; 1.16504E-4
22107.421875; 1.19032E-4
22113.281250; 1.11903E-4
22119.140625; 9.44685E-5
22125.000000; 8.32610E-5
22130.859375; 9.49892E-5
22136.718750; 9.43096E-5
22142.578125; 9.98885E-5
22148.437500; 1.12860E-4
22154.296875; 9.33313E-5
22160.156250; 9.75261E-5
22166.015625; 1.12070E-4
22171.875000; 1.10390E-4
22177.734375; 1.17780E-4
22183.593750; 1.00845E-4
22189.453125; 1.01873E-4
22195.312500; 1.01434E-4
22201.171875; 1.05266E-4
22207.031250; 1.11130E-4
22212.890625; 9.65976E-5
22218.750000; 1.01597E-4
22224.609375; 9.11341E-5
22230.468750; 1.05896E-4
22236.328125; 1.13534E-4
22242.187500; 1.09361E-4
22248.046875; 9.62022E-5
22253.906250; 9.37258E-5
22259.765625; 1.02844E-4
22265.625000; 9.96453E-5
22271.484375; 9.40943E-5
22277.343750; 1.01268E-4
22283.203125; 8.83486E-5
22289.062500; 9.40736E-5
22294.921875; 9.66064E-5
22300.781250; 1.02514E-4
22306.640625; 9.52982E-5
22312.500000; 9.06525E-5
22318.359375; 1.00613E-4
22324.218750; 1.04603E-4
22330.078125; 1.18762E-4
22335.937500; 9.97601E-5
22341.796875; 9.97484E-5
22347.656250; 1.15210E-4
22353.515625; 1.04033E-4
22359.375000; 1.00966E-4
22365.234375; 1.11440E-4
22371.093750; 1.10582E-4
22376.953125; 9.60848E-5
22382.812500; 9.74180E-5
22388.671875; 9.55599E-5
22394.531250; 1.09163E-4
22400.390625; 1.08477E-4
22406.250000; 1.00859E-4
22412.109375; 9.38332E-5
22417.968750; 8.70413E-5
22423.828125; 9.18271E-5
22429.687500; 1.00600E-4
22435.546875; 8.49541E-5
22441.406250; 7.87167E-5
22447.265625; 8.12151E-5
22453.125000; 8.46529E-5
22458.984375; 9.65442E-5
22464.843750; 1.08371E-4
22470.703125; 1.16098E-4
22476.562500; 1.08753E-4
22482.421875; 1.05025E-4
22488.281250; 9.86759E-5
22494.140625; 9.75913E-5
22500.000000; 9.33892E-5
22505.859375; 9.48583E-5
22511.718750; 9.97265E-5
22517.578125; 9.20093E-5
22523.437500; 8.79664E-5
22529.296875; 8.73603E-5
22535.156250; 8.87383E-5
22541.015625; 9.52355E-5
22546.875000; 9.88279E-5
22552.734375; 8.68928E-5
22558.593750; 7.78830E-5
22564.453125; 8.10550E-5
22570.312500; 1.05274E-4
22576.171875; 1.12748E-4
22582.031250; 9.13079E-5
22587.890625; 7.70926E-5
22593.750000; 8.97425E-5
22599.609375; 1.00297E-4
22605.468750; 9.79267E-5
22611.328125; 1.05188E-4
22617.187500; 1.03206E-4
22623.046875; 1.00106E-4
22628.906250; 9.24634E-5
22634.765625; 7.92012E-5
22640.625000; 8.46592E-5
22646.484375; 9.16918E-5
22652.343750; 9.52036E-5
22658.203125; 9.34702E-5
22664.062500; 7.88432E-5
22669.921875; 7.54607E-5
22675.781250; 9.12852E-5
22681.640625; 1.01932E-4
22687.500000; 9.44089E-5
22693.359375; 8.76144E-5
22699.218750; 9.58871E-5
22705.078125; 1.02732E-4
22710.937500; 9.85231E-5
22716.796875; 8.83292E-5
22722.656250; 9.28748E-5
22728.515625; 8.73287E-5
22734.375000; 8.22675E-5
22740.234375; 8.88853E-5
22746.093750; 9.84388E-5
22751.953125; 9.23731E-5
22757.812500; 8.66502E-5
22763.671875; 9.13094E-5
22769.531250; 8.77558E-5
22775.390625; 8.81115E-5
22781.250000; 8.77509E-5
22787.109375; 8.74829E-5
22792.968750; 8.20705E-5
22798.828125; 7.40574E-5
22804.687500; 7.75798E-5
22810.546875; 8.77408E-5
22816.406250; 7.95816E-5
22822.265625; 8.14742E-5
22828.125000; 8.78411E-5
22833.984375; 9.18592E-5
22839.843750; 8.25283E-5
22845.703125; 8.97551E-5
22851.562500; 8.66155E-5
22857.421875; 8.75218E-5
22863.281250; 8.97551E-5
22869.140625; 9.16322E-5
22875.000000; 9.36604E-5
22880.859375; 9.11805E-5
22886.718750; 8.69276E-5
22892.578125; 9.11930E-5
22898.437500; 8.82506E-5
22904.296875; 8.22621E-5
22910.156250; 7.80927E-5
22916.015625; 8.18553E-5
22921.875000; 9.25266E-5
22927.734375; 8.14184E-5
22933.593750; 7.83935E-5
22939.453125; 8.53323E-5
22945.312500; 8.54499E-5
22951.171875; 8.62519E-5
22957.031250; 8.17513E-5
22962.890625; 8.47149E-5
22968.750000; 8.35687E-5
22974.609375; 8.45038E-5
22980.468750; 9.70345E-5
22986.328125; 8.85233E-5
22992.187500; 7.67507E-5
22998.046875; 7.21007E-5
23003.906250; 7.06016E-5
23009.765625; 7.35743E-5
23015.625000; 6.71358E-5
23021.484375; 6.52586E-5
23027.343750; 6.97576E-5
23033.203125; 7.15510E-5
23039.062500; 8.29507E-5
23044.921875; 8.12067E-5
23050.781250; 7.28019E-5
23056.640625; 7.46544E-5
23062.500000; 7.69516E-5
23068.359375; 8.72191E-5
23074.218750; 8.61593E-5
23080.078125; 6.82737E-5
23085.937500; 7.28580E-5
23091.796875; 6.44962E-5
23097.656250; 6.87601E-5
23103.515625; 7.94426E-5
23109.375000; 7.75527E-5
23115.234375; 7.97504E-5
23121.093750; 7.37368E-5
23126.953125; 7.34850E-5
23132.812500; 7.91745E-5
23138.671875; 8.38734E-5
23144.531250; 7.55590E-5
23150.390625; 7.31927E-5
23156.250000; 6.84411E-5
23162.109375; 6.16397E-5
23167.968750; 6.34393E-5
23173.828125; 5.98220E-5
23179.687500; 6.30533E-5
23185.546875; 5.91506E-5
23191.406250; 6.32266E-5
23197.265625; 6.18339E-5
23203.125000; 6.12568E-5
23208.984375; 5.99298E-5
23214.843750; 6.83707E-5
23220.703125; 6.19798E-5
23226.562500; 6.40360E-5
23232.421875; 6.91342E-5
23238.281250; 6.83479E-5
23244.140625; 5.94037E-5
23250.000000; 6.18721E-5
23255.859375; 6.87861E-5
23261.718750; 7.10877E-5
23267.578125; 7.94215E-5
23273.437500; 7.52499E-5
23279.296875; 6.82098E-5
23285.156250; 6.15359E-5
23291.015625; 5.60954E-5
23296.875000; 5.56949E-5
23302.734375; 6.00775E-5
23308.593750; 5.63919E-5
23314.453125; 5.19264E-5
23320.312500; 5.26026E-5
23326.171875; 4.96933E-5
23332.031250; 5.67639E-5
23337.890625; 5.81598E-5
23343.750000; 5.57083E-5
23349.609375; 6.06703E-5
23355.468750; 5.62709E-5
23361.328125; 5.34546E-5
23367.187500; 5.87520E-5
23373.046875; 5.56229E-5
23378.906250; 5.12903E-5
23384.765625; 5.63391E-5
23390.625000; 5.76030E-5
23396.484375; 6.17915E-5
23402.343750; 5.29471E-5
23408.203125; 5.27744E-5
23414.062500; 5.26905E-5
23419.921875; 5.24779E-5
23425.781250; 5.09510E-5
23431.640625; 5.22000E-5
23437.500000; 5.42432E-5
23443.359375; 6.02241E-5
23449.218750; 5.66196E-5
23455.078125; 4.73373E-5
23460.937500; 4.73362E-5
23466.796875; 5.12029E-5
23472.656250; 5.81657E-5
23478.515625; 5.24686E-5
23484.375000; 4.57208E-5
23490.234375; 5.09159E-5
23496.093750; 5.27219E-5
23501.953125; 4.59273E-5
23507.812500; 5.17503E-5
23513.671875; 5.20219E-5
23519.531250; 4.99709E-5
23525.390625; 5.22830E-5
23531.250000; 5.63292E-5
23537.109375; 5.29927E-5
23542.968750; 5.23724E-5
23548.828125; 5.70008E-5
23554.687500; 5.40808E-5
23560.546875; 5.31469E-5
23566.406250; 4.62501E-5
23572.265625; 4.47060E-5
23578.125000; 4.96661E-5
23583.984375; 4.54427E-5
23589.843750; 4.08600E-5
23595.703125; 3.89549E-5
23601.562500; 4.71316E-5
23607.421875; 4.52284E-5
23613.281250; 4.50629E-5
23619.140625; 4.60844E-5
23625.000000; 5.03762E-5
23630.859375; 5.02982E-5
23636.718750; 4.44782E-5
23642.578125; 4.32846E-5
23648.437500; 4.75058E-5
23654.296875; 3.89435E-5
23660.156250; 4.25583E-5
23666.015625; 4.77295E-5
23671.875000; 4.29706E-5
23677.734375; 4.21793E-5
23683.593750; 4.21845E-5
23689.453125; 4.36373E-5
23695.312500; 4.22443E-5
23701.171875; 4.15454E-5
23707.031250; 4.17161E-5
23712.890625; 3.96505E-5
23718.750000; 4.28499E-5
23724.609375; 4.75488E-5
23730.468750; 4.56108E-5
23736.328125; 3.98682E-5
23742.187500; 4.11666E-5
23748.046875; 4.22649E-5
23753.906250; 4.26880E-5
23759.765625; 4.13410E-5
23765.625000; 3.66322E-5
23771.484375; 4.02257E-5
23777.343750; 4.15525E-5
23783.203125; 3.32498E-5
23789.062500; 3.44776E-5
23794.921875; 3.44053E-5
23800.781250; 4.14036E-5
23806.640625; 4.30720E-5
23812.500000; 4.28632E-5
23818.359375; 4.60633E-5
23824.218750; 4.15546E-5
23830.078125; 3.88262E-5
23835.937500; 3.41931E-5
23841.796875; 3.08530E-5
23847.656250; 3.31241E-5
23853.515625; 3.42472E-5
23859.375000; 3.54210E-5
23865.234375; 3.46556E-5
23871.093750; 3.80295E-5
23876.953125; 3.96737E-5
23882.812500; 4.21631E-5
23888.671875; 3.58581E-5
23894.531250; 3.22543E-5
23900.390625; 3.46590E-5
23906.250000; 3.55706E-5
23912.109375; 3.82680E-5
23917.968750; 3.59491E-5
23923.828125; 3.92408E-5
23929.687500; 3.94667E-5
23935.546875; 3.75240E-5
23941.406250; 3.61003E-5
23947.265625; 3.39808E-5
23953.125000; 3.23355E-5
23958.984375; 3.28977E-5
23964.843750; 3.31310E-5
23970.703125; 3.37134E-5
23976.562500; 3.88097E-5
23982.421875; 3.95741E-5
23988.281250; 3.63297E-5
23994.140625; 3.48094E-5
