* Measurement data measured by REW V5.31.3
* Source: PCM: default, no input selected, 2, volume: no control
* Format: 8192-point spectrum using Hann window and exponential averaging 0.97 
* Dated: Mar 9, 2025 12:47:29 PM
* REW Settings:
*  C-weighting compensation: Off
*  Target level: 75.0 dB
* Note: OSDEHA ANODE-OUTPUT; 8192-point spectrum using Hann window and exponential averaging 0.97  Input RMS 3.161 V 3.161 VC, 3.161 VA 3.161 V 22 - 22k UNW 873.8 uV >22k Distortion at 1,000.0 Hz, -30.00 dBFS: Gain: 29.35 dB THD: 0.015 % based on 21 harmonics  [0..22800 Hz] HHD: 0.011 %  [10 .. 22] N: 0.40 %  [0..22800 Hz] N+D: 4.154 mV A THD+N: 0.40 %  [0..22800 Hz] SNR: 48.0 dB ENOB: 13.2 bits 2nd harmonic 0.0037 % -152 deg 3rd harmonic 0.0032 % -150 deg 4th harmonic 0.0033 % -37 deg 5th harmonic 0.0032 % 93 deg 6th harmonic 0.0031 % 5 deg 7th harmonic 0.0032 % 70 deg 8th harmonic 0.0035 % -63 deg 9th harmonic 0.0031 % 50 deg 
* Measurement: OSDEHA A-OUT 3.1V
* Smoothing: None
* Frequency Step: 5.859375 Hz
* Start Frequency: 5.859375 Hz
*
* Freq(Hz); V(V)
5.859375; 7.38984E-4
11.718750; 4.12184E-4
17.578125; 2.23992E-4
23.437500; 1.79691E-4
29.296875; 1.67741E-4
35.156250; 1.63068E-4
41.015625; 1.73974E-4
46.875000; 3.59400E-4
52.734375; 3.66855E-4
58.593750; 1.44733E-4
64.453125; 1.35535E-4
70.312500; 1.33396E-4
76.171875; 1.32196E-4
82.031250; 1.47253E-4
87.890625; 1.73303E-4
93.750000; 5.10116E-3
99.609375; 1.12999E-2
105.468750; 6.25008E-3
111.328125; 1.95894E-4
117.187500; 1.32254E-4
123.046875; 1.22433E-4
128.906250; 1.07828E-4
134.765625; 1.13967E-4
140.625000; 1.37390E-4
146.484375; 1.60758E-4
152.343750; 1.59962E-4
158.203125; 1.24184E-4
164.062500; 1.21464E-4
169.921875; 1.21411E-4
175.781250; 1.22175E-4
181.640625; 1.16937E-4
187.500000; 1.27991E-4
193.359375; 6.70386E-4
199.218750; 1.63756E-3
205.078125; 1.00728E-3
210.937500; 1.21378E-4
216.796875; 1.02704E-4
222.656250; 1.08402E-4
228.515625; 1.15314E-4
234.375000; 1.30396E-4
240.234375; 1.26377E-4
246.093750; 1.50458E-4
251.953125; 1.55349E-4
257.812500; 1.11973E-4
263.671875; 1.13089E-4
269.531250; 1.08870E-4
275.390625; 1.10254E-4
281.250000; 1.16367E-4
287.109375; 1.12641E-4
292.968750; 1.45670E-4
298.828125; 2.78105E-4
304.687500; 2.05844E-4
310.546875; 1.07698E-4
316.406250; 1.08433E-4
322.265625; 1.16349E-4
328.125000; 1.11552E-4
333.984375; 1.06214E-4
339.843750; 1.17461E-4
345.703125; 1.46539E-4
351.562500; 1.65304E-4
357.421875; 1.29765E-4
363.281250; 1.21128E-4
369.140625; 9.74537E-5
375.000000; 1.16043E-4
380.859375; 1.25993E-4
386.718750; 1.16120E-4
392.578125; 1.89926E-4
398.437500; 4.92262E-4
404.296875; 3.64588E-4
410.156250; 1.02493E-4
416.015625; 1.09976E-4
421.875000; 1.06873E-4
427.734375; 1.11915E-4
433.593750; 1.00258E-4
439.453125; 1.04679E-4
445.312500; 1.18730E-4
451.171875; 1.37875E-4
457.031250; 1.20491E-4
462.890625; 1.20597E-4
468.750000; 1.13427E-4
474.609375; 1.12799E-4
480.468750; 1.00538E-4
486.328125; 1.02216E-4
492.187500; 1.41418E-4
498.046875; 3.46254E-4
503.906250; 2.84114E-4
509.765625; 1.32220E-4
515.625000; 1.14187E-4
521.484375; 1.08928E-4
527.343750; 1.04863E-4
533.203125; 1.07461E-4
539.062500; 1.15238E-4
544.921875; 1.13284E-4
550.781250; 1.12167E-4
556.640625; 1.05739E-4
562.500000; 1.04875E-4
568.359375; 9.10876E-5
574.218750; 9.24442E-5
580.078125; 1.08778E-4
585.937500; 1.10685E-4
591.796875; 1.14248E-4
597.656250; 1.25395E-4
603.515625; 1.25735E-4
609.375000; 1.05509E-4
615.234375; 1.02112E-4
621.093750; 1.10938E-4
626.953125; 1.15024E-4
632.812500; 1.04768E-4
638.671875; 1.05840E-4
644.531250; 1.10117E-4
650.390625; 1.09346E-4
656.250000; 9.92269E-5
662.109375; 1.12264E-4
667.968750; 1.13879E-4
673.828125; 1.06403E-4
679.687500; 9.97855E-5
685.546875; 1.06393E-4
691.406250; 1.11899E-4
697.265625; 2.12420E-4
703.125000; 1.98938E-4
708.984375; 1.09826E-4
714.843750; 1.10043E-4
720.703125; 1.01751E-4
726.562500; 1.00058E-4
732.421875; 1.21282E-4
738.281250; 1.23660E-4
744.140625; 1.20999E-4
750.000000; 1.38783E-4
755.859375; 1.09893E-4
761.718750; 1.07712E-4
767.578125; 1.05859E-4
773.437500; 1.05264E-4
779.296875; 1.07255E-4
785.156250; 1.08981E-4
791.015625; 1.14413E-4
796.875000; 1.60812E-4
802.734375; 1.72196E-4
808.593750; 1.12913E-4
814.453125; 1.01290E-4
820.312500; 1.07672E-4
826.171875; 1.10980E-4
832.031250; 1.10324E-4
837.890625; 9.75239E-5
843.750000; 1.17443E-4
849.609375; 1.42513E-4
855.468750; 1.35816E-4
861.328125; 1.24823E-4
867.187500; 1.26017E-4
873.046875; 1.44867E-4
878.906250; 1.46609E-4
884.765625; 1.64392E-4
890.625000; 1.71110E-4
896.484375; 2.06954E-4
902.343750; 2.19287E-4
908.203125; 2.71418E-4
914.062500; 2.88605E-4
919.921875; 3.60757E-4
925.781250; 4.52638E-4
931.640625; 5.60232E-4
937.500000; 7.18748E-4
943.359375; 9.87525E-4
949.218750; 1.36094E-3
955.078125; 1.96954E-3
960.937500; 3.02019E-3
966.796875; 4.93117E-3
972.656250; 9.00117E-3
978.515625; 1.90898E-2
984.375000; 5.34720E-2
990.234375; 2.94104E-1
996.093750; 2.35284E0
1001.953125; 2.94104E0
1007.812500; 8.40277E-1
1013.671875; 8.40627E-2
1019.531250; 2.58369E-2
1025.390625; 1.13071E-2
1031.250000; 5.97071E-3
1037.109375; 3.50284E-3
1042.968750; 2.26612E-3
1048.828125; 1.52215E-3
1054.687500; 1.09954E-3
1060.546875; 8.03510E-4
1066.406250; 6.14432E-4
1072.265625; 4.81522E-4
1078.125000; 3.76486E-4
1083.984375; 3.13692E-4
1089.843750; 2.67665E-4
1095.703125; 2.29423E-4
1101.562500; 2.16372E-4
1107.421875; 1.70231E-4
1113.281250; 1.79543E-4
1119.140625; 1.50384E-4
1125.000000; 1.36996E-4
1130.859375; 1.30431E-4
1136.718750; 1.23805E-4
1142.578125; 1.32227E-4
1148.437500; 1.09954E-4
1154.296875; 1.14753E-4
1160.156250; 1.23791E-4
1166.015625; 1.15043E-4
1171.875000; 1.21074E-4
1177.734375; 1.11311E-4
1183.593750; 1.08946E-4
1189.453125; 1.10927E-4
1195.312500; 1.17458E-4
1201.171875; 1.21201E-4
1207.031250; 1.01453E-4
1212.890625; 1.05269E-4
1218.750000; 1.05727E-4
1224.609375; 1.05330E-4
1230.468750; 1.08241E-4
1236.328125; 1.02688E-4
1242.187500; 1.02041E-4
1248.046875; 1.16636E-4
1253.906250; 1.14448E-4
1259.765625; 1.05723E-4
1265.625000; 1.17975E-4
1271.484375; 1.13691E-4
1277.343750; 1.11111E-4
1283.203125; 1.10881E-4
1289.062500; 1.05041E-4
1294.921875; 1.02243E-4
1300.781250; 1.07221E-4
1306.640625; 1.06255E-4
1312.500000; 1.12397E-4
1318.359375; 1.05050E-4
1324.218750; 9.38243E-5
1330.078125; 9.41464E-5
1335.937500; 1.11693E-4
1341.796875; 1.01596E-4
1347.656250; 9.38091E-5
1353.515625; 1.02183E-4
1359.375000; 1.12922E-4
1365.234375; 1.00844E-4
1371.093750; 1.00072E-4
1376.953125; 1.01529E-4
1382.812500; 1.03647E-4
1388.671875; 9.98575E-5
1394.531250; 1.05897E-4
1400.390625; 1.17252E-4
1406.250000; 9.92890E-5
1412.109375; 1.05622E-4
1417.968750; 1.02689E-4
1423.828125; 1.05196E-4
1429.687500; 1.03441E-4
1435.546875; 1.06109E-4
1441.406250; 1.13121E-4
1447.265625; 1.16002E-4
1453.125000; 1.12304E-4
1458.984375; 1.01724E-4
1464.843750; 1.05318E-4
1470.703125; 1.10553E-4
1476.562500; 1.03749E-4
1482.421875; 1.03182E-4
1488.281250; 1.09920E-4
1494.140625; 1.14609E-4
1500.000000; 1.18238E-4
1505.859375; 1.15045E-4
1511.718750; 1.05124E-4
1517.578125; 9.83525E-5
1523.437500; 1.05538E-4
1529.296875; 1.04271E-4
1535.156250; 1.13138E-4
1541.015625; 1.10903E-4
1546.875000; 1.11709E-4
1552.734375; 9.82914E-5
1558.593750; 9.42709E-5
1564.453125; 1.06857E-4
1570.312500; 1.14816E-4
1576.171875; 1.16746E-4
1582.031250; 1.11688E-4
1587.890625; 1.13009E-4
1593.750000; 1.02895E-4
1599.609375; 1.00763E-4
1605.468750; 9.55651E-5
1611.328125; 1.05635E-4
1617.187500; 1.20185E-4
1623.046875; 1.11688E-4
1628.906250; 1.13518E-4
1634.765625; 1.08110E-4
1640.625000; 1.03740E-4
1646.484375; 1.09636E-4
1652.343750; 1.00990E-4
1658.203125; 1.04452E-4
1664.062500; 1.14496E-4
1669.921875; 1.08532E-4
1675.781250; 1.11204E-4
1681.640625; 1.05688E-4
1687.500000; 9.91247E-5
1693.359375; 9.41588E-5
1699.218750; 1.05459E-4
1705.078125; 1.17883E-4
1710.937500; 1.10543E-4
1716.796875; 1.01264E-4
1722.656250; 9.68789E-5
1728.515625; 1.05381E-4
1734.375000; 1.07324E-4
1740.234375; 1.00575E-4
1746.093750; 9.98959E-5
1751.953125; 1.02597E-4
1757.812500; 1.04726E-4
1763.671875; 1.09828E-4
1769.531250; 1.04332E-4
1775.390625; 1.14862E-4
1781.250000; 1.07277E-4
1787.109375; 9.59562E-5
1792.968750; 1.06532E-4
1798.828125; 1.24974E-4
1804.687500; 1.21453E-4
1810.546875; 1.05180E-4
1816.406250; 1.04478E-4
1822.265625; 1.04946E-4
1828.125000; 1.15596E-4
1833.984375; 1.11874E-4
1839.843750; 1.07831E-4
1845.703125; 1.13959E-4
1851.562500; 1.14213E-4
1857.421875; 1.04732E-4
1863.281250; 1.04213E-4
1869.140625; 1.09606E-4
1875.000000; 1.03166E-4
1880.859375; 1.02219E-4
1886.718750; 1.04154E-4
1892.578125; 1.07076E-4
1898.437500; 1.08039E-4
1904.296875; 1.08561E-4
1910.156250; 1.13031E-4
1916.015625; 1.05814E-4
1921.875000; 1.11561E-4
1927.734375; 1.07709E-4
1933.593750; 1.07302E-4
1939.453125; 1.08720E-4
1945.312500; 1.01309E-4
1951.171875; 1.16620E-4
1957.031250; 1.17765E-4
1962.890625; 1.10777E-4
1968.750000; 1.10112E-4
1974.609375; 1.04014E-4
1980.468750; 9.90754E-5
1986.328125; 1.08350E-4
1992.187500; 1.07124E-4
1998.046875; 1.34823E-4
2003.906250; 1.17397E-4
2009.765625; 1.09606E-4
2015.625000; 1.01270E-4
2021.484375; 9.79981E-5
2027.343750; 1.03267E-4
2033.203125; 1.05683E-4
2039.062500; 1.10396E-4
2044.921875; 1.00168E-4
2050.781250; 1.07334E-4
2056.640625; 1.13194E-4
2062.500000; 9.87273E-5
2068.359375; 9.67584E-5
2074.218750; 9.90782E-5
2080.078125; 1.05896E-4
2085.937500; 1.02783E-4
2091.796875; 1.07677E-4
2097.656250; 1.15378E-4
2103.515625; 1.10147E-4
2109.375000; 1.02168E-4
2115.234375; 1.00231E-4
2121.093750; 9.79913E-5
2126.953125; 1.05047E-4
2132.812500; 1.12002E-4
2138.671875; 1.10243E-4
2144.531250; 1.01208E-4
2150.390625; 9.88509E-5
2156.250000; 1.09639E-4
2162.109375; 1.00474E-4
2167.968750; 1.05042E-4
2173.828125; 1.06455E-4
2179.687500; 1.08703E-4
2185.546875; 1.11822E-4
2191.406250; 1.17544E-4
2197.265625; 1.21968E-4
2203.125000; 1.19803E-4
2208.984375; 1.03292E-4
2214.843750; 9.69190E-5
2220.703125; 9.48785E-5
2226.562500; 1.02789E-4
2232.421875; 9.66944E-5
2238.281250; 9.43697E-5
2244.140625; 9.70712E-5
2250.000000; 1.00126E-4
2255.859375; 9.45443E-5
2261.718750; 1.01091E-4
2267.578125; 1.07130E-4
2273.437500; 1.04409E-4
2279.296875; 1.04751E-4
2285.156250; 1.00655E-4
2291.015625; 9.67468E-5
2296.875000; 9.70638E-5
2302.734375; 9.78441E-5
2308.593750; 9.23960E-5
2314.453125; 1.07182E-4
2320.312500; 1.08932E-4
2326.171875; 1.11950E-4
2332.031250; 1.01225E-4
2337.890625; 9.92401E-5
2343.750000; 9.77425E-5
2349.609375; 1.06421E-4
2355.468750; 1.05156E-4
2361.328125; 9.03739E-5
2367.187500; 9.04484E-5
2373.046875; 1.08268E-4
2378.906250; 1.02462E-4
2384.765625; 9.49019E-5
2390.625000; 1.01018E-4
2396.484375; 9.92109E-5
2402.343750; 1.11065E-4
2408.203125; 1.10626E-4
2414.062500; 1.11013E-4
2419.921875; 1.10784E-4
2425.781250; 1.06091E-4
2431.640625; 1.00762E-4
2437.500000; 9.80868E-5
2443.359375; 1.06282E-4
2449.218750; 1.10435E-4
2455.078125; 1.06212E-4
2460.937500; 9.89858E-5
2466.796875; 9.13166E-5
2472.656250; 8.82520E-5
2478.515625; 8.86867E-5
2484.375000; 9.72204E-5
2490.234375; 1.03472E-4
2496.093750; 1.09056E-4
2501.953125; 1.07528E-4
2507.812500; 9.47249E-5
2513.671875; 1.00419E-4
2519.531250; 1.12348E-4
2525.390625; 1.11015E-4
2531.250000; 1.00068E-4
2537.109375; 1.05518E-4
2542.968750; 1.08942E-4
2548.828125; 1.10236E-4
2554.687500; 1.17807E-4
2560.546875; 1.17858E-4
2566.406250; 1.04981E-4
2572.265625; 1.02342E-4
2578.125000; 9.53037E-5
2583.984375; 1.05912E-4
2589.843750; 1.09003E-4
2595.703125; 1.04784E-4
2601.562500; 1.01715E-4
2607.421875; 1.03732E-4
2613.281250; 1.19579E-4
2619.140625; 1.15448E-4
2625.000000; 9.96158E-5
2630.859375; 9.98326E-5
2636.718750; 1.08346E-4
2642.578125; 1.06717E-4
2648.437500; 1.07155E-4
2654.296875; 1.07896E-4
2660.156250; 1.18578E-4
2666.015625; 1.10362E-4
2671.875000; 1.10674E-4
2677.734375; 1.05255E-4
2683.593750; 1.06838E-4
2689.453125; 1.14137E-4
2695.312500; 1.04534E-4
2701.171875; 9.38081E-5
2707.031250; 9.77413E-5
2712.890625; 1.02851E-4
2718.750000; 1.11651E-4
2724.609375; 1.09315E-4
2730.468750; 1.09983E-4
2736.328125; 1.05775E-4
2742.187500; 9.63314E-5
2748.046875; 1.02924E-4
2753.906250; 1.13298E-4
2759.765625; 1.10342E-4
2765.625000; 1.00276E-4
2771.484375; 1.08097E-4
2777.343750; 1.07342E-4
2783.203125; 1.03849E-4
2789.062500; 1.00029E-4
2794.921875; 1.09069E-4
2800.781250; 1.06662E-4
2806.640625; 1.02275E-4
2812.500000; 1.07156E-4
2818.359375; 1.05810E-4
2824.218750; 9.89220E-5
2830.078125; 1.05972E-4
2835.937500; 1.03172E-4
2841.796875; 1.05572E-4
2847.656250; 1.03228E-4
2853.515625; 1.06707E-4
2859.375000; 1.09163E-4
2865.234375; 1.05768E-4
2871.093750; 1.04518E-4
2876.953125; 1.07538E-4
2882.812500; 1.03873E-4
2888.671875; 1.02998E-4
2894.531250; 1.03981E-4
2900.390625; 1.10252E-4
2906.250000; 1.01223E-4
2912.109375; 1.02305E-4
2917.968750; 1.08783E-4
2923.828125; 9.61980E-5
2929.687500; 1.06235E-4
2935.546875; 1.07466E-4
2941.406250; 1.09780E-4
2947.265625; 1.18763E-4
2953.125000; 1.14291E-4
2958.984375; 1.09472E-4
2964.843750; 1.02504E-4
2970.703125; 1.00727E-4
2976.562500; 1.16567E-4
2982.421875; 1.11313E-4
2988.281250; 1.02527E-4
2994.140625; 9.82385E-5
3000.000000; 8.77980E-5
3005.859375; 9.98260E-5
3011.718750; 1.04073E-4
3017.578125; 1.03595E-4
3023.437500; 9.97368E-5
3029.296875; 1.02858E-4
3035.156250; 1.07977E-4
3041.015625; 1.14802E-4
3046.875000; 1.15725E-4
3052.734375; 1.20601E-4
3058.593750; 1.20785E-4
3064.453125; 1.08247E-4
3070.312500; 1.04947E-4
3076.171875; 1.11999E-4
3082.031250; 1.08303E-4
3087.890625; 1.00579E-4
3093.750000; 9.50281E-5
3099.609375; 9.41665E-5
3105.468750; 1.04845E-4
3111.328125; 1.07516E-4
3117.187500; 1.12801E-4
3123.046875; 1.12387E-4
3128.906250; 1.05949E-4
3134.765625; 1.06910E-4
3140.625000; 1.02808E-4
3146.484375; 1.04027E-4
3152.343750; 1.05702E-4
3158.203125; 1.01150E-4
3164.062500; 9.64065E-5
3169.921875; 1.04662E-4
3175.781250; 1.06342E-4
3181.640625; 1.04340E-4
3187.500000; 1.01833E-4
3193.359375; 1.07204E-4
3199.218750; 1.13213E-4
3205.078125; 1.13520E-4
3210.937500; 1.02354E-4
3216.796875; 1.03099E-4
3222.656250; 9.91416E-5
3228.515625; 1.02386E-4
3234.375000; 1.00587E-4
3240.234375; 1.02941E-4
3246.093750; 9.86109E-5
3251.953125; 9.91929E-5
3257.812500; 9.97005E-5
3263.671875; 1.05113E-4
3269.531250; 1.16313E-4
3275.390625; 1.15904E-4
3281.250000; 9.52581E-5
3287.109375; 1.04107E-4
3292.968750; 1.09270E-4
3298.828125; 1.15644E-4
3304.687500; 1.12101E-4
3310.546875; 9.77844E-5
3316.406250; 8.72425E-5
3322.265625; 1.00919E-4
3328.125000; 1.05804E-4
3333.984375; 1.11335E-4
3339.843750; 1.10342E-4
3345.703125; 1.01613E-4
3351.562500; 1.06042E-4
3357.421875; 1.12856E-4
3363.281250; 1.16087E-4
3369.140625; 1.13864E-4
3375.000000; 1.07434E-4
3380.859375; 1.07994E-4
3386.718750; 1.02965E-4
3392.578125; 1.14118E-4
3398.437500; 1.11387E-4
3404.296875; 1.12830E-4
3410.156250; 1.05088E-4
3416.015625; 1.00632E-4
3421.875000; 1.00869E-4
3427.734375; 9.88236E-5
3433.593750; 9.96733E-5
3439.453125; 1.01623E-4
3445.312500; 1.06120E-4
3451.171875; 1.12901E-4
3457.031250; 1.11199E-4
3462.890625; 1.03692E-4
3468.750000; 1.01662E-4
3474.609375; 1.13340E-4
3480.468750; 1.08331E-4
3486.328125; 9.98276E-5
3492.187500; 1.05621E-4
3498.046875; 1.12917E-4
3503.906250; 1.07987E-4
3509.765625; 1.05087E-4
3515.625000; 1.00136E-4
3521.484375; 1.02830E-4
3527.343750; 1.05276E-4
3533.203125; 9.71659E-5
3539.062500; 1.00950E-4
3544.921875; 1.01021E-4
3550.781250; 1.02183E-4
3556.640625; 9.97480E-5
3562.500000; 9.72448E-5
3568.359375; 1.00404E-4
3574.218750; 9.28038E-5
3580.078125; 9.20021E-5
3585.937500; 1.06398E-4
3591.796875; 1.07018E-4
3597.656250; 9.75450E-5
3603.515625; 9.55207E-5
3609.375000; 1.00914E-4
3615.234375; 1.05596E-4
3621.093750; 1.06705E-4
3626.953125; 1.08705E-4
3632.812500; 1.10581E-4
3638.671875; 1.07657E-4
3644.531250; 1.01065E-4
3650.390625; 1.11444E-4
3656.250000; 1.16570E-4
3662.109375; 1.06702E-4
3667.968750; 1.00059E-4
3673.828125; 1.07797E-4
3679.687500; 1.02684E-4
3685.546875; 9.54076E-5
3691.406250; 1.01108E-4
3697.265625; 1.09896E-4
3703.125000; 1.07635E-4
3708.984375; 1.06175E-4
3714.843750; 9.97092E-5
3720.703125; 9.76627E-5
3726.562500; 1.01552E-4
3732.421875; 1.09363E-4
3738.281250; 1.01196E-4
3744.140625; 9.81382E-5
3750.000000; 1.06885E-4
3755.859375; 1.04014E-4
3761.718750; 9.78547E-5
3767.578125; 1.02372E-4
3773.437500; 1.06352E-4
3779.296875; 1.00033E-4
3785.156250; 9.91997E-5
3791.015625; 1.03824E-4
3796.875000; 1.06914E-4
3802.734375; 9.61248E-5
3808.593750; 1.01539E-4
3814.453125; 1.00262E-4
3820.312500; 9.34468E-5
3826.171875; 1.09402E-4
3832.031250; 1.04988E-4
3837.890625; 1.04527E-4
3843.750000; 1.00495E-4
3849.609375; 1.07754E-4
3855.468750; 1.00435E-4
3861.328125; 9.79201E-5
3867.187500; 1.06177E-4
3873.046875; 1.11409E-4
3878.906250; 1.05058E-4
3884.765625; 9.21507E-5
3890.625000; 8.66483E-5
3896.484375; 9.99456E-5
3902.343750; 1.08693E-4
3908.203125; 1.10727E-4
3914.062500; 1.12475E-4
3919.921875; 1.05104E-4
3925.781250; 9.30397E-5
3931.640625; 9.96331E-5
3937.500000; 1.08250E-4
3943.359375; 1.00758E-4
3949.218750; 1.00670E-4
3955.078125; 1.08768E-4
3960.937500; 1.10968E-4
3966.796875; 1.04912E-4
3972.656250; 9.39430E-5
3978.515625; 9.46534E-5
3984.375000; 9.06627E-5
3990.234375; 9.51876E-5
3996.093750; 9.79701E-5
4001.953125; 9.16258E-5
4007.812500; 9.41095E-5
4013.671875; 1.14676E-4
4019.531250; 1.12592E-4
4025.390625; 1.09709E-4
4031.250000; 1.16435E-4
4037.109375; 1.19546E-4
4042.968750; 1.11153E-4
4048.828125; 1.03325E-4
4054.687500; 1.04490E-4
4060.546875; 1.12636E-4
4066.406250; 1.05036E-4
4072.265625; 1.07535E-4
4078.125000; 1.03915E-4
4083.984375; 1.06254E-4
4089.843750; 9.89807E-5
4095.703125; 1.04614E-4
4101.562500; 1.05109E-4
4107.421875; 9.71303E-5
4113.281250; 9.78014E-5
4119.140625; 9.86400E-5
4125.000000; 1.01021E-4
4130.859375; 1.08156E-4
4136.718750; 1.00313E-4
4142.578125; 1.04106E-4
4148.437500; 1.07880E-4
4154.296875; 1.07024E-4
4160.156250; 1.07140E-4
4166.015625; 1.05609E-4
4171.875000; 1.01373E-4
4177.734375; 9.83507E-5
4183.593750; 9.99603E-5
4189.453125; 1.03991E-4
4195.312500; 9.75044E-5
4201.171875; 9.96593E-5
4207.031250; 9.44369E-5
4212.890625; 1.10797E-4
4218.750000; 1.08536E-4
4224.609375; 9.42926E-5
4230.468750; 1.04467E-4
4236.328125; 9.86404E-5
4242.187500; 9.00934E-5
4248.046875; 1.08892E-4
4253.906250; 1.08320E-4
4259.765625; 1.06247E-4
4265.625000; 1.09926E-4
4271.484375; 1.14078E-4
4277.343750; 1.11292E-4
4283.203125; 1.06343E-4
4289.062500; 1.02440E-4
4294.921875; 1.18286E-4
4300.781250; 1.20569E-4
4306.640625; 1.08620E-4
4312.500000; 1.06369E-4
4318.359375; 1.03868E-4
4324.218750; 1.10180E-4
4330.078125; 1.04966E-4
4335.937500; 9.94907E-5
4341.796875; 9.57080E-5
4347.656250; 9.94429E-5
4353.515625; 1.11046E-4
4359.375000; 1.17722E-4
4365.234375; 1.09568E-4
4371.093750; 9.64113E-5
4376.953125; 1.04130E-4
4382.812500; 1.10212E-4
4388.671875; 1.11306E-4
4394.531250; 1.04538E-4
4400.390625; 1.06412E-4
4406.250000; 1.00052E-4
4412.109375; 1.02603E-4
4417.968750; 1.01790E-4
4423.828125; 1.13276E-4
4429.687500; 1.11301E-4
4435.546875; 9.78398E-5
4441.406250; 9.43329E-5
4447.265625; 1.07236E-4
4453.125000; 1.16670E-4
4458.984375; 1.08279E-4
4464.843750; 9.94276E-5
4470.703125; 9.20101E-5
4476.562500; 9.20485E-5
4482.421875; 9.75990E-5
4488.281250; 9.60885E-5
4494.140625; 9.88415E-5
4500.000000; 1.09167E-4
4505.859375; 1.09493E-4
4511.718750; 1.03340E-4
4517.578125; 1.04255E-4
4523.437500; 9.68982E-5
4529.296875; 1.00608E-4
4535.156250; 9.89826E-5
4541.015625; 9.92461E-5
4546.875000; 1.12834E-4
4552.734375; 1.17085E-4
4558.593750; 1.01836E-4
4564.453125; 9.53392E-5
4570.312500; 9.83142E-5
4576.171875; 1.15368E-4
4582.031250; 1.19570E-4
4587.890625; 1.06970E-4
4593.750000; 1.08323E-4
4599.609375; 1.08206E-4
4605.468750; 1.01943E-4
4611.328125; 9.67899E-5
4617.187500; 9.84322E-5
4623.046875; 1.07544E-4
4628.906250; 9.98922E-5
4634.765625; 9.94556E-5
4640.625000; 9.41596E-5
4646.484375; 9.06427E-5
4652.343750; 9.91366E-5
4658.203125; 9.97988E-5
4664.062500; 1.10813E-4
4669.921875; 1.15422E-4
4675.781250; 1.06853E-4
4681.640625; 1.06957E-4
4687.500000; 9.21997E-5
4693.359375; 9.47320E-5
4699.218750; 9.89934E-5
4705.078125; 9.93746E-5
4710.937500; 9.52935E-5
4716.796875; 9.23125E-5
4722.656250; 9.95119E-5
4728.515625; 1.07328E-4
4734.375000; 1.06602E-4
4740.234375; 1.11623E-4
4746.093750; 1.12438E-4
4751.953125; 9.82300E-5
4757.812500; 1.04517E-4
4763.671875; 1.11780E-4
4769.531250; 1.07454E-4
4775.390625; 1.04714E-4
4781.250000; 1.03626E-4
4787.109375; 1.08675E-4
4792.968750; 1.06745E-4
4798.828125; 1.05359E-4
4804.687500; 1.06273E-4
4810.546875; 9.38711E-5
4816.406250; 9.30863E-5
4822.265625; 9.42311E-5
4828.125000; 1.01024E-4
4833.984375; 1.04222E-4
4839.843750; 1.14029E-4
4845.703125; 1.06572E-4
4851.562500; 1.04213E-4
4857.421875; 1.05352E-4
4863.281250; 1.00906E-4
4869.140625; 1.00550E-4
4875.000000; 1.12617E-4
4880.859375; 1.09868E-4
4886.718750; 1.09470E-4
4892.578125; 1.09662E-4
4898.437500; 1.01871E-4
4904.296875; 1.02035E-4
4910.156250; 1.09966E-4
4916.015625; 1.08911E-4
4921.875000; 9.51797E-5
4927.734375; 1.04338E-4
4933.593750; 1.10497E-4
4939.453125; 1.15272E-4
4945.312500; 1.17100E-4
4951.171875; 1.01430E-4
4957.031250; 1.00782E-4
4962.890625; 9.92967E-5
4968.750000; 1.09375E-4
4974.609375; 1.01806E-4
4980.468750; 1.00549E-4
4986.328125; 1.12712E-4
4992.187500; 1.06404E-4
4998.046875; 9.72140E-5
5003.906250; 9.71167E-5
5009.765625; 1.07561E-4
5015.625000; 1.03327E-4
5021.484375; 9.86315E-5
5027.343750; 1.06945E-4
5033.203125; 1.03842E-4
5039.062500; 1.05271E-4
5044.921875; 9.66584E-5
5050.781250; 9.58197E-5
5056.640625; 1.04026E-4
5062.500000; 1.08797E-4
5068.359375; 1.13609E-4
5074.218750; 9.71289E-5
5080.078125; 1.00164E-4
5085.937500; 1.07739E-4
5091.796875; 1.11423E-4
5097.656250; 9.78346E-5
5103.515625; 9.72646E-5
5109.375000; 1.09855E-4
5115.234375; 1.05469E-4
5121.093750; 1.03739E-4
5126.953125; 1.09744E-4
5132.812500; 1.02450E-4
5138.671875; 1.01098E-4
5144.531250; 1.04299E-4
5150.390625; 1.00962E-4
5156.250000; 9.45336E-5
5162.109375; 1.04679E-4
5167.968750; 1.07145E-4
5173.828125; 9.94398E-5
5179.687500; 1.01110E-4
5185.546875; 9.55015E-5
5191.406250; 9.36785E-5
5197.265625; 1.03602E-4
5203.125000; 1.06070E-4
5208.984375; 1.03201E-4
5214.843750; 1.10271E-4
5220.703125; 1.08008E-4
5226.562500; 1.08793E-4
5232.421875; 1.06434E-4
5238.281250; 1.04465E-4
5244.140625; 1.12734E-4
5250.000000; 1.10953E-4
5255.859375; 1.11665E-4
5261.718750; 1.06280E-4
5267.578125; 1.04824E-4
5273.437500; 1.06848E-4
5279.296875; 9.83377E-5
5285.156250; 1.04519E-4
5291.015625; 1.05906E-4
5296.875000; 1.05239E-4
5302.734375; 1.06960E-4
5308.593750; 1.01090E-4
5314.453125; 1.00313E-4
5320.312500; 9.87116E-5
5326.171875; 1.01999E-4
5332.031250; 1.10328E-4
5337.890625; 1.01911E-4
5343.750000; 1.00828E-4
5349.609375; 1.07346E-4
5355.468750; 1.07261E-4
5361.328125; 1.06221E-4
5367.187500; 1.05220E-4
5373.046875; 1.09258E-4
5378.906250; 1.07196E-4
5384.765625; 9.25616E-5
5390.625000; 9.15247E-5
5396.484375; 1.09376E-4
5402.343750; 1.05224E-4
5408.203125; 9.83683E-5
5414.062500; 1.03634E-4
5419.921875; 1.10278E-4
5425.781250; 1.05718E-4
5431.640625; 1.00727E-4
5437.500000; 9.53805E-5
5443.359375; 9.74657E-5
5449.218750; 9.27415E-5
5455.078125; 9.69526E-5
5460.937500; 9.87151E-5
5466.796875; 1.06559E-4
5472.656250; 1.10102E-4
5478.515625; 1.09600E-4
5484.375000; 1.14448E-4
5490.234375; 1.06863E-4
5496.093750; 1.08187E-4
5501.953125; 1.13519E-4
5507.812500; 1.13066E-4
5513.671875; 1.24705E-4
5519.531250; 1.06439E-4
5525.390625; 1.05759E-4
5531.250000; 1.02579E-4
5537.109375; 9.58340E-5
5542.968750; 9.21087E-5
5548.828125; 1.10132E-4
5554.687500; 1.16318E-4
5560.546875; 1.08926E-4
5566.406250; 9.95981E-5
5572.265625; 9.84943E-5
5578.125000; 9.63550E-5
5583.984375; 1.05012E-4
5589.843750; 1.04190E-4
5595.703125; 1.06891E-4
5601.562500; 1.04113E-4
5607.421875; 1.03377E-4
5613.281250; 9.77368E-5
5619.140625; 1.05521E-4
5625.000000; 1.06511E-4
5630.859375; 1.04116E-4
5636.718750; 9.72138E-5
5642.578125; 9.61009E-5
5648.437500; 9.81691E-5
5654.296875; 1.01215E-4
5660.156250; 1.02076E-4
5666.015625; 1.04918E-4
5671.875000; 1.02997E-4
5677.734375; 1.09365E-4
5683.593750; 1.01835E-4
5689.453125; 9.40775E-5
5695.312500; 1.01977E-4
5701.171875; 1.04711E-4
5707.031250; 1.12292E-4
5712.890625; 1.15625E-4
5718.750000; 1.06906E-4
5724.609375; 1.07130E-4
5730.468750; 1.13810E-4
5736.328125; 1.07898E-4
5742.187500; 1.05193E-4
5748.046875; 9.65749E-5
5753.906250; 9.80427E-5
5759.765625; 9.94646E-5
5765.625000; 9.04190E-5
5771.484375; 9.44593E-5
5777.343750; 1.00424E-4
5783.203125; 1.03213E-4
5789.062500; 9.74870E-5
5794.921875; 1.02609E-4
5800.781250; 1.08491E-4
5806.640625; 1.04482E-4
5812.500000; 1.19275E-4
5818.359375; 1.13914E-4
5824.218750; 1.05611E-4
5830.078125; 1.02919E-4
5835.937500; 1.01691E-4
5841.796875; 1.02308E-4
5847.656250; 1.03296E-4
5853.515625; 1.11651E-4
5859.375000; 1.07914E-4
5865.234375; 1.04955E-4
5871.093750; 9.89230E-5
5876.953125; 9.90982E-5
5882.812500; 1.18359E-4
5888.671875; 1.11666E-4
5894.531250; 9.42964E-5
5900.390625; 9.45323E-5
5906.250000; 1.00282E-4
5912.109375; 1.05283E-4
5917.968750; 1.08606E-4
5923.828125; 1.15392E-4
5929.687500; 1.03541E-4
5935.546875; 9.22499E-5
5941.406250; 1.03568E-4
5947.265625; 1.07529E-4
5953.125000; 1.01900E-4
5958.984375; 1.00449E-4
5964.843750; 9.83553E-5
5970.703125; 9.34197E-5
5976.562500; 9.01961E-5
5982.421875; 9.81728E-5
5988.281250; 1.08409E-4
5994.140625; 9.95043E-5
6000.000000; 9.88327E-5
6005.859375; 9.63583E-5
6011.718750; 9.89263E-5
6017.578125; 9.34947E-5
6023.437500; 1.05142E-4
6029.296875; 1.02847E-4
6035.156250; 9.76186E-5
6041.015625; 9.73082E-5
6046.875000; 1.00644E-4
6052.734375; 1.07802E-4
6058.593750; 1.05526E-4
6064.453125; 1.04161E-4
6070.312500; 1.06856E-4
6076.171875; 1.05019E-4
6082.031250; 1.03438E-4
6087.890625; 1.03917E-4
6093.750000; 1.05929E-4
6099.609375; 9.22524E-5
6105.468750; 9.96682E-5
6111.328125; 1.02634E-4
6117.187500; 9.86566E-5
6123.046875; 9.84185E-5
6128.906250; 1.01747E-4
6134.765625; 1.00815E-4
6140.625000; 9.82024E-5
6146.484375; 9.25364E-5
6152.343750; 9.45572E-5
6158.203125; 1.04975E-4
6164.062500; 1.10916E-4
6169.921875; 1.10433E-4
6175.781250; 1.09996E-4
6181.640625; 1.03335E-4
6187.500000; 1.01477E-4
6193.359375; 9.65004E-5
6199.218750; 1.01581E-4
6205.078125; 1.02394E-4
6210.937500; 1.07203E-4
6216.796875; 1.03010E-4
6222.656250; 9.38305E-5
6228.515625; 9.59729E-5
6234.375000; 1.10153E-4
6240.234375; 1.03735E-4
6246.093750; 1.05564E-4
6251.953125; 1.04342E-4
6257.812500; 1.06652E-4
6263.671875; 1.03657E-4
6269.531250; 1.02957E-4
6275.390625; 1.03741E-4
6281.250000; 1.18109E-4
6287.109375; 1.00183E-4
6292.968750; 9.97878E-5
6298.828125; 1.03306E-4
6304.687500; 1.02819E-4
6310.546875; 9.63457E-5
6316.406250; 1.01983E-4
6322.265625; 1.04828E-4
6328.125000; 1.01864E-4
6333.984375; 1.00538E-4
6339.843750; 9.75139E-5
6345.703125; 9.67498E-5
6351.562500; 1.12291E-4
6357.421875; 1.10338E-4
6363.281250; 1.05266E-4
6369.140625; 1.04216E-4
6375.000000; 1.06238E-4
6380.859375; 1.09763E-4
6386.718750; 1.04807E-4
6392.578125; 1.03308E-4
6398.437500; 1.00855E-4
6404.296875; 9.60514E-5
6410.156250; 1.03199E-4
6416.015625; 9.94253E-5
6421.875000; 1.08922E-4
6427.734375; 1.05431E-4
6433.593750; 1.02662E-4
6439.453125; 9.93964E-5
6445.312500; 1.01726E-4
6451.171875; 1.09785E-4
6457.031250; 1.16133E-4
6462.890625; 1.04310E-4
6468.750000; 1.00644E-4
6474.609375; 9.90051E-5
6480.468750; 1.00251E-4
6486.328125; 1.11877E-4
6492.187500; 1.06838E-4
6498.046875; 9.87070E-5
6503.906250; 1.09562E-4
6509.765625; 1.05447E-4
6515.625000; 1.03671E-4
6521.484375; 1.11886E-4
6527.343750; 1.05236E-4
6533.203125; 1.03263E-4
6539.062500; 1.14530E-4
6544.921875; 1.09578E-4
6550.781250; 9.14444E-5
6556.640625; 1.04847E-4
6562.500000; 1.12556E-4
6568.359375; 1.02730E-4
6574.218750; 9.79276E-5
6580.078125; 1.01022E-4
6585.937500; 1.01421E-4
6591.796875; 1.03079E-4
6597.656250; 1.06931E-4
6603.515625; 1.00772E-4
6609.375000; 9.57261E-5
6615.234375; 8.94861E-5
6621.093750; 1.03835E-4
6626.953125; 1.01002E-4
6632.812500; 9.88025E-5
6638.671875; 1.00082E-4
6644.531250; 9.47290E-5
6650.390625; 1.03842E-4
6656.250000; 1.02794E-4
6662.109375; 9.87818E-5
6667.968750; 1.04215E-4
6673.828125; 1.08981E-4
6679.687500; 1.07864E-4
6685.546875; 1.12580E-4
6691.406250; 1.03743E-4
6697.265625; 1.04215E-4
6703.125000; 1.02013E-4
6708.984375; 9.67658E-5
6714.843750; 1.05534E-4
6720.703125; 1.04559E-4
6726.562500; 9.98654E-5
6732.421875; 1.05478E-4
6738.281250; 1.20712E-4
6744.140625; 1.21740E-4
6750.000000; 1.05575E-4
6755.859375; 9.64931E-5
6761.718750; 9.40733E-5
6767.578125; 1.13382E-4
6773.437500; 1.14944E-4
6779.296875; 1.06035E-4
6785.156250; 1.08015E-4
6791.015625; 1.09802E-4
6796.875000; 1.05552E-4
6802.734375; 1.10210E-4
6808.593750; 1.09657E-4
6814.453125; 9.34448E-5
6820.312500; 8.46314E-5
6826.171875; 9.68516E-5
6832.031250; 9.88252E-5
6837.890625; 1.07130E-4
6843.750000; 1.12983E-4
6849.609375; 9.95488E-5
6855.468750; 1.01144E-4
6861.328125; 1.13576E-4
6867.187500; 1.05380E-4
6873.046875; 1.10384E-4
6878.906250; 1.10896E-4
6884.765625; 1.03288E-4
6890.625000; 9.95856E-5
6896.484375; 1.03097E-4
6902.343750; 1.02060E-4
6908.203125; 1.07387E-4
6914.062500; 1.04236E-4
6919.921875; 1.01565E-4
6925.781250; 9.90121E-5
6931.640625; 9.92566E-5
6937.500000; 1.05661E-4
6943.359375; 1.02394E-4
6949.218750; 9.91226E-5
6955.078125; 9.35535E-5
6960.937500; 9.92227E-5
6966.796875; 1.04973E-4
6972.656250; 1.04975E-4
6978.515625; 9.47762E-5
6984.375000; 9.03927E-5
6990.234375; 1.00513E-4
6996.093750; 1.04711E-4
7001.953125; 1.10188E-4
7007.812500; 1.07430E-4
7013.671875; 9.29424E-5
7019.531250; 9.91274E-5
7025.390625; 1.10030E-4
7031.250000; 1.13149E-4
7037.109375; 1.12609E-4
7042.968750; 1.05078E-4
7048.828125; 1.10654E-4
7054.687500; 1.07707E-4
7060.546875; 1.00735E-4
7066.406250; 1.01131E-4
7072.265625; 1.02046E-4
7078.125000; 9.85412E-5
7083.984375; 1.06628E-4
7089.843750; 1.04027E-4
7095.703125; 1.02616E-4
7101.562500; 1.04317E-4
7107.421875; 1.10001E-4
7113.281250; 1.05372E-4
7119.140625; 1.03128E-4
7125.000000; 9.28617E-5
7130.859375; 9.52348E-5
7136.718750; 9.78571E-5
7142.578125; 1.15681E-4
7148.437500; 1.20498E-4
7154.296875; 1.04321E-4
7160.156250; 9.71235E-5
7166.015625; 1.06179E-4
7171.875000; 1.03436E-4
7177.734375; 1.09990E-4
7183.593750; 1.06298E-4
7189.453125; 1.00708E-4
7195.312500; 1.00669E-4
7201.171875; 1.01379E-4
7207.031250; 9.72288E-5
7212.890625; 9.88136E-5
7218.750000; 9.87891E-5
7224.609375; 9.20799E-5
7230.468750; 9.37067E-5
7236.328125; 1.04286E-4
7242.187500; 1.19037E-4
7248.046875; 1.01151E-4
7253.906250; 9.77317E-5
7259.765625; 1.03676E-4
7265.625000; 1.04909E-4
7271.484375; 1.09026E-4
7277.343750; 1.16422E-4
7283.203125; 1.04779E-4
7289.062500; 1.03532E-4
7294.921875; 1.01389E-4
7300.781250; 1.04862E-4
7306.640625; 1.05741E-4
7312.500000; 1.01696E-4
7318.359375; 1.05354E-4
7324.218750; 1.01440E-4
7330.078125; 1.01113E-4
7335.937500; 9.79626E-5
7341.796875; 1.00411E-4
7347.656250; 1.04426E-4
7353.515625; 1.18433E-4
7359.375000; 1.06780E-4
7365.234375; 9.98643E-5
7371.093750; 1.04098E-4
7376.953125; 1.11547E-4
7382.812500; 1.13301E-4
7388.671875; 1.03942E-4
7394.531250; 1.00101E-4
7400.390625; 9.59160E-5
7406.250000; 1.03522E-4
7412.109375; 1.08936E-4
7417.968750; 1.04629E-4
7423.828125; 1.02641E-4
7429.687500; 9.61029E-5
7435.546875; 1.00810E-4
7441.406250; 1.10185E-4
7447.265625; 1.09950E-4
7453.125000; 1.06457E-4
7458.984375; 1.02990E-4
7464.843750; 1.03453E-4
7470.703125; 9.93903E-5
7476.562500; 9.16840E-5
7482.421875; 9.75804E-5
7488.281250; 1.13530E-4
7494.140625; 1.09466E-4
7500.000000; 1.00005E-4
7505.859375; 9.59558E-5
7511.718750; 9.01636E-5
7517.578125; 1.15675E-4
7523.437500; 1.20269E-4
7529.296875; 1.09384E-4
7535.156250; 9.87606E-5
7541.015625; 1.08526E-4
7546.875000; 1.16971E-4
7552.734375; 1.02593E-4
7558.593750; 1.05740E-4
7564.453125; 1.11014E-4
7570.312500; 1.13209E-4
7576.171875; 1.02671E-4
7582.031250; 1.06211E-4
7587.890625; 1.18866E-4
7593.750000; 1.08416E-4
7599.609375; 1.09477E-4
7605.468750; 1.14113E-4
7611.328125; 1.08769E-4
7617.187500; 1.00328E-4
7623.046875; 1.02138E-4
7628.906250; 1.08080E-4
7634.765625; 1.11863E-4
7640.625000; 1.15487E-4
7646.484375; 1.06430E-4
7652.343750; 1.01252E-4
7658.203125; 1.14948E-4
7664.062500; 1.16996E-4
7669.921875; 1.08919E-4
7675.781250; 1.07248E-4
7681.640625; 9.77989E-5
7687.500000; 9.34533E-5
7693.359375; 1.03451E-4
7699.218750; 1.03574E-4
7705.078125; 1.02447E-4
7710.937500; 9.43921E-5
7716.796875; 9.83865E-5
7722.656250; 9.76711E-5
7728.515625; 9.42506E-5
7734.375000; 9.75653E-5
7740.234375; 1.03935E-4
7746.093750; 1.07707E-4
7751.953125; 9.56553E-5
7757.812500; 8.94700E-5
7763.671875; 9.52125E-5
7769.531250; 9.80454E-5
7775.390625; 1.05211E-4
7781.250000; 1.02198E-4
7787.109375; 1.03309E-4
7792.968750; 9.97746E-5
7798.828125; 1.01835E-4
7804.687500; 9.22106E-5
7810.546875; 9.26840E-5
7816.406250; 9.60392E-5
7822.265625; 9.99294E-5
7828.125000; 9.81496E-5
7833.984375; 9.72518E-5
7839.843750; 9.62822E-5
7845.703125; 1.07871E-4
7851.562500; 1.06010E-4
7857.421875; 1.03241E-4
7863.281250; 1.05440E-4
7869.140625; 1.03213E-4
7875.000000; 9.80407E-5
7880.859375; 9.30340E-5
7886.718750; 9.59798E-5
7892.578125; 1.02075E-4
7898.437500; 1.01745E-4
7904.296875; 1.05423E-4
7910.156250; 1.10939E-4
7916.015625; 1.06107E-4
7921.875000; 1.04006E-4
7927.734375; 1.08183E-4
7933.593750; 1.08654E-4
7939.453125; 1.06386E-4
7945.312500; 1.05918E-4
7951.171875; 1.06013E-4
7957.031250; 1.06715E-4
7962.890625; 1.03214E-4
7968.750000; 9.89131E-5
7974.609375; 1.04321E-4
7980.468750; 1.00747E-4
7986.328125; 1.06144E-4
7992.187500; 1.15220E-4
7998.046875; 1.13958E-4
8003.906250; 1.13973E-4
8009.765625; 1.11668E-4
8015.625000; 1.06133E-4
8021.484375; 9.86216E-5
8027.343750; 1.03826E-4
8033.203125; 1.15605E-4
8039.062500; 1.14908E-4
8044.921875; 1.05069E-4
8050.781250; 1.16413E-4
8056.640625; 1.09265E-4
8062.500000; 1.01779E-4
8068.359375; 1.13492E-4
8074.218750; 1.10430E-4
8080.078125; 9.75656E-5
8085.937500; 1.05744E-4
8091.796875; 1.06068E-4
8097.656250; 1.06470E-4
8103.515625; 1.15209E-4
8109.375000; 1.11577E-4
8115.234375; 1.02988E-4
8121.093750; 9.55117E-5
8126.953125; 9.42569E-5
8132.812500; 9.93205E-5
8138.671875; 9.51696E-5
8144.531250; 9.45278E-5
8150.390625; 1.02394E-4
8156.250000; 1.09348E-4
8162.109375; 1.02011E-4
8167.968750; 1.02722E-4
8173.828125; 1.01530E-4
8179.687500; 9.98482E-5
8185.546875; 1.03401E-4
8191.406250; 1.00397E-4
8197.265625; 1.06543E-4
8203.125000; 1.14246E-4
8208.984375; 1.04693E-4
8214.843750; 9.61929E-5
8220.703125; 1.00497E-4
8226.562500; 9.34619E-5
8232.421875; 9.71181E-5
8238.281250; 9.72793E-5
8244.140625; 1.07773E-4
8250.000000; 1.16561E-4
8255.859375; 1.05252E-4
8261.718750; 9.45919E-5
8267.578125; 1.03108E-4
8273.437500; 1.04376E-4
8279.296875; 1.07626E-4
8285.156250; 1.06525E-4
8291.015625; 9.72344E-5
8296.875000; 9.45793E-5
8302.734375; 9.39373E-5
8308.593750; 8.34088E-5
8314.453125; 8.99962E-5
8320.312500; 8.66066E-5
8326.171875; 9.51705E-5
8332.031250; 1.10373E-4
8337.890625; 1.14999E-4
8343.750000; 1.13412E-4
8349.609375; 1.08944E-4
8355.468750; 1.11263E-4
8361.328125; 1.05572E-4
8367.187500; 1.07289E-4
8373.046875; 1.07588E-4
8378.906250; 1.05676E-4
8384.765625; 9.69756E-5
8390.625000; 1.08774E-4
8396.484375; 1.10667E-4
8402.343750; 1.02210E-4
8408.203125; 1.01309E-4
8414.062500; 1.01897E-4
8419.921875; 1.03726E-4
8425.781250; 1.10273E-4
8431.640625; 1.00850E-4
8437.500000; 1.02345E-4
8443.359375; 1.12655E-4
8449.218750; 1.08288E-4
8455.078125; 1.03390E-4
8460.937500; 1.01505E-4
8466.796875; 1.03710E-4
8472.656250; 1.09649E-4
8478.515625; 9.69211E-5
8484.375000; 8.99073E-5
8490.234375; 9.89190E-5
8496.093750; 1.03442E-4
8501.953125; 9.91038E-5
8507.812500; 9.42399E-5
8513.671875; 9.61327E-5
8519.531250; 1.02052E-4
8525.390625; 9.70004E-5
8531.250000; 9.46870E-5
8537.109375; 1.00673E-4
8542.968750; 1.01144E-4
8548.828125; 1.06703E-4
8554.687500; 1.11015E-4
8560.546875; 1.10998E-4
8566.406250; 9.71780E-5
8572.265625; 9.81454E-5
8578.125000; 1.05179E-4
8583.984375; 1.08622E-4
8589.843750; 1.05136E-4
8595.703125; 9.87667E-5
8601.562500; 1.02674E-4
8607.421875; 9.93244E-5
8613.281250; 1.00825E-4
8619.140625; 9.89750E-5
8625.000000; 9.55492E-5
8630.859375; 8.99871E-5
8636.718750; 9.99571E-5
8642.578125; 1.05585E-4
8648.437500; 1.06776E-4
8654.296875; 9.87099E-5
8660.156250; 1.10680E-4
8666.015625; 1.03372E-4
8671.875000; 9.89892E-5
8677.734375; 9.97916E-5
8683.593750; 9.75548E-5
8689.453125; 9.73888E-5
8695.312500; 1.07736E-4
8701.171875; 1.13270E-4
8707.031250; 9.68491E-5
8712.890625; 9.60120E-5
8718.750000; 9.48538E-5
8724.609375; 9.47143E-5
8730.468750; 9.24183E-5
8736.328125; 1.00361E-4
8742.187500; 1.06210E-4
8748.046875; 1.03767E-4
8753.906250; 1.08177E-4
8759.765625; 1.03323E-4
8765.625000; 1.07426E-4
8771.484375; 1.05653E-4
8777.343750; 9.97985E-5
8783.203125; 1.00590E-4
8789.062500; 1.00952E-4
8794.921875; 1.00142E-4
8800.781250; 9.64499E-5
8806.640625; 9.99658E-5
8812.500000; 9.55971E-5
8818.359375; 9.91394E-5
8824.218750; 1.03647E-4
8830.078125; 1.06570E-4
8835.937500; 1.04845E-4
8841.796875; 1.00937E-4
8847.656250; 1.09745E-4
8853.515625; 9.94146E-5
8859.375000; 1.04863E-4
8865.234375; 1.01526E-4
8871.093750; 1.03571E-4
8876.953125; 9.99715E-5
8882.812500; 9.35091E-5
8888.671875; 9.61660E-5
8894.531250; 1.07038E-4
8900.390625; 1.08558E-4
8906.250000; 1.01889E-4
8912.109375; 1.00631E-4
8917.968750; 9.76179E-5
8923.828125; 9.08870E-5
8929.687500; 9.68327E-5
8935.546875; 1.10341E-4
8941.406250; 1.04969E-4
8947.265625; 1.17132E-4
8953.125000; 1.07699E-4
8958.984375; 1.03952E-4
8964.843750; 1.00142E-4
8970.703125; 1.02141E-4
8976.562500; 9.65699E-5
8982.421875; 1.00293E-4
8988.281250; 9.71051E-5
8994.140625; 9.87011E-5
9000.000000; 9.13690E-5
9005.859375; 1.01043E-4
9011.718750; 1.03889E-4
9017.578125; 9.87585E-5
9023.437500; 1.03890E-4
9029.296875; 1.06587E-4
9035.156250; 1.00280E-4
9041.015625; 1.04742E-4
9046.875000; 1.05059E-4
9052.734375; 1.06198E-4
9058.593750; 1.07710E-4
9064.453125; 9.68435E-5
9070.312500; 9.66748E-5
9076.171875; 9.53954E-5
9082.031250; 9.08708E-5
9087.890625; 1.00276E-4
9093.750000; 1.07875E-4
9099.609375; 1.02842E-4
9105.468750; 1.00986E-4
9111.328125; 9.94759E-5
9117.187500; 1.02270E-4
9123.046875; 1.01558E-4
9128.906250; 1.00350E-4
9134.765625; 1.02586E-4
9140.625000; 9.57810E-5
9146.484375; 1.00264E-4
9152.343750; 9.81702E-5
9158.203125; 1.01395E-4
9164.062500; 1.11703E-4
9169.921875; 1.10169E-4
9175.781250; 9.94641E-5
9181.640625; 9.76956E-5
9187.500000; 1.01334E-4
9193.359375; 1.04635E-4
9199.218750; 1.04892E-4
9205.078125; 1.02479E-4
9210.937500; 9.80560E-5
9216.796875; 1.00642E-4
9222.656250; 1.07548E-4
9228.515625; 1.02823E-4
9234.375000; 1.06257E-4
9240.234375; 1.15006E-4
9246.093750; 1.08539E-4
9251.953125; 1.03591E-4
9257.812500; 9.60099E-5
9263.671875; 1.08913E-4
9269.531250; 1.12199E-4
9275.390625; 1.03652E-4
9281.250000; 1.05840E-4
9287.109375; 1.09459E-4
9292.968750; 1.08628E-4
9298.828125; 1.07199E-4
9304.687500; 1.03789E-4
9310.546875; 1.07738E-4
9316.406250; 1.00475E-4
9322.265625; 9.58227E-5
9328.125000; 9.99435E-5
9333.984375; 1.07352E-4
9339.843750; 9.84611E-5
9345.703125; 1.00442E-4
9351.562500; 9.73872E-5
9357.421875; 1.00480E-4
9363.281250; 9.67780E-5
9369.140625; 1.05475E-4
9375.000000; 1.06205E-4
9380.859375; 1.15093E-4
9386.718750; 1.06570E-4
9392.578125; 9.43164E-5
9398.437500; 1.04698E-4
9404.296875; 1.05734E-4
9410.156250; 1.12587E-4
9416.015625; 1.15532E-4
9421.875000; 1.03843E-4
9427.734375; 1.09116E-4
9433.593750; 9.85636E-5
9439.453125; 9.22569E-5
9445.312500; 9.48541E-5
9451.171875; 1.08450E-4
9457.031250; 1.03375E-4
9462.890625; 9.69774E-5
9468.750000; 1.13491E-4
9474.609375; 1.15091E-4
9480.468750; 1.10316E-4
9486.328125; 1.06737E-4
9492.187500; 1.08893E-4
9498.046875; 1.10681E-4
9503.906250; 1.08362E-4
9509.765625; 1.06669E-4
9515.625000; 1.10720E-4
9521.484375; 1.00069E-4
9527.343750; 1.07936E-4
9533.203125; 1.07783E-4
9539.062500; 1.11458E-4
9544.921875; 1.03571E-4
9550.781250; 1.02070E-4
9556.640625; 9.17690E-5
9562.500000; 9.52112E-5
9568.359375; 1.02437E-4
9574.218750; 1.06294E-4
9580.078125; 1.07369E-4
9585.937500; 1.01686E-4
9591.796875; 1.02765E-4
9597.656250; 1.00486E-4
9603.515625; 1.01753E-4
9609.375000; 9.48424E-5
9615.234375; 1.09904E-4
9621.093750; 1.06558E-4
9626.953125; 1.02624E-4
9632.812500; 1.01159E-4
9638.671875; 1.06610E-4
9644.531250; 1.10916E-4
9650.390625; 9.57833E-5
9656.250000; 1.02019E-4
9662.109375; 1.11385E-4
9667.968750; 1.07478E-4
9673.828125; 9.19029E-5
9679.687500; 9.96139E-5
9685.546875; 1.02881E-4
9691.406250; 9.62470E-5
9697.265625; 9.73030E-5
9703.125000; 1.11027E-4
9708.984375; 1.07308E-4
9714.843750; 1.05682E-4
9720.703125; 1.07944E-4
9726.562500; 1.10373E-4
9732.421875; 1.14033E-4
9738.281250; 1.11607E-4
9744.140625; 1.12350E-4
9750.000000; 1.07282E-4
9755.859375; 9.96944E-5
9761.718750; 9.48417E-5
9767.578125; 1.07038E-4
9773.437500; 1.11580E-4
9779.296875; 9.77966E-5
9785.156250; 1.00501E-4
9791.015625; 1.09549E-4
9796.875000; 1.04684E-4
9802.734375; 9.72366E-5
9808.593750; 1.04611E-4
9814.453125; 1.11313E-4
9820.312500; 1.02539E-4
9826.171875; 9.58224E-5
9832.031250; 9.92581E-5
9837.890625; 9.79961E-5
9843.750000; 9.99935E-5
9849.609375; 1.00334E-4
9855.468750; 9.84729E-5
9861.328125; 1.06715E-4
9867.187500; 9.54769E-5
9873.046875; 9.20834E-5
9878.906250; 1.01531E-4
9884.765625; 1.05644E-4
9890.625000; 1.01936E-4
9896.484375; 9.79987E-5
9902.343750; 9.82006E-5
9908.203125; 1.00796E-4
9914.062500; 9.88261E-5
9919.921875; 9.92389E-5
9925.781250; 1.07151E-4
9931.640625; 1.14281E-4
9937.500000; 1.01825E-4
9943.359375; 9.95922E-5
9949.218750; 1.01771E-4
9955.078125; 1.07866E-4
9960.937500; 1.14583E-4
9966.796875; 1.03544E-4
9972.656250; 1.02715E-4
9978.515625; 9.71295E-5
9984.375000; 9.34013E-5
9990.234375; 9.04863E-5
9996.093750; 8.37855E-5
10001.953125; 8.71994E-5
10007.812500; 1.00928E-4
10013.671875; 9.62950E-5
10019.531250; 9.22731E-5
10025.390625; 1.02839E-4
10031.250000; 1.11932E-4
10037.109375; 1.14310E-4
10042.968750; 1.07064E-4
10048.828125; 9.10786E-5
10054.687500; 8.81865E-5
10060.546875; 9.42565E-5
10066.406250; 9.70803E-5
10072.265625; 9.74958E-5
10078.125000; 9.98170E-5
10083.984375; 1.15399E-4
10089.843750; 1.10444E-4
10095.703125; 1.04258E-4
10101.562500; 1.04382E-4
10107.421875; 1.01273E-4
10113.281250; 9.83393E-5
10119.140625; 9.96568E-5
10125.000000; 9.32952E-5
10130.859375; 9.59240E-5
10136.718750; 1.03444E-4
10142.578125; 1.04648E-4
10148.437500; 1.15776E-4
10154.296875; 1.16303E-4
10160.156250; 1.05457E-4
10166.015625; 9.98728E-5
10171.875000; 1.05873E-4
10177.734375; 1.04979E-4
10183.593750; 1.03370E-4
10189.453125; 9.60806E-5
10195.312500; 9.94640E-5
10201.171875; 1.10719E-4
10207.031250; 1.05682E-4
10212.890625; 1.00166E-4
10218.750000; 1.02148E-4
10224.609375; 9.29053E-5
10230.468750; 8.83816E-5
10236.328125; 9.19669E-5
10242.187500; 9.09213E-5
10248.046875; 9.79622E-5
10253.906250; 1.09035E-4
10259.765625; 1.16303E-4
10265.625000; 1.04526E-4
10271.484375; 1.04645E-4
10277.343750; 1.11276E-4
10283.203125; 1.05548E-4
10289.062500; 1.06102E-4
10294.921875; 1.04928E-4
10300.781250; 1.02878E-4
10306.640625; 9.97865E-5
10312.500000; 9.94331E-5
10318.359375; 1.00012E-4
10324.218750; 9.75850E-5
10330.078125; 1.10208E-4
10335.937500; 1.12606E-4
10341.796875; 1.00738E-4
10347.656250; 1.01535E-4
10353.515625; 9.71428E-5
10359.375000; 9.99635E-5
10365.234375; 9.74151E-5
10371.093750; 9.65455E-5
10376.953125; 9.89771E-5
10382.812500; 1.03524E-4
10388.671875; 1.01856E-4
10394.531250; 1.09359E-4
10400.390625; 1.01149E-4
10406.250000; 9.75574E-5
10412.109375; 1.04475E-4
10417.968750; 1.04244E-4
10423.828125; 1.00993E-4
10429.687500; 1.03112E-4
10435.546875; 1.01892E-4
10441.406250; 9.53197E-5
10447.265625; 9.83258E-5
10453.125000; 9.59426E-5
10458.984375; 9.55558E-5
10464.843750; 1.09860E-4
10470.703125; 1.09869E-4
10476.562500; 1.02123E-4
10482.421875; 1.02722E-4
10488.281250; 1.03471E-4
10494.140625; 1.07830E-4
10500.000000; 1.17079E-4
10505.859375; 1.14497E-4
10511.718750; 1.03954E-4
10517.578125; 1.07155E-4
10523.437500; 1.01240E-4
10529.296875; 1.05867E-4
10535.156250; 1.10960E-4
10541.015625; 9.81742E-5
10546.875000; 1.14804E-4
10552.734375; 1.23093E-4
10558.593750; 1.12286E-4
10564.453125; 1.11813E-4
10570.312500; 1.02896E-4
10576.171875; 9.60473E-5
10582.031250; 1.03149E-4
10587.890625; 9.96930E-5
10593.750000; 1.00227E-4
10599.609375; 1.02577E-4
10605.468750; 1.02304E-4
10611.328125; 9.91669E-5
10617.187500; 9.96726E-5
10623.046875; 1.01266E-4
10628.906250; 1.02713E-4
10634.765625; 1.04547E-4
10640.625000; 9.57098E-5
10646.484375; 9.42763E-5
10652.343750; 1.02414E-4
10658.203125; 1.03356E-4
10664.062500; 1.05255E-4
10669.921875; 1.14081E-4
10675.781250; 9.70388E-5
10681.640625; 9.76050E-5
10687.500000; 1.02422E-4
10693.359375; 9.84920E-5
10699.218750; 9.91279E-5
10705.078125; 1.05741E-4
10710.937500; 9.88183E-5
10716.796875; 9.74252E-5
10722.656250; 1.11373E-4
10728.515625; 1.04263E-4
10734.375000; 1.00549E-4
10740.234375; 9.51453E-5
10746.093750; 1.01534E-4
10751.953125; 1.03910E-4
10757.812500; 9.91984E-5
10763.671875; 9.60288E-5
10769.531250; 9.17888E-5
10775.390625; 9.59893E-5
10781.250000; 9.72827E-5
10787.109375; 1.05743E-4
10792.968750; 1.01880E-4
10798.828125; 9.59727E-5
10804.687500; 1.04698E-4
10810.546875; 1.11064E-4
10816.406250; 1.08778E-4
10822.265625; 9.61293E-5
10828.125000; 1.06891E-4
10833.984375; 1.12272E-4
10839.843750; 1.05565E-4
10845.703125; 1.01322E-4
10851.562500; 1.02778E-4
10857.421875; 1.00597E-4
10863.281250; 9.99435E-5
10869.140625; 9.80762E-5
10875.000000; 1.10031E-4
10880.859375; 1.21383E-4
10886.718750; 1.05988E-4
10892.578125; 1.10574E-4
10898.437500; 9.89282E-5
10904.296875; 9.70662E-5
10910.156250; 9.53669E-5
10916.015625; 1.06839E-4
10921.875000; 1.06153E-4
10927.734375; 9.34133E-5
10933.593750; 1.00364E-4
10939.453125; 9.54601E-5
10945.312500; 9.51585E-5
10951.171875; 1.03840E-4
10957.031250; 1.11409E-4
10962.890625; 1.00821E-4
10968.750000; 9.67734E-5
10974.609375; 9.88884E-5
10980.468750; 9.67243E-5
10986.328125; 9.16455E-5
10992.187500; 9.48699E-5
10998.046875; 9.49608E-5
11003.906250; 1.02361E-4
11009.765625; 1.02891E-4
11015.625000; 9.70378E-5
11021.484375; 9.02642E-5
11027.343750; 8.91423E-5
11033.203125; 9.14266E-5
11039.062500; 1.02626E-4
11044.921875; 1.02595E-4
11050.781250; 1.03850E-4
11056.640625; 1.00061E-4
11062.500000; 9.87539E-5
11068.359375; 9.61685E-5
11074.218750; 9.66863E-5
11080.078125; 9.09660E-5
11085.937500; 9.94459E-5
11091.796875; 9.68658E-5
11097.656250; 9.27619E-5
11103.515625; 9.96340E-5
11109.375000; 8.71936E-5
11115.234375; 8.91155E-5
11121.093750; 9.48717E-5
11126.953125; 1.09809E-4
11132.812500; 1.08179E-4
11138.671875; 9.21430E-5
11144.531250; 9.64424E-5
11150.390625; 1.09771E-4
11156.250000; 1.00938E-4
11162.109375; 9.49123E-5
11167.968750; 1.08763E-4
11173.828125; 1.05762E-4
11179.687500; 1.03995E-4
11185.546875; 1.05657E-4
11191.406250; 1.00630E-4
11197.265625; 9.49552E-5
11203.125000; 9.92330E-5
11208.984375; 1.03610E-4
11214.843750; 9.50478E-5
11220.703125; 1.00370E-4
11226.562500; 1.04577E-4
11232.421875; 1.00874E-4
11238.281250; 9.36597E-5
11244.140625; 9.98062E-5
11250.000000; 1.10892E-4
11255.859375; 1.08582E-4
11261.718750; 1.01996E-4
11267.578125; 9.80426E-5
11273.437500; 9.72185E-5
11279.296875; 1.01973E-4
11285.156250; 9.79206E-5
11291.015625; 1.04085E-4
11296.875000; 1.07034E-4
11302.734375; 1.00233E-4
11308.593750; 9.21334E-5
11314.453125; 9.43349E-5
11320.312500; 9.70579E-5
11326.171875; 9.68675E-5
11332.031250; 1.01724E-4
11337.890625; 9.97111E-5
11343.750000; 1.08528E-4
11349.609375; 1.10151E-4
11355.468750; 1.14612E-4
11361.328125; 1.05875E-4
11367.187500; 1.05568E-4
11373.046875; 1.08147E-4
11378.906250; 9.94282E-5
11384.765625; 9.83854E-5
11390.625000; 9.93007E-5
11396.484375; 9.76107E-5
11402.343750; 9.52219E-5
11408.203125; 1.03757E-4
11414.062500; 1.04891E-4
11419.921875; 9.59662E-5
11425.781250; 9.39656E-5
11431.640625; 8.66069E-5
11437.500000; 9.68891E-5
11443.359375; 9.55631E-5
11449.218750; 1.02428E-4
11455.078125; 1.11774E-4
11460.937500; 1.08721E-4
11466.796875; 1.05586E-4
11472.656250; 1.01220E-4
11478.515625; 9.86595E-5
11484.375000; 9.68666E-5
11490.234375; 1.15379E-4
11496.093750; 1.17870E-4
11501.953125; 1.01651E-4
11507.812500; 9.39925E-5
11513.671875; 9.47176E-5
11519.531250; 1.00301E-4
11525.390625; 9.16524E-5
11531.250000; 9.36833E-5
11537.109375; 1.08859E-4
11542.968750; 9.76230E-5
11548.828125; 9.77353E-5
11554.687500; 9.66792E-5
11560.546875; 9.05955E-5
11566.406250; 9.64374E-5
11572.265625; 9.80271E-5
11578.125000; 1.09322E-4
11583.984375; 1.01374E-4
11589.843750; 9.58542E-5
11595.703125; 9.84872E-5
11601.562500; 1.01181E-4
11607.421875; 1.01300E-4
11613.281250; 9.85820E-5
11619.140625; 1.01806E-4
11625.000000; 9.86692E-5
11630.859375; 1.04646E-4
11636.718750; 1.11048E-4
11642.578125; 1.00003E-4
11648.437500; 1.00587E-4
11654.296875; 1.04987E-4
11660.156250; 1.01867E-4
11666.015625; 1.07236E-4
11671.875000; 1.04662E-4
11677.734375; 9.80475E-5
11683.593750; 1.05665E-4
11689.453125; 9.91429E-5
11695.312500; 1.02658E-4
11701.171875; 1.04962E-4
11707.031250; 1.07103E-4
11712.890625; 9.93588E-5
11718.750000; 1.03819E-4
11724.609375; 1.12085E-4
11730.468750; 1.15381E-4
11736.328125; 1.06782E-4
11742.187500; 9.58264E-5
11748.046875; 1.10579E-4
11753.906250; 1.16802E-4
11759.765625; 1.09142E-4
11765.625000; 1.01200E-4
11771.484375; 1.00812E-4
11777.343750; 1.03841E-4
11783.203125; 1.09153E-4
11789.062500; 1.00792E-4
11794.921875; 1.03680E-4
11800.781250; 1.06293E-4
11806.640625; 1.09473E-4
11812.500000; 9.94541E-5
11818.359375; 9.68089E-5
11824.218750; 9.20463E-5
11830.078125; 1.01129E-4
11835.937500; 9.25364E-5
11841.796875; 9.19465E-5
11847.656250; 9.21487E-5
11853.515625; 9.60388E-5
11859.375000; 1.11395E-4
11865.234375; 1.16638E-4
11871.093750; 1.07379E-4
11876.953125; 1.07939E-4
11882.812500; 1.14801E-4
11888.671875; 1.09036E-4
11894.531250; 1.08101E-4
11900.390625; 9.86808E-5
11906.250000; 9.77894E-5
11912.109375; 1.00819E-4
11917.968750; 1.00882E-4
11923.828125; 1.10366E-4
11929.687500; 1.14175E-4
11935.546875; 1.06336E-4
11941.406250; 1.03180E-4
11947.265625; 9.82704E-5
11953.125000; 1.05104E-4
11958.984375; 1.02885E-4
11964.843750; 1.02782E-4
11970.703125; 9.52221E-5
11976.562500; 9.63329E-5
11982.421875; 1.08493E-4
11988.281250; 1.02263E-4
11994.140625; 1.04630E-4
12000.000000; 1.06149E-4
12005.859375; 1.03120E-4
12011.718750; 1.08430E-4
12017.578125; 9.95718E-5
12023.437500; 1.00957E-4
12029.296875; 9.23937E-5
12035.156250; 9.49764E-5
12041.015625; 1.04849E-4
12046.875000; 9.03792E-5
12052.734375; 1.01164E-4
12058.593750; 1.00374E-4
12064.453125; 1.05319E-4
12070.312500; 1.05754E-4
12076.171875; 9.82561E-5
12082.031250; 1.00863E-4
12087.890625; 9.85928E-5
12093.750000; 1.06435E-4
12099.609375; 1.10702E-4
12105.468750; 1.03659E-4
12111.328125; 1.07975E-4
12117.187500; 1.06343E-4
12123.046875; 1.01636E-4
12128.906250; 1.01461E-4
12134.765625; 1.07292E-4
12140.625000; 1.01695E-4
12146.484375; 9.56374E-5
12152.343750; 1.02411E-4
12158.203125; 1.04895E-4
12164.062500; 9.53296E-5
12169.921875; 1.03059E-4
12175.781250; 1.11841E-4
12181.640625; 1.07031E-4
12187.500000; 1.09383E-4
12193.359375; 1.06932E-4
12199.218750; 9.99699E-5
12205.078125; 9.18842E-5
12210.937500; 9.58700E-5
12216.796875; 1.06896E-4
12222.656250; 1.08155E-4
12228.515625; 1.04936E-4
12234.375000; 1.05173E-4
12240.234375; 1.01767E-4
12246.093750; 9.32714E-5
12251.953125; 1.03683E-4
12257.812500; 1.03590E-4
12263.671875; 1.13083E-4
12269.531250; 1.12474E-4
12275.390625; 1.01363E-4
12281.250000; 9.59707E-5
12287.109375; 9.77367E-5
12292.968750; 1.03973E-4
12298.828125; 1.05813E-4
12304.687500; 9.81104E-5
12310.546875; 1.00306E-4
12316.406250; 1.06868E-4
12322.265625; 9.59387E-5
12328.125000; 9.66854E-5
12333.984375; 9.73250E-5
12339.843750; 8.91358E-5
12345.703125; 9.99491E-5
12351.562500; 1.00174E-4
12357.421875; 9.53645E-5
12363.281250; 9.27758E-5
12369.140625; 9.85702E-5
12375.000000; 9.52970E-5
12380.859375; 8.72981E-5
12386.718750; 9.38559E-5
12392.578125; 9.10227E-5
12398.437500; 9.83914E-5
12404.296875; 1.10748E-4
12410.156250; 1.12883E-4
12416.015625; 1.03929E-4
12421.875000; 9.60961E-5
12427.734375; 1.01861E-4
12433.593750; 1.07742E-4
12439.453125; 9.77602E-5
12445.312500; 1.03186E-4
12451.171875; 9.95242E-5
12457.031250; 1.01763E-4
12462.890625; 1.01311E-4
12468.750000; 9.69693E-5
12474.609375; 1.04813E-4
12480.468750; 1.10022E-4
12486.328125; 1.03444E-4
12492.187500; 9.70032E-5
12498.046875; 1.01050E-4
12503.906250; 1.00494E-4
12509.765625; 9.42399E-5
12515.625000; 8.54274E-5
12521.484375; 9.70021E-5
12527.343750; 9.96639E-5
12533.203125; 9.76591E-5
12539.062500; 9.69777E-5
12544.921875; 1.03423E-4
12550.781250; 9.81979E-5
12556.640625; 1.07000E-4
12562.500000; 1.01103E-4
12568.359375; 1.10524E-4
12574.218750; 1.05560E-4
12580.078125; 1.06533E-4
12585.937500; 1.10416E-4
12591.796875; 1.00604E-4
12597.656250; 1.01491E-4
12603.515625; 9.90179E-5
12609.375000; 1.01732E-4
12615.234375; 1.12291E-4
12621.093750; 1.07781E-4
12626.953125; 1.00060E-4
12632.812500; 9.82940E-5
12638.671875; 1.00886E-4
12644.531250; 9.76487E-5
12650.390625; 1.01062E-4
12656.250000; 9.45772E-5
12662.109375; 9.69825E-5
12667.968750; 1.05981E-4
12673.828125; 1.00503E-4
12679.687500; 1.02568E-4
12685.546875; 1.06429E-4
12691.406250; 1.10967E-4
12697.265625; 1.06220E-4
12703.125000; 9.98275E-5
12708.984375; 1.00742E-4
12714.843750; 9.70964E-5
12720.703125; 9.71153E-5
12726.562500; 1.07101E-4
12732.421875; 1.04110E-4
12738.281250; 1.05540E-4
12744.140625; 1.04447E-4
12750.000000; 9.92309E-5
12755.859375; 1.01212E-4
12761.718750; 9.73503E-5
12767.578125; 1.03890E-4
12773.437500; 1.09063E-4
12779.296875; 1.01901E-4
12785.156250; 8.72948E-5
12791.015625; 9.50742E-5
12796.875000; 9.95823E-5
12802.734375; 8.86961E-5
12808.593750; 1.13486E-4
12814.453125; 1.10339E-4
12820.312500; 9.74990E-5
12826.171875; 8.80261E-5
12832.031250; 9.70701E-5
12837.890625; 1.01453E-4
12843.750000; 1.05623E-4
12849.609375; 1.02985E-4
12855.468750; 9.30058E-5
12861.328125; 9.79112E-5
12867.187500; 1.00265E-4
12873.046875; 9.31835E-5
12878.906250; 1.08049E-4
12884.765625; 1.03719E-4
12890.625000; 9.84070E-5
12896.484375; 1.02991E-4
12902.343750; 1.01136E-4
12908.203125; 1.06448E-4
12914.062500; 1.03530E-4
12919.921875; 9.68206E-5
12925.781250; 9.84016E-5
12931.640625; 1.08644E-4
12937.500000; 1.15326E-4
12943.359375; 1.04892E-4
12949.218750; 9.73194E-5
12955.078125; 1.01562E-4
12960.937500; 1.09214E-4
12966.796875; 9.44056E-5
12972.656250; 1.03092E-4
12978.515625; 1.05723E-4
12984.375000; 9.09429E-5
12990.234375; 9.31758E-5
12996.093750; 9.82553E-5
13001.953125; 9.51761E-5
13007.812500; 9.63296E-5
13013.671875; 9.78534E-5
13019.531250; 9.71437E-5
13025.390625; 1.01179E-4
13031.250000; 9.87580E-5
13037.109375; 9.92095E-5
13042.968750; 1.09670E-4
13048.828125; 1.04596E-4
13054.687500; 9.65375E-5
13060.546875; 1.00334E-4
13066.406250; 9.98434E-5
13072.265625; 9.87331E-5
13078.125000; 1.00283E-4
13083.984375; 1.05944E-4
13089.843750; 9.78278E-5
13095.703125; 9.88895E-5
13101.562500; 1.05465E-4
13107.421875; 1.03552E-4
13113.281250; 1.01774E-4
13119.140625; 9.35253E-5
13125.000000; 9.93533E-5
13130.859375; 1.00091E-4
13136.718750; 1.05153E-4
13142.578125; 1.05985E-4
13148.437500; 1.03649E-4
13154.296875; 9.94151E-5
13160.156250; 9.72538E-5
13166.015625; 9.25251E-5
13171.875000; 9.65157E-5
13177.734375; 1.04780E-4
13183.593750; 1.09591E-4
13189.453125; 1.02072E-4
13195.312500; 9.69131E-5
13201.171875; 1.07212E-4
13207.031250; 1.04350E-4
13212.890625; 1.02027E-4
13218.750000; 9.44059E-5
13224.609375; 9.99033E-5
13230.468750; 1.02636E-4
13236.328125; 1.03552E-4
13242.187500; 9.76627E-5
13248.046875; 1.11288E-4
13253.906250; 1.10594E-4
13259.765625; 1.07235E-4
13265.625000; 9.93120E-5
13271.484375; 9.41337E-5
13277.343750; 1.00985E-4
13283.203125; 1.11985E-4
13289.062500; 1.04060E-4
13294.921875; 9.67073E-5
13300.781250; 1.05306E-4
13306.640625; 1.11822E-4
13312.500000; 1.00049E-4
13318.359375; 9.01518E-5
13324.218750; 9.18045E-5
13330.078125; 9.35725E-5
13335.937500; 9.41802E-5
13341.796875; 1.01988E-4
13347.656250; 1.05480E-4
13353.515625; 1.02653E-4
13359.375000; 1.04061E-4
13365.234375; 9.80974E-5
13371.093750; 1.06977E-4
13376.953125; 1.00698E-4
13382.812500; 9.77328E-5
13388.671875; 9.96512E-5
13394.531250; 9.95814E-5
13400.390625; 9.48934E-5
13406.250000; 9.15264E-5
13412.109375; 8.68853E-5
13417.968750; 1.01874E-4
13423.828125; 1.03453E-4
13429.687500; 1.06507E-4
13435.546875; 1.07473E-4
13441.406250; 1.03925E-4
13447.265625; 9.96547E-5
13453.125000; 1.08165E-4
13458.984375; 9.47555E-5
13464.843750; 9.62567E-5
13470.703125; 1.01316E-4
13476.562500; 9.76962E-5
13482.421875; 1.04224E-4
13488.281250; 9.82159E-5
13494.140625; 1.00885E-4
13500.000000; 1.02944E-4
13505.859375; 1.18308E-4
13511.718750; 1.03839E-4
13517.578125; 9.22937E-5
13523.437500; 9.48550E-5
13529.296875; 9.25418E-5
13535.156250; 8.87398E-5
13541.015625; 9.25735E-5
13546.875000; 1.01915E-4
13552.734375; 1.03536E-4
13558.593750; 8.89408E-5
13564.453125; 9.12239E-5
13570.312500; 9.91279E-5
13576.171875; 9.74532E-5
13582.031250; 9.82143E-5
13587.890625; 9.48250E-5
13593.750000; 9.41120E-5
13599.609375; 9.64272E-5
13605.468750; 1.01077E-4
13611.328125; 9.51007E-5
13617.187500; 1.00584E-4
13623.046875; 9.94532E-5
13628.906250; 9.93321E-5
13634.765625; 9.88592E-5
13640.625000; 9.05464E-5
13646.484375; 9.94015E-5
13652.343750; 9.81233E-5
13658.203125; 9.95789E-5
13664.062500; 1.03434E-4
13669.921875; 1.05123E-4
13675.781250; 1.04153E-4
13681.640625; 9.46550E-5
13687.500000; 9.90886E-5
13693.359375; 9.00404E-5
13699.218750; 9.44622E-5
13705.078125; 1.01495E-4
13710.937500; 8.98811E-5
13716.796875; 8.71283E-5
13722.656250; 9.63717E-5
13728.515625; 1.03099E-4
13734.375000; 1.05866E-4
13740.234375; 9.44606E-5
13746.093750; 1.02870E-4
13751.953125; 1.06899E-4
13757.812500; 9.50878E-5
13763.671875; 9.04805E-5
13769.531250; 9.14877E-5
13775.390625; 9.62163E-5
13781.250000; 1.05395E-4
13787.109375; 9.66011E-5
13792.968750; 9.49119E-5
13798.828125; 1.05491E-4
13804.687500; 1.04110E-4
13810.546875; 9.24677E-5
13816.406250; 1.02453E-4
13822.265625; 1.10162E-4
13828.125000; 9.73246E-5
13833.984375; 8.80437E-5
13839.843750; 9.53058E-5
13845.703125; 9.48528E-5
13851.562500; 1.03759E-4
13857.421875; 1.01729E-4
13863.281250; 9.00985E-5
13869.140625; 1.00078E-4
13875.000000; 9.60924E-5
13880.859375; 9.62082E-5
13886.718750; 1.14666E-4
13892.578125; 1.09596E-4
13898.437500; 1.06071E-4
13904.296875; 1.08780E-4
13910.156250; 1.07215E-4
13916.015625; 1.07405E-4
13921.875000; 1.01705E-4
13927.734375; 1.05354E-4
13933.593750; 1.10610E-4
13939.453125; 1.00363E-4
13945.312500; 1.04209E-4
13951.171875; 1.06301E-4
13957.031250; 9.68520E-5
13962.890625; 9.20129E-5
13968.750000; 9.36457E-5
13974.609375; 9.45148E-5
13980.468750; 9.12194E-5
13986.328125; 1.02259E-4
13992.187500; 1.04752E-4
13998.046875; 1.05581E-4
14003.906250; 1.02098E-4
14009.765625; 1.02724E-4
14015.625000; 1.01984E-4
14021.484375; 9.80607E-5
14027.343750; 1.08962E-4
14033.203125; 1.01161E-4
14039.062500; 9.63133E-5
14044.921875; 9.50256E-5
14050.781250; 1.01230E-4
14056.640625; 1.00421E-4
14062.500000; 1.10356E-4
14068.359375; 1.08015E-4
14074.218750; 1.02355E-4
14080.078125; 9.73157E-5
14085.937500; 8.82742E-5
14091.796875; 9.62137E-5
14097.656250; 1.01544E-4
14103.515625; 9.37564E-5
14109.375000; 9.76690E-5
14115.234375; 1.04700E-4
14121.093750; 9.66194E-5
14126.953125; 1.12190E-4
14132.812500; 1.12870E-4
14138.671875; 1.07577E-4
14144.531250; 9.46753E-5
14150.390625; 9.74664E-5
14156.250000; 1.14217E-4
14162.109375; 1.13152E-4
14167.968750; 1.05947E-4
14173.828125; 9.81086E-5
14179.687500; 1.02763E-4
14185.546875; 1.06882E-4
14191.406250; 1.10015E-4
14197.265625; 1.12015E-4
14203.125000; 1.05280E-4
14208.984375; 9.42303E-5
14214.843750; 9.54492E-5
14220.703125; 9.94872E-5
14226.562500; 1.05292E-4
14232.421875; 1.07795E-4
14238.281250; 1.02323E-4
14244.140625; 9.40503E-5
14250.000000; 9.05867E-5
14255.859375; 9.10000E-5
14261.718750; 9.26357E-5
14267.578125; 1.03264E-4
14273.437500; 1.03276E-4
14279.296875; 1.04555E-4
14285.156250; 9.83135E-5
14291.015625; 8.66406E-5
14296.875000; 9.81027E-5
14302.734375; 1.02679E-4
14308.593750; 9.37322E-5
14314.453125; 9.26084E-5
14320.312500; 9.45010E-5
14326.171875; 9.65731E-5
14332.031250; 9.77572E-5
14337.890625; 9.48314E-5
14343.750000; 1.01541E-4
14349.609375; 1.06920E-4
14355.468750; 1.00358E-4
14361.328125; 1.01885E-4
14367.187500; 9.74662E-5
14373.046875; 8.85417E-5
14378.906250; 9.66622E-5
14384.765625; 9.64022E-5
14390.625000; 1.06103E-4
14396.484375; 1.09301E-4
14402.343750; 1.01983E-4
14408.203125; 1.03211E-4
14414.062500; 1.01181E-4
14419.921875; 9.08197E-5
14425.781250; 9.74630E-5
14431.640625; 9.04031E-5
14437.500000; 9.43832E-5
14443.359375; 1.03246E-4
14449.218750; 1.03847E-4
14455.078125; 9.77954E-5
14460.937500; 9.31821E-5
14466.796875; 1.01428E-4
14472.656250; 1.06055E-4
14478.515625; 9.76653E-5
14484.375000; 9.04522E-5
14490.234375; 9.53882E-5
14496.093750; 9.49419E-5
14501.953125; 1.04573E-4
14507.812500; 1.07578E-4
14513.671875; 9.68885E-5
14519.531250; 9.40612E-5
14525.390625; 9.90580E-5
14531.250000; 1.04548E-4
14537.109375; 1.06699E-4
14542.968750; 9.91156E-5
14548.828125; 9.37279E-5
14554.687500; 1.01512E-4
14560.546875; 1.07162E-4
14566.406250; 1.09184E-4
14572.265625; 1.01011E-4
14578.125000; 1.00468E-4
14583.984375; 9.92397E-5
14589.843750; 1.02435E-4
14595.703125; 1.08339E-4
14601.562500; 1.02533E-4
14607.421875; 9.72636E-5
14613.281250; 9.48494E-5
14619.140625; 1.04020E-4
14625.000000; 1.11903E-4
14630.859375; 1.11244E-4
14636.718750; 1.01396E-4
14642.578125; 1.00106E-4
14648.437500; 9.30982E-5
14654.296875; 9.57274E-5
14660.156250; 9.57286E-5
14666.015625; 9.95478E-5
14671.875000; 9.83135E-5
14677.734375; 1.06710E-4
14683.593750; 1.04966E-4
14689.453125; 9.72484E-5
14695.312500; 1.06282E-4
14701.171875; 1.10971E-4
14707.031250; 9.65171E-5
14712.890625; 1.04454E-4
14718.750000; 1.01453E-4
14724.609375; 1.06593E-4
14730.468750; 9.87429E-5
14736.328125; 9.33724E-5
14742.187500; 1.09209E-4
14748.046875; 1.14785E-4
14753.906250; 9.94800E-5
14759.765625; 8.82022E-5
14765.625000; 9.35389E-5
14771.484375; 1.00270E-4
14777.343750; 1.01833E-4
14783.203125; 9.92726E-5
14789.062500; 1.04757E-4
14794.921875; 1.04834E-4
14800.781250; 1.05605E-4
14806.640625; 1.13748E-4
14812.500000; 1.12476E-4
14818.359375; 9.34223E-5
14824.218750; 8.92594E-5
14830.078125; 9.88236E-5
14835.937500; 1.00328E-4
14841.796875; 9.78917E-5
14847.656250; 9.60062E-5
14853.515625; 9.97589E-5
14859.375000; 1.00831E-4
14865.234375; 9.52217E-5
14871.093750; 9.56246E-5
14876.953125; 1.11864E-4
14882.812500; 1.01994E-4
14888.671875; 9.45347E-5
14894.531250; 1.00146E-4
14900.390625; 9.96375E-5
14906.250000; 1.01995E-4
14912.109375; 1.04589E-4
14917.968750; 1.02743E-4
14923.828125; 9.34028E-5
14929.687500; 8.73264E-5
14935.546875; 9.38314E-5
14941.406250; 9.94365E-5
14947.265625; 9.56862E-5
14953.125000; 9.82936E-5
14958.984375; 1.06280E-4
14964.843750; 1.10920E-4
14970.703125; 1.10109E-4
14976.562500; 1.01832E-4
14982.421875; 9.25526E-5
14988.281250; 9.36315E-5
14994.140625; 9.75633E-5
15000.000000; 1.06652E-4
15005.859375; 1.02797E-4
15011.718750; 9.45582E-5
15017.578125; 1.02348E-4
15023.437500; 1.02748E-4
15029.296875; 1.03125E-4
15035.156250; 9.53806E-5
15041.015625; 9.75361E-5
15046.875000; 9.98133E-5
15052.734375; 1.05129E-4
15058.593750; 1.03709E-4
15064.453125; 1.08092E-4
15070.312500; 1.11422E-4
15076.171875; 1.00738E-4
15082.031250; 1.01233E-4
15087.890625; 1.00992E-4
15093.750000; 1.03448E-4
15099.609375; 1.04356E-4
15105.468750; 9.76601E-5
15111.328125; 9.42507E-5
15117.187500; 9.34195E-5
15123.046875; 9.39297E-5
15128.906250; 1.00716E-4
15134.765625; 1.00343E-4
15140.625000; 9.61832E-5
15146.484375; 9.58326E-5
15152.343750; 9.70928E-5
15158.203125; 1.03647E-4
15164.062500; 9.81232E-5
15169.921875; 1.03709E-4
15175.781250; 1.00125E-4
15181.640625; 1.01609E-4
15187.500000; 1.04035E-4
15193.359375; 1.10701E-4
15199.218750; 9.46608E-5
15205.078125; 9.74368E-5
15210.937500; 1.04815E-4
15216.796875; 1.08268E-4
15222.656250; 9.77897E-5
15228.515625; 8.94107E-5
15234.375000; 9.53585E-5
15240.234375; 9.96528E-5
15246.093750; 1.11524E-4
15251.953125; 1.07010E-4
15257.812500; 1.01428E-4
15263.671875; 1.00853E-4
15269.531250; 1.02313E-4
15275.390625; 9.22810E-5
15281.250000; 8.66514E-5
15287.109375; 8.70712E-5
15292.968750; 1.03105E-4
15298.828125; 9.89152E-5
15304.687500; 9.64380E-5
15310.546875; 1.09120E-4
15316.406250; 1.07304E-4
15322.265625; 1.04613E-4
15328.125000; 9.79666E-5
15333.984375; 9.77391E-5
15339.843750; 9.43307E-5
15345.703125; 1.02218E-4
15351.562500; 9.82264E-5
15357.421875; 9.57387E-5
15363.281250; 9.79064E-5
15369.140625; 9.21027E-5
15375.000000; 1.05019E-4
15380.859375; 1.05481E-4
15386.718750; 9.80221E-5
15392.578125; 8.69611E-5
15398.437500; 9.66130E-5
15404.296875; 8.85826E-5
15410.156250; 8.52393E-5
15416.015625; 8.53651E-5
15421.875000; 9.03529E-5
15427.734375; 9.32597E-5
15433.593750; 9.99750E-5
15439.453125; 9.81251E-5
15445.312500; 9.93858E-5
15451.171875; 1.00352E-4
15457.031250; 9.07357E-5
15462.890625; 9.19046E-5
15468.750000; 9.75600E-5
15474.609375; 9.86198E-5
15480.468750; 1.02383E-4
15486.328125; 1.03952E-4
15492.187500; 1.00302E-4
15498.046875; 1.03489E-4
15503.906250; 9.49278E-5
15509.765625; 8.65371E-5
15515.625000; 1.03379E-4
15521.484375; 9.99155E-5
15527.343750; 9.97969E-5
15533.203125; 9.94955E-5
15539.062500; 9.90028E-5
15544.921875; 8.92573E-5
15550.781250; 9.38055E-5
15556.640625; 9.22171E-5
15562.500000; 9.78940E-5
15568.359375; 1.00290E-4
15574.218750; 9.76495E-5
15580.078125; 9.05601E-5
15585.937500; 9.46420E-5
15591.796875; 9.42310E-5
15597.656250; 1.07780E-4
15603.515625; 9.77293E-5
15609.375000; 9.43467E-5
15615.234375; 9.92724E-5
15621.093750; 1.01617E-4
15626.953125; 1.03513E-4
15632.812500; 1.04103E-4
15638.671875; 9.66782E-5
15644.531250; 9.32155E-5
15650.390625; 9.57498E-5
15656.250000; 9.61672E-5
15662.109375; 1.01283E-4
15667.968750; 1.03044E-4
15673.828125; 9.86773E-5
15679.687500; 8.60662E-5
15685.546875; 9.34565E-5
15691.406250; 9.97295E-5
15697.265625; 1.06882E-4
15703.125000; 9.75061E-5
15708.984375; 1.02742E-4
15714.843750; 1.08805E-4
15720.703125; 9.81133E-5
15726.562500; 9.88252E-5
15732.421875; 9.64794E-5
15738.281250; 8.60472E-5
15744.140625; 9.91131E-5
15750.000000; 1.02578E-4
15755.859375; 1.02815E-4
15761.718750; 9.59583E-5
15767.578125; 9.93779E-5
15773.437500; 1.10614E-4
15779.296875; 9.67763E-5
15785.156250; 9.50002E-5
15791.015625; 9.40846E-5
15796.875000; 1.01459E-4
15802.734375; 9.77182E-5
15808.593750; 1.00778E-4
15814.453125; 1.13438E-4
15820.312500; 1.10705E-4
15826.171875; 1.02084E-4
15832.031250; 1.00834E-4
15837.890625; 9.83822E-5
15843.750000; 9.48783E-5
15849.609375; 8.90956E-5
15855.468750; 1.03283E-4
15861.328125; 9.23973E-5
15867.187500; 9.90267E-5
15873.046875; 1.00954E-4
15878.906250; 1.06942E-4
15884.765625; 1.09152E-4
15890.625000; 1.06391E-4
15896.484375; 1.02444E-4
15902.343750; 1.07081E-4
15908.203125; 1.04367E-4
15914.062500; 9.46642E-5
15919.921875; 1.03251E-4
15925.781250; 9.89293E-5
15931.640625; 9.23585E-5
15937.500000; 1.03818E-4
15943.359375; 1.07907E-4
15949.218750; 9.49615E-5
15955.078125; 9.78550E-5
15960.937500; 1.10107E-4
15966.796875; 1.01793E-4
15972.656250; 1.02376E-4
15978.515625; 9.45505E-5
15984.375000; 1.07346E-4
15990.234375; 1.06241E-4
15996.093750; 9.77495E-5
16001.953125; 1.00611E-4
16007.812500; 1.05244E-4
16013.671875; 1.01803E-4
16019.531250; 9.29806E-5
16025.390625; 1.00063E-4
16031.250000; 9.65897E-5
16037.109375; 9.43956E-5
16042.968750; 9.89985E-5
16048.828125; 9.65380E-5
16054.687500; 9.71453E-5
16060.546875; 1.02653E-4
16066.406250; 9.85189E-5
16072.265625; 9.44578E-5
16078.125000; 9.68986E-5
16083.984375; 1.04554E-4
16089.843750; 1.04416E-4
16095.703125; 1.00838E-4
16101.562500; 9.55270E-5
16107.421875; 9.04723E-5
16113.281250; 8.57287E-5
16119.140625; 1.00708E-4
16125.000000; 9.31596E-5
16130.859375; 9.84318E-5
16136.718750; 1.01801E-4
16142.578125; 9.44331E-5
16148.437500; 9.95834E-5
16154.296875; 1.00304E-4
16160.156250; 9.94641E-5
16166.015625; 1.02953E-4
16171.875000; 9.59370E-5
16177.734375; 9.41156E-5
16183.593750; 1.00120E-4
16189.453125; 9.86336E-5
16195.312500; 1.01370E-4
16201.171875; 1.02028E-4
16207.031250; 9.31031E-5
16212.890625; 9.38335E-5
16218.750000; 9.13321E-5
16224.609375; 9.46638E-5
16230.468750; 1.05407E-4
16236.328125; 1.01033E-4
16242.187500; 9.84911E-5
16248.046875; 9.70741E-5
16253.906250; 1.03611E-4
16259.765625; 1.03567E-4
16265.625000; 9.85328E-5
16271.484375; 9.36106E-5
16277.343750; 9.41504E-5
16283.203125; 9.63871E-5
16289.062500; 9.74280E-5
16294.921875; 1.01783E-4
16300.781250; 9.35017E-5
16306.640625; 1.04486E-4
16312.500000; 1.03298E-4
16318.359375; 1.03563E-4
16324.218750; 1.04882E-4
16330.078125; 9.61603E-5
16335.937500; 1.03570E-4
16341.796875; 9.08691E-5
16347.656250; 9.89255E-5
16353.515625; 9.47122E-5
16359.375000; 9.86358E-5
16365.234375; 9.58543E-5
16371.093750; 1.02833E-4
16376.953125; 1.10330E-4
16382.812500; 1.02363E-4
16388.671875; 9.51739E-5
16394.531250; 9.10469E-5
16400.390625; 1.01527E-4
16406.250000; 1.04900E-4
16412.109375; 9.64679E-5
16417.968750; 1.03669E-4
16423.828125; 9.95228E-5
16429.687500; 9.06771E-5
16435.546875; 9.94136E-5
16441.406250; 1.02183E-4
16447.265625; 1.03649E-4
16453.125000; 9.37698E-5
16458.984375; 1.05171E-4
16464.843750; 1.08477E-4
16470.703125; 9.68264E-5
16476.562500; 9.45430E-5
16482.421875; 8.53433E-5
16488.281250; 1.05811E-4
16494.140625; 1.09737E-4
16500.000000; 1.03080E-4
16505.859375; 1.11624E-4
16511.718750; 9.66398E-5
16517.578125; 8.96307E-5
16523.437500; 9.98768E-5
16529.296875; 1.08263E-4
16535.156250; 9.84242E-5
16541.015625; 9.47789E-5
16546.875000; 8.70595E-5
16552.734375; 9.43950E-5
16558.593750; 1.01421E-4
16564.453125; 1.01593E-4
16570.312500; 9.20083E-5
16576.171875; 9.97805E-5
16582.031250; 1.06613E-4
16587.890625; 1.00760E-4
16593.750000; 9.91264E-5
16599.609375; 1.00471E-4
16605.468750; 1.08451E-4
16611.328125; 1.09658E-4
16617.187500; 1.02313E-4
16623.046875; 9.78535E-5
16628.906250; 9.50665E-5
16634.765625; 9.81061E-5
16640.625000; 9.89068E-5
16646.484375; 9.76267E-5
16652.343750; 9.11991E-5
16658.203125; 9.45013E-5
16664.062500; 9.69607E-5
16669.921875; 9.25755E-5
16675.781250; 9.70997E-5
16681.640625; 1.00589E-4
16687.500000; 9.62106E-5
16693.359375; 9.26810E-5
16699.218750; 9.89502E-5
16705.078125; 1.04947E-4
16710.937500; 1.02071E-4
16716.796875; 1.06994E-4
16722.656250; 1.16242E-4
16728.515625; 9.75455E-5
16734.375000; 8.81726E-5
16740.234375; 9.71725E-5
16746.093750; 9.72805E-5
16751.953125; 9.17599E-5
16757.812500; 9.22478E-5
16763.671875; 9.40621E-5
16769.531250; 9.79450E-5
16775.390625; 9.20851E-5
16781.250000; 9.19224E-5
16787.109375; 1.00787E-4
16792.968750; 1.00228E-4
16798.828125; 9.25904E-5
16804.687500; 9.29090E-5
16810.546875; 1.00149E-4
16816.406250; 9.59219E-5
16822.265625; 9.34323E-5
16828.125000; 1.01798E-4
16833.984375; 1.00533E-4
16839.843750; 1.01708E-4
16845.703125; 9.66783E-5
16851.562500; 1.04574E-4
16857.421875; 1.04094E-4
16863.281250; 1.01634E-4
16869.140625; 9.72241E-5
16875.000000; 1.07895E-4
16880.859375; 1.06148E-4
16886.718750; 1.03844E-4
16892.578125; 9.83532E-5
16898.437500; 9.46250E-5
16904.296875; 9.32099E-5
16910.156250; 1.09516E-4
16916.015625; 9.62135E-5
16921.875000; 9.12171E-5
16927.734375; 1.03419E-4
16933.593750; 1.02624E-4
16939.453125; 9.50144E-5
16945.312500; 9.43124E-5
16951.171875; 8.82098E-5
16957.031250; 9.39341E-5
16962.890625; 1.00844E-4
16968.750000; 9.32755E-5
16974.609375; 9.63883E-5
16980.468750; 1.03572E-4
16986.328125; 9.62039E-5
16992.187500; 9.96689E-5
16998.046875; 1.08031E-4
17003.906250; 9.88199E-5
17009.765625; 9.71688E-5
17015.625000; 9.83732E-5
17021.484375; 9.83854E-5
17027.343750; 1.02735E-4
17033.203125; 1.09651E-4
17039.062500; 1.04249E-4
17044.921875; 1.02239E-4
17050.781250; 1.03070E-4
17056.640625; 1.01724E-4
17062.500000; 1.05869E-4
17068.359375; 9.20956E-5
17074.218750; 9.59080E-5
17080.078125; 9.78024E-5
17085.937500; 9.10199E-5
17091.796875; 9.31631E-5
17097.656250; 9.91660E-5
17103.515625; 9.97959E-5
17109.375000; 9.45334E-5
17115.234375; 9.30781E-5
17121.093750; 9.79325E-5
17126.953125; 1.01953E-4
17132.812500; 1.06550E-4
17138.671875; 1.05115E-4
17144.531250; 9.87619E-5
17150.390625; 8.63330E-5
17156.250000; 9.32567E-5
17162.109375; 1.00224E-4
17167.968750; 1.00989E-4
17173.828125; 8.86724E-5
17179.687500; 1.02482E-4
17185.546875; 1.01527E-4
17191.406250; 9.35900E-5
17197.265625; 9.06988E-5
17203.125000; 9.48083E-5
17208.984375; 1.05840E-4
17214.843750; 1.03373E-4
17220.703125; 9.43390E-5
17226.562500; 9.47644E-5
17232.421875; 9.97927E-5
17238.281250; 9.68624E-5
17244.140625; 9.83327E-5
17250.000000; 1.04009E-4
17255.859375; 1.06214E-4
17261.718750; 1.06664E-4
17267.578125; 9.94495E-5
17273.437500; 9.09757E-5
17279.296875; 9.15078E-5
17285.156250; 9.69990E-5
17291.015625; 8.95273E-5
17296.875000; 8.47733E-5
17302.734375; 9.59276E-5
17308.593750; 9.45785E-5
17314.453125; 9.70390E-5
17320.312500; 9.64979E-5
17326.171875; 9.92176E-5
17332.031250; 9.02944E-5
17337.890625; 8.43267E-5
17343.750000; 8.83427E-5
17349.609375; 9.49518E-5
17355.468750; 1.02493E-4
17361.328125; 9.77789E-5
17367.187500; 9.05756E-5
17373.046875; 9.21730E-5
17378.906250; 1.02062E-4
17384.765625; 9.85903E-5
17390.625000; 9.43718E-5
17396.484375; 9.77657E-5
17402.343750; 9.71268E-5
17408.203125; 9.94655E-5
17414.062500; 1.12181E-4
17419.921875; 1.05512E-4
17425.781250; 9.26040E-5
17431.640625; 9.81868E-5
17437.500000; 1.04923E-4
17443.359375; 9.55140E-5
17449.218750; 9.95475E-5
17455.078125; 9.62340E-5
17460.937500; 9.53238E-5
17466.796875; 9.59726E-5
17472.656250; 1.05442E-4
17478.515625; 1.11672E-4
17484.375000; 1.01821E-4
17490.234375; 9.23473E-5
17496.093750; 1.00778E-4
17501.953125; 1.07384E-4
17507.812500; 1.03228E-4
17513.671875; 1.01449E-4
17519.531250; 8.98903E-5
17525.390625; 9.44711E-5
17531.250000; 1.06826E-4
17537.109375; 1.02500E-4
17542.968750; 1.01376E-4
17548.828125; 9.62532E-5
17554.687500; 9.57095E-5
17560.546875; 9.33640E-5
17566.406250; 9.83745E-5
17572.265625; 1.04136E-4
17578.125000; 1.05054E-4
17583.984375; 9.44744E-5
17589.843750; 9.88111E-5
17595.703125; 1.16439E-4
17601.562500; 1.21197E-4
17607.421875; 1.12652E-4
17613.281250; 9.50858E-5
17619.140625; 9.09710E-5
17625.000000; 9.12018E-5
17630.859375; 9.62360E-5
17636.718750; 1.05419E-4
17642.578125; 9.77044E-5
17648.437500; 9.57500E-5
17654.296875; 1.01507E-4
17660.156250; 9.24419E-5
17666.015625; 8.50478E-5
17671.875000; 9.16472E-5
17677.734375; 1.01405E-4
17683.593750; 9.95815E-5
17689.453125; 9.70027E-5
17695.312500; 1.01761E-4
17701.171875; 9.87181E-5
17707.031250; 9.13097E-5
17712.890625; 9.68401E-5
17718.750000; 9.34368E-5
17724.609375; 8.48755E-5
17730.468750; 9.41023E-5
17736.328125; 9.25884E-5
17742.187500; 9.08740E-5
17748.046875; 9.72019E-5
17753.906250; 1.03701E-4
17759.765625; 9.46241E-5
17765.625000; 9.60002E-5
17771.484375; 9.61296E-5
17777.343750; 1.03381E-4
17783.203125; 1.05157E-4
17789.062500; 1.08985E-4
17794.921875; 1.07368E-4
17800.781250; 9.98077E-5
17806.640625; 9.66350E-5
17812.500000; 9.31914E-5
17818.359375; 9.41555E-5
17824.218750; 9.72738E-5
17830.078125; 9.84310E-5
17835.937500; 9.83818E-5
17841.796875; 9.89024E-5
17847.656250; 9.87183E-5
17853.515625; 9.59652E-5
17859.375000; 1.03467E-4
17865.234375; 1.07758E-4
17871.093750; 9.84843E-5
17876.953125; 9.96705E-5
17882.812500; 1.01773E-4
17888.671875; 9.92447E-5
17894.531250; 1.02235E-4
17900.390625; 1.03500E-4
17906.250000; 9.65111E-5
17912.109375; 9.24296E-5
17917.968750; 9.32887E-5
17923.828125; 9.65762E-5
17929.687500; 9.44286E-5
17935.546875; 8.32183E-5
17941.406250; 9.31535E-5
17947.265625; 9.75740E-5
17953.125000; 1.00672E-4
17958.984375; 1.10949E-4
17964.843750; 1.07349E-4
17970.703125; 1.01851E-4
17976.562500; 9.26909E-5
17982.421875; 8.61436E-5
17988.281250; 8.72224E-5
17994.140625; 9.71357E-5
18000.000000; 9.85918E-5
18005.859375; 1.01006E-4
18011.718750; 1.08070E-4
18017.578125; 1.10109E-4
18023.437500; 1.10786E-4
18029.296875; 9.85102E-5
18035.156250; 8.99066E-5
18041.015625; 9.28075E-5
18046.875000; 9.24455E-5
18052.734375; 1.04965E-4
18058.593750; 9.65001E-5
18064.453125; 9.94669E-5
18070.312500; 1.00140E-4
18076.171875; 9.32583E-5
18082.031250; 9.49285E-5
18087.890625; 1.07476E-4
18093.750000; 1.02117E-4
18099.609375; 1.02904E-4
18105.468750; 9.26654E-5
18111.328125; 1.02469E-4
18117.187500; 1.06335E-4
18123.046875; 9.85215E-5
18128.906250; 9.17249E-5
18134.765625; 8.49497E-5
18140.625000; 8.82063E-5
18146.484375; 9.43179E-5
18152.343750; 9.56635E-5
18158.203125; 9.97475E-5
18164.062500; 1.11389E-4
18169.921875; 9.77590E-5
18175.781250; 8.69613E-5
18181.640625; 9.57145E-5
18187.500000; 9.18595E-5
18193.359375; 9.61346E-5
18199.218750; 9.98927E-5
18205.078125; 9.51112E-5
18210.937500; 8.92311E-5
18216.796875; 9.89021E-5
18222.656250; 1.02079E-4
18228.515625; 1.01477E-4
18234.375000; 1.00561E-4
18240.234375; 1.03862E-4
18246.093750; 9.37933E-5
18251.953125; 1.10011E-4
18257.812500; 9.78413E-5
18263.671875; 9.54896E-5
18269.531250; 1.07688E-4
18275.390625; 1.03901E-4
18281.250000; 1.04308E-4
18287.109375; 1.02435E-4
18292.968750; 9.59938E-5
18298.828125; 8.39381E-5
18304.687500; 9.13369E-5
18310.546875; 1.07497E-4
18316.406250; 1.08564E-4
18322.265625; 1.02464E-4
18328.125000; 9.71304E-5
18333.984375; 9.80327E-5
18339.843750; 1.04349E-4
18345.703125; 9.62204E-5
18351.562500; 9.63720E-5
18357.421875; 9.93304E-5
18363.281250; 1.04039E-4
18369.140625; 9.85378E-5
18375.000000; 9.55841E-5
18380.859375; 9.60423E-5
18386.718750; 9.52262E-5
18392.578125; 9.33254E-5
18398.437500; 9.50675E-5
18404.296875; 1.04443E-4
18410.156250; 1.05622E-4
18416.015625; 1.08794E-4
18421.875000; 9.88127E-5
18427.734375; 1.04838E-4
18433.593750; 1.09596E-4
18439.453125; 1.03951E-4
18445.312500; 1.01281E-4
18451.171875; 9.84933E-5
18457.031250; 8.82397E-5
18462.890625; 8.88212E-5
18468.750000; 8.88990E-5
18474.609375; 9.26099E-5
18480.468750; 1.05001E-4
18486.328125; 9.47384E-5
18492.187500; 9.47934E-5
18498.046875; 1.09229E-4
18503.906250; 1.06802E-4
18509.765625; 1.00755E-4
18515.625000; 9.97732E-5
18521.484375; 9.84798E-5
18527.343750; 9.34911E-5
18533.203125; 8.85381E-5
18539.062500; 9.05644E-5
18544.921875; 9.74276E-5
18550.781250; 1.06293E-4
18556.640625; 1.02179E-4
18562.500000; 1.02432E-4
18568.359375; 9.39714E-5
18574.218750; 9.27997E-5
18580.078125; 1.03216E-4
18585.937500; 9.34562E-5
18591.796875; 8.90370E-5
18597.656250; 9.85260E-5
18603.515625; 1.00550E-4
18609.375000; 8.87744E-5
18615.234375; 1.01233E-4
18621.093750; 9.56357E-5
18626.953125; 9.60094E-5
18632.812500; 9.87398E-5
18638.671875; 9.37384E-5
18644.531250; 9.75684E-5
18650.390625; 9.79300E-5
18656.250000; 1.01483E-4
18662.109375; 9.56962E-5
18667.968750; 1.06277E-4
18673.828125; 1.03589E-4
18679.687500; 9.47081E-5
18685.546875; 1.00720E-4
18691.406250; 9.66834E-5
18697.265625; 9.32976E-5
18703.125000; 8.79863E-5
18708.984375; 9.55391E-5
18714.843750; 1.03172E-4
18720.703125; 1.01590E-4
18726.562500; 1.16517E-4
18732.421875; 1.09674E-4
18738.281250; 9.96221E-5
18744.140625; 9.56952E-5
18750.000000; 9.36621E-5
18755.859375; 9.37715E-5
18761.718750; 9.01224E-5
18767.578125; 9.62407E-5
18773.437500; 9.14708E-5
18779.296875; 8.82842E-5
18785.156250; 1.00859E-4
18791.015625; 1.11395E-4
18796.875000; 1.06625E-4
18802.734375; 1.01729E-4
18808.593750; 9.63905E-5
18814.453125; 9.24833E-5
18820.312500; 9.58166E-5
18826.171875; 1.01875E-4
18832.031250; 1.00676E-4
18837.890625; 9.13893E-5
18843.750000; 9.99953E-5
18849.609375; 1.08590E-4
18855.468750; 1.09338E-4
18861.328125; 1.01770E-4
18867.187500; 1.03083E-4
18873.046875; 9.78758E-5
18878.906250; 9.59829E-5
18884.765625; 1.04759E-4
18890.625000; 9.38502E-5
18896.484375; 8.83881E-5
18902.343750; 9.85852E-5
18908.203125; 1.06638E-4
18914.062500; 1.03577E-4
18919.921875; 9.37535E-5
18925.781250; 9.68314E-5
18931.640625; 1.04634E-4
18937.500000; 1.06963E-4
18943.359375; 1.01404E-4
18949.218750; 1.00162E-4
18955.078125; 9.53947E-5
18960.937500; 9.60217E-5
18966.796875; 9.62383E-5
18972.656250; 9.96761E-5
18978.515625; 9.53042E-5
18984.375000; 8.98133E-5
18990.234375; 9.99197E-5
18996.093750; 9.51106E-5
19001.953125; 9.13958E-5
19007.812500; 8.62700E-5
19013.671875; 8.89551E-5
19019.531250; 9.61090E-5
19025.390625; 9.10239E-5
19031.250000; 9.38145E-5
19037.109375; 9.50678E-5
19042.968750; 9.07561E-5
19048.828125; 9.53881E-5
19054.687500; 1.06701E-4
19060.546875; 1.02588E-4
19066.406250; 9.64252E-5
19072.265625; 9.72436E-5
19078.125000; 9.11943E-5
19083.984375; 9.46901E-5
19089.843750; 9.63177E-5
19095.703125; 8.65383E-5
19101.562500; 9.36374E-5
19107.421875; 1.04729E-4
19113.281250; 9.47326E-5
19119.140625; 9.59466E-5
19125.000000; 1.01404E-4
19130.859375; 1.02961E-4
19136.718750; 8.59232E-5
19142.578125; 9.83026E-5
19148.437500; 1.00047E-4
19154.296875; 9.24049E-5
19160.156250; 9.43184E-5
19166.015625; 8.93563E-5
19171.875000; 9.31200E-5
19177.734375; 9.97033E-5
19183.593750; 9.06709E-5
19189.453125; 8.14528E-5
19195.312500; 8.71787E-5
19201.171875; 9.14043E-5
19207.031250; 8.21523E-5
19212.890625; 8.66675E-5
19218.750000; 9.03654E-5
19224.609375; 1.02162E-4
19230.468750; 1.00228E-4
19236.328125; 9.64419E-5
19242.187500; 9.62725E-5
19248.046875; 1.00967E-4
19253.906250; 8.85133E-5
19259.765625; 9.54556E-5
19265.625000; 9.71701E-5
19271.484375; 1.03751E-4
19277.343750; 9.65065E-5
19283.203125; 9.76364E-5
19289.062500; 9.99498E-5
19294.921875; 9.20608E-5
19300.781250; 9.01076E-5
19306.640625; 9.88095E-5
19312.500000; 9.50807E-5
19318.359375; 9.02746E-5
19324.218750; 9.05959E-5
19330.078125; 8.93029E-5
19335.937500; 9.57177E-5
19341.796875; 1.02031E-4
19347.656250; 9.68542E-5
19353.515625; 9.71059E-5
19359.375000; 9.55953E-5
19365.234375; 9.36733E-5
19371.093750; 8.85778E-5
19376.953125; 9.54578E-5
19382.812500; 1.09858E-4
19388.671875; 1.12083E-4
19394.531250; 9.30202E-5
19400.390625; 9.33582E-5
19406.250000; 9.10098E-5
19412.109375; 9.26541E-5
19417.968750; 8.68132E-5
19423.828125; 8.87439E-5
19429.687500; 9.29215E-5
19435.546875; 9.00701E-5
19441.406250; 8.49596E-5
19447.265625; 8.97782E-5
19453.125000; 9.33377E-5
19458.984375; 9.31763E-5
19464.843750; 9.46432E-5
19470.703125; 8.61992E-5
19476.562500; 8.90342E-5
19482.421875; 1.03682E-4
19488.281250; 9.91311E-5
19494.140625; 1.04655E-4
19500.000000; 9.58993E-5
19505.859375; 8.94102E-5
19511.718750; 9.76895E-5
19517.578125; 1.06687E-4
19523.437500; 9.78122E-5
19529.296875; 9.40895E-5
19535.156250; 9.13573E-5
19541.015625; 9.21415E-5
19546.875000; 9.23594E-5
19552.734375; 9.17223E-5
19558.593750; 9.21114E-5
19564.453125; 1.00848E-4
19570.312500; 9.68314E-5
19576.171875; 8.81265E-5
19582.031250; 9.21255E-5
19587.890625; 8.97357E-5
19593.750000; 9.56256E-5
19599.609375; 1.06883E-4
19605.468750; 9.58822E-5
19611.328125; 9.85621E-5
19617.187500; 9.80092E-5
19623.046875; 1.01837E-4
19628.906250; 9.75949E-5
19634.765625; 9.57861E-5
19640.625000; 9.44408E-5
19646.484375; 9.83447E-5
19652.343750; 9.82961E-5
19658.203125; 1.05919E-4
19664.062500; 9.92877E-5
19669.921875; 9.91247E-5
19675.781250; 9.78634E-5
19681.640625; 9.78952E-5
19687.500000; 9.55921E-5
19693.359375; 9.07134E-5
19699.218750; 8.55454E-5
19705.078125; 8.68223E-5
19710.937500; 1.02950E-4
19716.796875; 1.11809E-4
19722.656250; 1.06125E-4
19728.515625; 1.02769E-4
19734.375000; 9.94268E-5
19740.234375; 9.23972E-5
19746.093750; 9.68488E-5
19751.953125; 1.02462E-4
19757.812500; 9.12405E-5
19763.671875; 9.47672E-5
19769.531250; 9.19037E-5
19775.390625; 9.29114E-5
19781.250000; 1.05122E-4
19787.109375; 9.02881E-5
19792.968750; 9.02072E-5
19798.828125; 1.01310E-4
19804.687500; 1.04397E-4
19810.546875; 1.10026E-4
19816.406250; 1.04388E-4
19822.265625; 9.38629E-5
19828.125000; 9.08914E-5
19833.984375; 9.13899E-5
19839.843750; 9.56782E-5
19845.703125; 9.09951E-5
19851.562500; 9.85399E-5
19857.421875; 1.01692E-4
19863.281250; 9.06591E-5
19869.140625; 8.51637E-5
19875.000000; 9.38985E-5
19880.859375; 9.86356E-5
19886.718750; 9.49566E-5
19892.578125; 9.15442E-5
19898.437500; 9.82725E-5
19904.296875; 9.42109E-5
19910.156250; 9.71461E-5
19916.015625; 8.95171E-5
19921.875000; 8.84549E-5
19927.734375; 9.75489E-5
19933.593750; 9.46200E-5
19939.453125; 9.11893E-5
19945.312500; 9.21900E-5
19951.171875; 8.69146E-5
19957.031250; 9.16084E-5
19962.890625; 8.75169E-5
19968.750000; 9.09313E-5
19974.609375; 9.18679E-5
19980.468750; 8.58286E-5
19986.328125; 1.01813E-4
19992.187500; 1.04179E-4
19998.046875; 9.17336E-5
20003.906250; 9.76537E-5
20009.765625; 9.88343E-5
20015.625000; 9.88032E-5
20021.484375; 9.22236E-5
20027.343750; 8.79836E-5
20033.203125; 9.09766E-5
20039.062500; 9.74462E-5
20044.921875; 9.28250E-5
20050.781250; 9.25722E-5
20056.640625; 9.04428E-5
20062.500000; 9.09119E-5
20068.359375; 9.49027E-5
20074.218750; 9.57324E-5
20080.078125; 9.82341E-5
20085.937500; 1.02749E-4
20091.796875; 9.66843E-5
20097.656250; 9.36727E-5
20103.515625; 8.85342E-5
20109.375000; 8.98037E-5
20115.234375; 9.36066E-5
20121.093750; 9.19682E-5
20126.953125; 1.04059E-4
20132.812500; 1.01867E-4
20138.671875; 9.68446E-5
20144.531250; 9.24619E-5
20150.390625; 1.00860E-4
20156.250000; 1.01351E-4
20162.109375; 1.06480E-4
20167.968750; 9.95737E-5
20173.828125; 9.33834E-5
20179.687500; 9.47131E-5
20185.546875; 9.58055E-5
20191.406250; 1.02563E-4
20197.265625; 1.08455E-4
20203.125000; 9.20333E-5
20208.984375; 8.81449E-5
20214.843750; 9.17356E-5
20220.703125; 9.60719E-5
20226.562500; 9.63355E-5
20232.421875; 1.01230E-4
20238.281250; 9.20800E-5
20244.140625; 9.65884E-5
20250.000000; 9.75819E-5
20255.859375; 9.35756E-5
20261.718750; 9.62466E-5
20267.578125; 1.04783E-4
20273.437500; 9.65892E-5
20279.296875; 9.17312E-5
20285.156250; 9.28610E-5
20291.015625; 9.69105E-5
20296.875000; 9.18414E-5
20302.734375; 1.06422E-4
20308.593750; 1.16387E-4
20314.453125; 1.03915E-4
20320.312500; 9.88667E-5
20326.171875; 9.44479E-5
20332.031250; 9.40337E-5
20337.890625; 1.03317E-4
20343.750000; 9.87704E-5
20349.609375; 9.03309E-5
20355.468750; 1.00376E-4
20361.328125; 9.96741E-5
20367.187500; 8.89780E-5
20373.046875; 9.31350E-5
20378.906250; 9.30781E-5
20384.765625; 9.09502E-5
20390.625000; 9.33216E-5
20396.484375; 9.52250E-5
20402.343750; 1.04300E-4
20408.203125; 1.06417E-4
20414.062500; 1.05977E-4
20419.921875; 9.67445E-5
20425.781250; 1.09486E-4
20431.640625; 1.06404E-4
20437.500000; 1.04610E-4
20443.359375; 1.05634E-4
20449.218750; 1.03000E-4
20455.078125; 9.25494E-5
20460.937500; 9.98385E-5
20466.796875; 9.82397E-5
20472.656250; 9.70635E-5
20478.515625; 9.38765E-5
20484.375000; 9.76075E-5
20490.234375; 1.00873E-4
20496.093750; 8.67685E-5
20501.953125; 9.44497E-5
20507.812500; 1.02064E-4
20513.671875; 1.03366E-4
20519.531250; 9.38666E-5
20525.390625; 9.08273E-5
20531.250000; 9.75025E-5
20537.109375; 9.77740E-5
20542.968750; 1.04500E-4
20548.828125; 1.00834E-4
20554.687500; 9.26710E-5
20560.546875; 9.59399E-5
20566.406250; 9.22160E-5
20572.265625; 8.84293E-5
20578.125000; 9.82229E-5
20583.984375; 1.08671E-4
20589.843750; 1.08686E-4
20595.703125; 1.12279E-4
20601.562500; 1.04899E-4
20607.421875; 9.03878E-5
20613.281250; 9.68104E-5
20619.140625; 1.02253E-4
20625.000000; 1.02964E-4
20630.859375; 9.89240E-5
20636.718750; 9.96115E-5
20642.578125; 9.94634E-5
20648.437500; 9.67985E-5
20654.296875; 9.33821E-5
20660.156250; 9.50568E-5
20666.015625; 9.33611E-5
20671.875000; 9.21228E-5
20677.734375; 8.84671E-5
20683.593750; 9.19130E-5
20689.453125; 9.24515E-5
20695.312500; 9.04716E-5
20701.171875; 9.63860E-5
20707.031250; 9.82942E-5
20712.890625; 9.66826E-5
20718.750000; 9.59033E-5
20724.609375; 9.47253E-5
20730.468750; 9.85009E-5
20736.328125; 9.31481E-5
20742.187500; 9.14180E-5
20748.046875; 9.66469E-5
20753.906250; 9.83174E-5
20759.765625; 9.84682E-5
20765.625000; 1.03542E-4
20771.484375; 1.04476E-4
20777.343750; 9.56440E-5
20783.203125; 9.85210E-5
20789.062500; 1.10372E-4
20794.921875; 1.05971E-4
20800.781250; 9.75049E-5
20806.640625; 9.42910E-5
20812.500000; 8.65532E-5
20818.359375; 8.48420E-5
20824.218750; 9.25958E-5
20830.078125; 9.80785E-5
20835.937500; 1.07298E-4
20841.796875; 1.02960E-4
20847.656250; 9.20170E-5
20853.515625; 1.01400E-4
20859.375000; 1.01572E-4
20865.234375; 9.87469E-5
20871.093750; 9.79295E-5
20876.953125; 9.24498E-5
20882.812500; 9.06750E-5
20888.671875; 8.83137E-5
20894.531250; 9.22569E-5
20900.390625; 8.89802E-5
20906.250000; 9.01819E-5
20912.109375; 8.44805E-5
20917.968750; 8.60123E-5
20923.828125; 1.01410E-4
20929.687500; 9.28387E-5
20935.546875; 9.65284E-5
20941.406250; 1.04050E-4
20947.265625; 1.03463E-4
20953.125000; 9.09854E-5
20958.984375; 8.17330E-5
20964.843750; 9.34436E-5
20970.703125; 1.00706E-4
20976.562500; 1.00716E-4
20982.421875; 1.00829E-4
20988.281250; 1.01041E-4
20994.140625; 1.04411E-4
21000.000000; 9.83418E-5
21005.859375; 9.95242E-5
21011.718750; 1.00818E-4
21017.578125; 9.25308E-5
21023.437500; 8.80545E-5
21029.296875; 9.90050E-5
21035.156250; 8.99439E-5
21041.015625; 8.53373E-5
21046.875000; 9.04730E-5
21052.734375; 9.85945E-5
21058.593750; 9.21610E-5
21064.453125; 8.93526E-5
21070.312500; 9.45291E-5
21076.171875; 9.30851E-5
21082.031250; 9.16238E-5
21087.890625; 9.63667E-5
21093.750000; 1.06434E-4
21099.609375; 1.03291E-4
21105.468750; 1.03436E-4
21111.328125; 1.04294E-4
21117.187500; 1.01997E-4
21123.046875; 1.03867E-4
21128.906250; 1.01186E-4
21134.765625; 9.83019E-5
21140.625000; 1.09058E-4
21146.484375; 1.03628E-4
21152.343750; 9.75570E-5
21158.203125; 9.73614E-5
21164.062500; 9.28557E-5
21169.921875; 8.68555E-5
21175.781250; 9.09606E-5
21181.640625; 9.20684E-5
21187.500000; 8.47502E-5
21193.359375; 8.29050E-5
21199.218750; 9.55827E-5
21205.078125; 8.73459E-5
21210.937500; 8.99485E-5
21216.796875; 9.68688E-5
21222.656250; 9.37696E-5
21228.515625; 9.42951E-5
21234.375000; 1.00279E-4
21240.234375; 1.03929E-4
21246.093750; 8.84946E-5
21251.953125; 8.75033E-5
21257.812500; 9.05173E-5
21263.671875; 9.33036E-5
21269.531250; 9.38455E-5
21275.390625; 9.39340E-5
21281.250000; 9.56765E-5
21287.109375; 1.01417E-4
21292.968750; 1.06002E-4
21298.828125; 1.00860E-4
21304.687500; 9.69120E-5
21310.546875; 1.01597E-4
21316.406250; 1.04994E-4
21322.265625; 9.89084E-5
21328.125000; 1.03247E-4
21333.984375; 9.74751E-5
21339.843750; 8.80420E-5
21345.703125; 9.43646E-5
21351.562500; 1.02517E-4
21357.421875; 8.46475E-5
21363.281250; 9.10613E-5
21369.140625; 9.04340E-5
21375.000000; 9.54727E-5
21380.859375; 9.96584E-5
21386.718750; 9.87597E-5
21392.578125; 1.00978E-4
21398.437500; 1.03478E-4
21404.296875; 9.86157E-5
21410.156250; 9.97015E-5
21416.015625; 1.01736E-4
21421.875000; 8.12913E-5
21427.734375; 8.96990E-5
21433.593750; 9.26145E-5
21439.453125; 9.42782E-5
21445.312500; 9.77732E-5
21451.171875; 9.76714E-5
21457.031250; 9.84646E-5
21462.890625; 9.59551E-5
21468.750000; 9.63570E-5
21474.609375; 1.00302E-4
21480.468750; 9.97435E-5
21486.328125; 1.02073E-4
21492.187500; 1.03243E-4
21498.046875; 9.77621E-5
21503.906250; 9.03017E-5
21509.765625; 9.13258E-5
21515.625000; 9.49496E-5
21521.484375; 9.77674E-5
21527.343750; 8.85032E-5
21533.203125; 9.94075E-5
21539.062500; 1.05878E-4
21544.921875; 9.33865E-5
21550.781250; 9.51605E-5
21556.640625; 9.32929E-5
21562.500000; 9.13548E-5
21568.359375; 9.75894E-5
21574.218750; 9.42940E-5
21580.078125; 1.03462E-4
21585.937500; 1.08169E-4
21591.796875; 1.10015E-4
21597.656250; 9.89399E-5
21603.515625; 9.70465E-5
21609.375000; 9.54917E-5
21615.234375; 8.79290E-5
21621.093750; 8.10820E-5
21626.953125; 8.79330E-5
21632.812500; 1.04191E-4
21638.671875; 1.11937E-4
21644.531250; 1.03142E-4
21650.390625; 9.23873E-5
21656.250000; 8.31807E-5
21662.109375; 8.41990E-5
21667.968750; 8.47578E-5
21673.828125; 8.95232E-5
21679.687500; 9.45030E-5
21685.546875; 1.01590E-4
21691.406250; 8.50128E-5
21697.265625; 8.53326E-5
21703.125000; 9.49086E-5
21708.984375; 9.11071E-5
21714.843750; 8.55295E-5
21720.703125; 9.41248E-5
21726.562500; 9.98424E-5
21732.421875; 1.00831E-4
21738.281250; 9.33693E-5
21744.140625; 9.08615E-5
21750.000000; 9.59150E-5
21755.859375; 9.31524E-5
21761.718750; 8.82544E-5
21767.578125; 9.95866E-5
21773.437500; 9.58360E-5
21779.296875; 9.85369E-5
21785.156250; 1.02736E-4
21791.015625; 9.93769E-5
21796.875000; 9.18148E-5
21802.734375; 8.97809E-5
21808.593750; 8.87189E-5
21814.453125; 9.02418E-5
21820.312500; 1.07068E-4
21826.171875; 1.04183E-4
21832.031250; 9.45208E-5
21837.890625; 9.36491E-5
21843.750000; 9.18369E-5
21849.609375; 9.37356E-5
21855.468750; 8.97673E-5
21861.328125; 9.17637E-5
21867.187500; 9.92522E-5
21873.046875; 9.81192E-5
21878.906250; 9.17849E-5
21884.765625; 8.72225E-5
21890.625000; 9.13373E-5
21896.484375; 9.16279E-5
21902.343750; 9.11749E-5
21908.203125; 9.93441E-5
21914.062500; 9.74258E-5
21919.921875; 9.51362E-5
21925.781250; 9.91508E-5
21931.640625; 9.77648E-5
21937.500000; 9.82250E-5
21943.359375; 9.93282E-5
21949.218750; 9.13829E-5
21955.078125; 8.98785E-5
21960.937500; 9.47336E-5
21966.796875; 8.62973E-5
21972.656250; 9.68940E-5
21978.515625; 1.06110E-4
21984.375000; 8.70067E-5
21990.234375; 8.26509E-5
21996.093750; 8.90860E-5
22001.953125; 8.83603E-5
22007.812500; 9.02559E-5
22013.671875; 9.05150E-5
22019.531250; 9.34780E-5
22025.390625; 1.07003E-4
22031.250000; 9.77535E-5
22037.109375; 8.85671E-5
22042.968750; 8.74009E-5
22048.828125; 9.12326E-5
22054.687500; 9.76379E-5
22060.546875; 9.67333E-5
22066.406250; 9.77296E-5
22072.265625; 9.71200E-5
22078.125000; 9.22094E-5
22083.984375; 8.58694E-5
22089.843750; 9.20079E-5
22095.703125; 9.33364E-5
22101.562500; 9.59963E-5
22107.421875; 8.88333E-5
22113.281250; 1.03140E-4
22119.140625; 1.08063E-4
22125.000000; 8.92496E-5
22130.859375; 8.84261E-5
22136.718750; 1.01108E-4
22142.578125; 9.44070E-5
22148.437500; 8.56299E-5
22154.296875; 9.11175E-5
22160.156250; 9.63627E-5
22166.015625; 8.20103E-5
22171.875000; 8.66846E-5
22177.734375; 8.71969E-5
22183.593750; 9.01173E-5
22189.453125; 9.58424E-5
22195.312500; 9.48788E-5
22201.171875; 9.49967E-5
22207.031250; 9.03019E-5
22212.890625; 9.13434E-5
22218.750000; 9.70044E-5
22224.609375; 9.12224E-5
22230.468750; 9.75740E-5
22236.328125; 1.03817E-4
22242.187500; 1.00190E-4
22248.046875; 9.90173E-5
22253.906250; 8.63941E-5
22259.765625; 9.03748E-5
22265.625000; 9.49255E-5
22271.484375; 9.46771E-5
22277.343750; 9.25414E-5
22283.203125; 8.81250E-5
22289.062500; 8.86370E-5
22294.921875; 9.07229E-5
22300.781250; 9.19284E-5
22306.640625; 9.25655E-5
22312.500000; 8.60194E-5
22318.359375; 9.22634E-5
22324.218750; 8.99064E-5
22330.078125; 9.69743E-5
22335.937500; 1.02940E-4
22341.796875; 9.61209E-5
22347.656250; 9.57036E-5
22353.515625; 9.40058E-5
22359.375000; 1.00498E-4
22365.234375; 9.80302E-5
22371.093750; 9.96703E-5
22376.953125; 9.60233E-5
22382.812500; 8.32379E-5
22388.671875; 8.14522E-5
22394.531250; 7.48954E-5
22400.390625; 8.61620E-5
22406.250000; 9.29060E-5
22412.109375; 9.14429E-5
22417.968750; 8.75748E-5
22423.828125; 9.32910E-5
22429.687500; 8.78688E-5
22435.546875; 8.82554E-5
22441.406250; 8.78816E-5
22447.265625; 8.79390E-5
22453.125000; 9.39780E-5
22458.984375; 8.89858E-5
22464.843750; 9.28708E-5
22470.703125; 9.01800E-5
22476.562500; 8.69634E-5
22482.421875; 8.45899E-5
22488.281250; 9.16292E-5
22494.140625; 8.98371E-5
22500.000000; 9.13148E-5
22505.859375; 8.02051E-5
22511.718750; 7.75356E-5
22517.578125; 8.20985E-5
22523.437500; 8.23237E-5
22529.296875; 8.29874E-5
22535.156250; 8.32978E-5
22541.015625; 8.50030E-5
22546.875000; 7.91013E-5
22552.734375; 8.76984E-5
22558.593750; 9.29220E-5
22564.453125; 8.56581E-5
22570.312500; 8.24714E-5
22576.171875; 8.67735E-5
22582.031250; 8.32484E-5
22587.890625; 8.83793E-5
22593.750000; 8.96349E-5
22599.609375; 8.46805E-5
22605.468750; 7.93147E-5
22611.328125; 8.27925E-5
22617.187500; 8.98950E-5
22623.046875; 8.75652E-5
22628.906250; 8.25513E-5
22634.765625; 7.92490E-5
22640.625000; 7.86573E-5
22646.484375; 8.51628E-5
22652.343750; 7.78106E-5
22658.203125; 8.10780E-5
22664.062500; 8.37241E-5
22669.921875; 9.03474E-5
22675.781250; 9.27097E-5
22681.640625; 9.22355E-5
22687.500000; 8.90067E-5
22693.359375; 8.72297E-5
22699.218750; 8.41621E-5
22705.078125; 8.34721E-5
22710.937500; 7.92844E-5
22716.796875; 7.10079E-5
22722.656250; 7.96234E-5
22728.515625; 7.98368E-5
22734.375000; 8.24566E-5
22740.234375; 8.80574E-5
22746.093750; 8.24195E-5
22751.953125; 8.69463E-5
22757.812500; 8.59505E-5
22763.671875; 7.71985E-5
22769.531250; 7.15322E-5
22775.390625; 8.06461E-5
22781.250000; 8.93664E-5
22787.109375; 8.34293E-5
22792.968750; 7.46581E-5
22798.828125; 7.48541E-5
22804.687500; 8.13641E-5
22810.546875; 8.56201E-5
22816.406250; 7.76204E-5
22822.265625; 7.54963E-5
22828.125000; 7.44902E-5
22833.984375; 8.66221E-5
22839.843750; 8.99282E-5
22845.703125; 8.20946E-5
22851.562500; 8.66360E-5
22857.421875; 7.85744E-5
22863.281250; 7.10671E-5
22869.140625; 7.47969E-5
22875.000000; 7.61070E-5
22880.859375; 8.45269E-5
22886.718750; 8.06910E-5
22892.578125; 8.53786E-5
22898.437500; 8.11647E-5
22904.296875; 6.73073E-5
22910.156250; 6.86050E-5
22916.015625; 6.91801E-5
22921.875000; 7.71800E-5
22927.734375; 7.44133E-5
22933.593750; 7.15963E-5
22939.453125; 7.31264E-5
22945.312500; 7.43925E-5
22951.171875; 7.72056E-5
22957.031250; 7.85863E-5
22962.890625; 7.25313E-5
22968.750000; 7.02973E-5
22974.609375; 7.41544E-5
22980.468750; 7.51316E-5
22986.328125; 6.69276E-5
22992.187500; 6.87204E-5
22998.046875; 6.86355E-5
23003.906250; 7.50246E-5
23009.765625; 6.77136E-5
23015.625000; 6.28184E-5
23021.484375; 7.23760E-5
23027.343750; 6.99261E-5
23033.203125; 6.09286E-5
23039.062500; 6.34350E-5
23044.921875; 6.66048E-5
23050.781250; 6.74314E-5
23056.640625; 7.67384E-5
23062.500000; 7.60307E-5
23068.359375; 7.58867E-5
23074.218750; 7.91790E-5
23080.078125; 7.34284E-5
23085.937500; 6.70177E-5
23091.796875; 6.34556E-5
23097.656250; 6.80549E-5
23103.515625; 7.44548E-5
23109.375000; 6.58867E-5
23115.234375; 6.55643E-5
23121.093750; 6.17261E-5
23126.953125; 6.29313E-5
23132.812500; 6.32683E-5
23138.671875; 5.90501E-5
23144.531250; 6.22811E-5
23150.390625; 6.53602E-5
23156.250000; 6.40028E-5
23162.109375; 6.77582E-5
23167.968750; 6.29905E-5
23173.828125; 5.91596E-5
23179.687500; 6.00899E-5
23185.546875; 5.88791E-5
23191.406250; 5.70165E-5
23197.265625; 5.85533E-5
23203.125000; 6.24568E-5
23208.984375; 5.87398E-5
23214.843750; 6.01228E-5
23220.703125; 6.60766E-5
23226.562500; 6.71270E-5
23232.421875; 6.38651E-5
23238.281250; 6.00934E-5
23244.140625; 6.02725E-5
23250.000000; 6.00954E-5
23255.859375; 6.30425E-5
23261.718750; 6.44087E-5
23267.578125; 5.96254E-5
23273.437500; 6.30838E-5
23279.296875; 6.65917E-5
23285.156250; 6.01466E-5
23291.015625; 5.33189E-5
23296.875000; 5.67308E-5
23302.734375; 5.85619E-5
23308.593750; 5.70836E-5
23314.453125; 5.92782E-5
23320.312500; 5.09526E-5
23326.171875; 4.99272E-5
23332.031250; 4.92268E-5
23337.890625; 5.43465E-5
23343.750000; 5.80991E-5
23349.609375; 6.29547E-5
23355.468750; 6.20336E-5
23361.328125; 5.40060E-5
23367.187500; 5.14337E-5
23373.046875; 5.18713E-5
23378.906250; 5.08152E-5
23384.765625; 5.36179E-5
23390.625000; 5.51119E-5
23396.484375; 4.93565E-5
23402.343750; 5.17262E-5
23408.203125; 5.28282E-5
23414.062500; 5.39844E-5
23419.921875; 5.45862E-5
23425.781250; 5.26333E-5
23431.640625; 5.27400E-5
23437.500000; 5.02753E-5
23443.359375; 5.48065E-5
23449.218750; 4.84812E-5
23455.078125; 4.64168E-5
23460.937500; 4.64141E-5
23466.796875; 4.88239E-5
23472.656250; 5.10658E-5
23478.515625; 5.23962E-5
23484.375000; 4.94566E-5
23490.234375; 5.08337E-5
23496.093750; 5.16903E-5
23501.953125; 4.80036E-5
23507.812500; 4.81576E-5
23513.671875; 4.57975E-5
23519.531250; 4.77068E-5
23525.390625; 4.46242E-5
23531.250000; 4.69342E-5
23537.109375; 4.85068E-5
23542.968750; 4.84817E-5
23548.828125; 4.27959E-5
23554.687500; 4.37531E-5
23560.546875; 4.34588E-5
23566.406250; 4.59804E-5
23572.265625; 4.71614E-5
23578.125000; 4.23101E-5
23583.984375; 3.96107E-5
23589.843750; 4.15939E-5
23595.703125; 3.96804E-5
23601.562500; 4.58202E-5
23607.421875; 4.87608E-5
23613.281250; 4.30049E-5
23619.140625; 3.99904E-5
23625.000000; 4.33061E-5
23630.859375; 4.16264E-5
23636.718750; 4.00030E-5
23642.578125; 4.24623E-5
23648.437500; 4.30837E-5
23654.296875; 4.00494E-5
23660.156250; 4.24825E-5
23666.015625; 4.40039E-5
23671.875000; 3.94215E-5
23677.734375; 4.06708E-5
23683.593750; 4.50117E-5
23689.453125; 4.30280E-5
23695.312500; 3.81889E-5
23701.171875; 3.87913E-5
23707.031250; 3.90312E-5
23712.890625; 3.84646E-5
23718.750000; 3.68734E-5
23724.609375; 3.75256E-5
23730.468750; 3.93306E-5
23736.328125; 3.83611E-5
23742.187500; 3.57969E-5
23748.046875; 3.81905E-5
23753.906250; 3.75053E-5
23759.765625; 3.81205E-5
23765.625000; 3.78749E-5
23771.484375; 3.81340E-5
23777.343750; 3.96125E-5
23783.203125; 3.58271E-5
23789.062500; 3.60592E-5
23794.921875; 3.65270E-5
23800.781250; 3.50295E-5
23806.640625; 3.56119E-5
23812.500000; 3.46175E-5
23818.359375; 3.29379E-5
23824.218750; 3.69955E-5
23830.078125; 3.82215E-5
23835.937500; 3.56150E-5
23841.796875; 3.64874E-5
23847.656250; 3.42259E-5
23853.515625; 3.37595E-5
23859.375000; 2.98518E-5
23865.234375; 3.37339E-5
23871.093750; 3.31255E-5
23876.953125; 3.48184E-5
23882.812500; 3.79584E-5
23888.671875; 3.80341E-5
23894.531250; 3.26672E-5
23900.390625; 3.20598E-5
23906.250000; 3.43653E-5
23912.109375; 3.49474E-5
23917.968750; 3.33522E-5
23923.828125; 3.06553E-5
23929.687500; 2.89287E-5
23935.546875; 3.51925E-5
23941.406250; 3.65429E-5
23947.265625; 3.49902E-5
23953.125000; 3.53947E-5
23958.984375; 3.70248E-5
23964.843750; 3.54557E-5
23970.703125; 3.42114E-5
23976.562500; 3.21821E-5
23982.421875; 3.32620E-5
23988.281250; 3.39209E-5
23994.140625; 3.54075E-5
