* Measurement data measured by REW V5.31.3
* Source: PCM: default, no input selected, 2, volume: no control
* Format: 8192-point spectrum using Hann window and exponential averaging 0.97 
* Dated: Mar 9, 2025 1:10:58 PM
* REW Settings:
*  C-weighting compensation: Off
*  Target level: 75.0 dB
* Note: OSDEHA MU-OUTPUT; 8192-point spectrum using Hann window and exponential averaging 0.97  Input RMS 5.625 V 5.625 VC, 5.625 VA 5.625 V 22 - 22k UNW 946.5 uV >22k Distortion at 1,000.0 Hz, -25.00 dBFS: Gain: 29.68 dB THD: 0.011 % based on 21 harmonics  [0..22800 Hz] HHD: 0.0068 %  [10 .. 22] N: 0.25 %  [0..22800 Hz] N+D: 4.375 mV A THD+N: 0.25 %  [0..22800 Hz] SNR: 52.0 dB ENOB: 13.0 bits 2nd harmonic 0.0073 % 149 deg 3rd harmonic 0.0020 % 116 deg 4th harmonic 0.0020 % -119 deg 5th harmonic 0.0019 % -101 deg 6th harmonic 0.0019 % -176 deg 7th harmonic 0.0020 % 28 deg 8th harmonic 0.0018 % -64 deg 9th harmonic 0.0020 % -106 deg 
* Measurement: OSDEHA MU-OUT 5.62V
* Smoothing: None
* Frequency Step: 5.859375 Hz
* Start Frequency: 5.859375 Hz
*
* Freq(Hz); V(V)
5.859375; 2.22467E-4
11.718750; 2.91316E-4
17.578125; 3.05443E-4
23.437500; 2.62788E-4
29.296875; 2.22871E-4
35.156250; 2.30773E-4
41.015625; 2.61033E-4
46.875000; 3.80467E-4
52.734375; 3.80170E-4
58.593750; 2.16933E-4
64.453125; 2.05846E-4
70.312500; 2.01194E-4
76.171875; 1.90269E-4
82.031250; 1.69483E-4
87.890625; 1.94328E-4
93.750000; 5.84862E-3
99.609375; 1.28627E-2
105.468750; 7.06254E-3
111.328125; 2.15574E-4
117.187500; 1.49662E-4
123.046875; 1.66834E-4
128.906250; 1.49096E-4
134.765625; 1.43216E-4
140.625000; 1.33018E-4
146.484375; 1.73880E-4
152.343750; 1.64929E-4
158.203125; 1.42682E-4
164.062500; 1.52136E-4
169.921875; 1.43071E-4
175.781250; 1.34616E-4
181.640625; 1.33118E-4
187.500000; 1.44052E-4
193.359375; 5.61271E-4
199.218750; 1.36552E-3
205.078125; 8.39533E-4
210.937500; 1.41839E-4
216.796875; 1.26749E-4
222.656250; 1.35428E-4
228.515625; 1.26372E-4
234.375000; 1.25189E-4
240.234375; 1.14804E-4
246.093750; 1.40750E-4
251.953125; 1.51337E-4
257.812500; 1.23056E-4
263.671875; 1.06572E-4
269.531250; 1.07879E-4
275.390625; 1.17345E-4
281.250000; 1.32012E-4
287.109375; 1.37402E-4
292.968750; 1.76025E-4
298.828125; 2.98363E-4
304.687500; 2.13859E-4
310.546875; 1.19849E-4
316.406250; 1.23714E-4
322.265625; 1.15567E-4
328.125000; 1.21250E-4
333.984375; 1.15515E-4
339.843750; 1.16944E-4
345.703125; 1.29426E-4
351.562500; 1.27837E-4
357.421875; 1.11599E-4
363.281250; 1.12307E-4
369.140625; 1.20172E-4
375.000000; 1.14244E-4
380.859375; 1.14534E-4
386.718750; 1.23362E-4
392.578125; 1.54414E-4
398.437500; 2.74327E-4
404.296875; 2.02466E-4
410.156250; 1.19885E-4
416.015625; 1.24508E-4
421.875000; 1.11117E-4
427.734375; 1.16785E-4
433.593750; 1.21926E-4
439.453125; 1.24232E-4
445.312500; 1.35900E-4
451.171875; 1.27873E-4
457.031250; 1.29402E-4
462.890625; 1.28623E-4
468.750000; 1.15277E-4
474.609375; 1.30725E-4
480.468750; 1.34625E-4
486.328125; 1.35760E-4
492.187500; 1.25802E-4
498.046875; 1.32462E-4
503.906250; 1.17271E-4
509.765625; 1.24267E-4
515.625000; 1.26950E-4
521.484375; 1.05142E-4
527.343750; 9.34624E-5
533.203125; 1.12638E-4
539.062500; 1.26376E-4
544.921875; 1.09874E-4
550.781250; 1.21688E-4
556.640625; 1.18545E-4
562.500000; 1.10124E-4
568.359375; 1.14702E-4
574.218750; 1.17408E-4
580.078125; 1.09911E-4
585.937500; 1.04970E-4
591.796875; 1.12778E-4
597.656250; 1.24441E-4
603.515625; 1.36030E-4
609.375000; 1.26048E-4
615.234375; 1.23686E-4
621.093750; 1.16482E-4
626.953125; 1.18344E-4
632.812500; 1.26108E-4
638.671875; 1.09671E-4
644.531250; 1.07281E-4
650.390625; 1.10208E-4
656.250000; 1.13075E-4
662.109375; 1.17127E-4
667.968750; 1.27385E-4
673.828125; 1.15705E-4
679.687500; 1.08663E-4
685.546875; 9.57664E-5
691.406250; 9.77646E-5
697.265625; 1.05434E-4
703.125000; 1.05588E-4
708.984375; 1.05925E-4
714.843750; 1.08052E-4
720.703125; 1.15452E-4
726.562500; 1.07611E-4
732.421875; 1.09841E-4
738.281250; 1.13115E-4
744.140625; 1.10958E-4
750.000000; 1.17050E-4
755.859375; 1.21880E-4
761.718750; 1.20130E-4
767.578125; 1.12281E-4
773.437500; 1.07047E-4
779.296875; 1.22414E-4
785.156250; 1.19995E-4
791.015625; 1.15550E-4
796.875000; 1.09504E-4
802.734375; 1.19538E-4
808.593750; 1.14806E-4
814.453125; 1.29376E-4
820.312500; 1.29921E-4
826.171875; 1.28275E-4
832.031250; 1.24567E-4
837.890625; 1.20380E-4
843.750000; 1.46046E-4
849.609375; 1.51079E-4
855.468750; 1.37837E-4
861.328125; 1.69118E-4
867.187500; 1.78657E-4
873.046875; 1.94153E-4
878.906250; 2.09042E-4
884.765625; 2.47228E-4
890.625000; 2.75610E-4
896.484375; 2.85965E-4
902.343750; 3.66677E-4
908.203125; 4.13634E-4
914.062500; 5.14706E-4
919.921875; 6.01553E-4
925.781250; 7.93720E-4
931.640625; 9.73800E-4
937.500000; 1.30788E-3
943.359375; 1.72990E-3
949.218750; 2.42064E-3
955.078125; 3.50579E-3
960.937500; 5.34756E-3
966.796875; 8.80623E-3
972.656250; 1.59785E-2
978.515625; 3.39891E-2
984.375000; 9.51457E-2
990.234375; 5.23335E-1
996.093750; 4.18662E0
1001.953125; 5.23329E0
1007.812500; 1.49525E0
1013.671875; 1.49519E-1
1019.531250; 4.59840E-2
1025.390625; 2.01575E-2
1031.250000; 1.05720E-2
1037.109375; 6.27505E-3
1042.968750; 3.99871E-3
1048.828125; 2.73258E-3
1054.687500; 1.91911E-3
1060.546875; 1.43093E-3
1066.406250; 1.07614E-3
1072.265625; 8.47218E-4
1078.125000; 6.70689E-4
1083.984375; 5.27186E-4
1089.843750; 4.66028E-4
1095.703125; 3.56984E-4
1101.562500; 3.16780E-4
1107.421875; 2.99568E-4
1113.281250; 2.28219E-4
1119.140625; 2.10383E-4
1125.000000; 2.08033E-4
1130.859375; 1.70069E-4
1136.718750; 1.82834E-4
1142.578125; 1.56939E-4
1148.437500; 1.44625E-4
1154.296875; 1.47466E-4
1160.156250; 1.33796E-4
1166.015625; 1.29491E-4
1171.875000; 1.14520E-4
1177.734375; 1.21799E-4
1183.593750; 1.21516E-4
1189.453125; 1.22736E-4
1195.312500; 1.11495E-4
1201.171875; 1.13149E-4
1207.031250; 1.14918E-4
1212.890625; 1.04149E-4
1218.750000; 1.05563E-4
1224.609375; 1.12954E-4
1230.468750; 1.14419E-4
1236.328125; 1.24316E-4
1242.187500; 1.15672E-4
1248.046875; 1.16411E-4
1253.906250; 1.24096E-4
1259.765625; 1.14242E-4
1265.625000; 1.16379E-4
1271.484375; 1.21658E-4
1277.343750; 1.18368E-4
1283.203125; 1.09262E-4
1289.062500; 1.16097E-4
1294.921875; 1.14945E-4
1300.781250; 1.07127E-4
1306.640625; 1.18959E-4
1312.500000; 1.30920E-4
1318.359375; 1.25560E-4
1324.218750; 1.15075E-4
1330.078125; 1.06474E-4
1335.937500; 1.19987E-4
1341.796875; 1.21956E-4
1347.656250; 1.12793E-4
1353.515625; 1.15390E-4
1359.375000; 1.20591E-4
1365.234375; 1.13450E-4
1371.093750; 1.08810E-4
1376.953125; 1.15435E-4
1382.812500; 1.07635E-4
1388.671875; 1.10445E-4
1394.531250; 1.01182E-4
1400.390625; 1.08568E-4
1406.250000; 1.14907E-4
1412.109375; 1.21872E-4
1417.968750; 1.13488E-4
1423.828125; 1.13343E-4
1429.687500; 1.04196E-4
1435.546875; 1.06997E-4
1441.406250; 1.11528E-4
1447.265625; 1.16113E-4
1453.125000; 1.06828E-4
1458.984375; 1.18313E-4
1464.843750; 1.15894E-4
1470.703125; 1.12008E-4
1476.562500; 1.04762E-4
1482.421875; 9.58378E-5
1488.281250; 1.08553E-4
1494.140625; 1.14709E-4
1500.000000; 1.12121E-4
1505.859375; 1.19930E-4
1511.718750; 1.14010E-4
1517.578125; 1.06115E-4
1523.437500; 9.76461E-5
1529.296875; 1.06922E-4
1535.156250; 1.19651E-4
1541.015625; 1.17413E-4
1546.875000; 1.03844E-4
1552.734375; 1.07401E-4
1558.593750; 1.09502E-4
1564.453125; 1.05280E-4
1570.312500; 1.11207E-4
1576.171875; 1.19755E-4
1582.031250; 1.16784E-4
1587.890625; 1.15610E-4
1593.750000; 1.07423E-4
1599.609375; 1.09463E-4
1605.468750; 1.03243E-4
1611.328125; 1.11368E-4
1617.187500; 1.07524E-4
1623.046875; 1.09998E-4
1628.906250; 1.09352E-4
1634.765625; 1.09671E-4
1640.625000; 1.16834E-4
1646.484375; 1.18950E-4
1652.343750; 1.18312E-4
1658.203125; 1.01126E-4
1664.062500; 1.08346E-4
1669.921875; 1.18435E-4
1675.781250; 9.88523E-5
1681.640625; 9.79107E-5
1687.500000; 1.16831E-4
1693.359375; 1.07517E-4
1699.218750; 1.09797E-4
1705.078125; 1.12008E-4
1710.937500; 1.13704E-4
1716.796875; 1.15778E-4
1722.656250; 1.09938E-4
1728.515625; 1.04995E-4
1734.375000; 1.07876E-4
1740.234375; 1.15395E-4
1746.093750; 1.16690E-4
1751.953125; 9.65377E-5
1757.812500; 1.00450E-4
1763.671875; 1.07291E-4
1769.531250; 1.08348E-4
1775.390625; 1.08997E-4
1781.250000; 1.07796E-4
1787.109375; 1.00559E-4
1792.968750; 1.06666E-4
1798.828125; 1.14163E-4
1804.687500; 1.15525E-4
1810.546875; 1.12182E-4
1816.406250; 1.07946E-4
1822.265625; 1.15969E-4
1828.125000; 1.11394E-4
1833.984375; 1.13727E-4
1839.843750; 1.13276E-4
1845.703125; 1.05867E-4
1851.562500; 1.04459E-4
1857.421875; 1.03296E-4
1863.281250; 1.16570E-4
1869.140625; 1.17142E-4
1875.000000; 9.86057E-5
1880.859375; 1.07897E-4
1886.718750; 9.82682E-5
1892.578125; 1.07942E-4
1898.437500; 1.19695E-4
1904.296875; 1.09710E-4
1910.156250; 1.04906E-4
1916.015625; 1.10432E-4
1921.875000; 1.17672E-4
1927.734375; 1.20108E-4
1933.593750; 1.02366E-4
1939.453125; 1.12199E-4
1945.312500; 1.05575E-4
1951.171875; 1.02057E-4
1957.031250; 1.12211E-4
1962.890625; 1.06667E-4
1968.750000; 1.06411E-4
1974.609375; 1.14051E-4
1980.468750; 1.14021E-4
1986.328125; 1.10810E-4
1992.187500; 1.50962E-4
1998.046875; 3.57888E-4
2003.906250; 2.87412E-4
2009.765625; 1.13196E-4
2015.625000; 1.15994E-4
2021.484375; 1.03661E-4
2027.343750; 9.51651E-5
2033.203125; 9.62600E-5
2039.062500; 1.07015E-4
2044.921875; 1.14850E-4
2050.781250; 1.21415E-4
2056.640625; 1.27784E-4
2062.500000; 1.20765E-4
2068.359375; 1.08639E-4
2074.218750; 1.18720E-4
2080.078125; 1.26285E-4
2085.937500; 1.09146E-4
2091.796875; 1.07438E-4
2097.656250; 1.10047E-4
2103.515625; 1.06804E-4
2109.375000; 1.13523E-4
2115.234375; 1.11340E-4
2121.093750; 1.05036E-4
2126.953125; 1.10409E-4
2132.812500; 1.23326E-4
2138.671875; 1.23029E-4
2144.531250; 1.08714E-4
2150.390625; 1.15743E-4
2156.250000; 1.10995E-4
2162.109375; 1.03285E-4
2167.968750; 1.15510E-4
2173.828125; 1.05594E-4
2179.687500; 9.71666E-5
2185.546875; 1.05825E-4
2191.406250; 1.17728E-4
2197.265625; 1.21890E-4
2203.125000; 1.12449E-4
2208.984375; 1.14280E-4
2214.843750; 1.10368E-4
2220.703125; 1.06884E-4
2226.562500; 1.16689E-4
2232.421875; 1.15808E-4
2238.281250; 1.07013E-4
2244.140625; 1.05566E-4
2250.000000; 1.10843E-4
2255.859375; 1.05859E-4
2261.718750; 1.12066E-4
2267.578125; 1.12932E-4
2273.437500; 1.13559E-4
2279.296875; 1.05299E-4
2285.156250; 1.10482E-4
2291.015625; 1.05586E-4
2296.875000; 1.02146E-4
2302.734375; 1.12921E-4
2308.593750; 1.07218E-4
2314.453125; 1.02949E-4
2320.312500; 9.73763E-5
2326.171875; 8.94204E-5
2332.031250; 9.73725E-5
2337.890625; 1.00627E-4
2343.750000; 1.14692E-4
2349.609375; 1.05926E-4
2355.468750; 1.07994E-4
2361.328125; 1.12279E-4
2367.187500; 1.07397E-4
2373.046875; 9.32547E-5
2378.906250; 1.06380E-4
2384.765625; 1.21905E-4
2390.625000; 1.21745E-4
2396.484375; 1.26654E-4
2402.343750; 1.14060E-4
2408.203125; 1.20586E-4
2414.062500; 1.14779E-4
2419.921875; 1.07588E-4
2425.781250; 1.12845E-4
2431.640625; 1.09665E-4
2437.500000; 1.20074E-4
2443.359375; 1.12419E-4
2449.218750; 1.12799E-4
2455.078125; 1.07379E-4
2460.937500; 1.15541E-4
2466.796875; 1.13760E-4
2472.656250; 1.02064E-4
2478.515625; 1.01531E-4
2484.375000; 1.09119E-4
2490.234375; 1.03485E-4
2496.093750; 1.03336E-4
2501.953125; 1.04053E-4
2507.812500; 1.10533E-4
2513.671875; 1.02615E-4
2519.531250; 1.06829E-4
2525.390625; 9.93814E-5
2531.250000; 1.04765E-4
2537.109375; 1.03676E-4
2542.968750; 1.17342E-4
2548.828125; 1.15060E-4
2554.687500; 1.14763E-4
2560.546875; 1.18993E-4
2566.406250; 1.14394E-4
2572.265625; 1.08988E-4
2578.125000; 1.09223E-4
2583.984375; 1.02971E-4
2589.843750; 1.05873E-4
2595.703125; 1.07193E-4
2601.562500; 1.09814E-4
2607.421875; 1.07278E-4
2613.281250; 1.14607E-4
2619.140625; 1.16998E-4
2625.000000; 1.32568E-4
2630.859375; 1.21237E-4
2636.718750; 1.12118E-4
2642.578125; 1.07072E-4
2648.437500; 9.72036E-5
2654.296875; 1.09083E-4
2660.156250; 1.09258E-4
2666.015625; 9.96319E-5
2671.875000; 1.07004E-4
2677.734375; 1.05303E-4
2683.593750; 1.15961E-4
2689.453125; 1.00260E-4
2695.312500; 9.55853E-5
2701.171875; 1.11107E-4
2707.031250; 1.12219E-4
2712.890625; 1.06910E-4
2718.750000; 1.08369E-4
2724.609375; 1.12301E-4
2730.468750; 1.00170E-4
2736.328125; 1.08948E-4
2742.187500; 1.18018E-4
2748.046875; 1.14958E-4
2753.906250; 1.18077E-4
2759.765625; 1.07859E-4
2765.625000; 9.47500E-5
2771.484375; 1.04798E-4
2777.343750; 1.25249E-4
2783.203125; 1.10405E-4
2789.062500; 9.63435E-5
2794.921875; 1.08355E-4
2800.781250; 1.22128E-4
2806.640625; 1.13992E-4
2812.500000; 1.12924E-4
2818.359375; 1.17339E-4
2824.218750; 1.13626E-4
2830.078125; 1.09918E-4
2835.937500; 1.05909E-4
2841.796875; 1.15478E-4
2847.656250; 1.12285E-4
2853.515625; 1.06951E-4
2859.375000; 1.04549E-4
2865.234375; 9.94370E-5
2871.093750; 1.03484E-4
2876.953125; 1.08143E-4
2882.812500; 1.19022E-4
2888.671875; 1.19815E-4
2894.531250; 1.23021E-4
2900.390625; 1.21667E-4
2906.250000; 1.12939E-4
2912.109375; 1.11940E-4
2917.968750; 1.13089E-4
2923.828125; 1.03974E-4
2929.687500; 1.11204E-4
2935.546875; 9.99013E-5
2941.406250; 1.05113E-4
2947.265625; 1.04485E-4
2953.125000; 1.02328E-4
2958.984375; 1.03369E-4
2964.843750; 1.06260E-4
2970.703125; 1.03494E-4
2976.562500; 1.11926E-4
2982.421875; 1.20232E-4
2988.281250; 1.15348E-4
2994.140625; 1.06769E-4
3000.000000; 1.06027E-4
3005.859375; 1.10535E-4
3011.718750; 1.16147E-4
3017.578125; 1.15091E-4
3023.437500; 9.92266E-5
3029.296875; 1.01170E-4
3035.156250; 1.02043E-4
3041.015625; 1.19688E-4
3046.875000; 1.18196E-4
3052.734375; 9.96666E-5
3058.593750; 1.01895E-4
3064.453125; 1.08276E-4
3070.312500; 1.21287E-4
3076.171875; 1.24622E-4
3082.031250; 1.12682E-4
3087.890625; 1.01704E-4
3093.750000; 1.05347E-4
3099.609375; 1.02784E-4
3105.468750; 1.10526E-4
3111.328125; 1.22066E-4
3117.187500; 1.08666E-4
3123.046875; 1.11860E-4
3128.906250; 1.07570E-4
3134.765625; 1.05984E-4
3140.625000; 1.12470E-4
3146.484375; 1.17997E-4
3152.343750; 1.15787E-4
3158.203125; 1.11716E-4
3164.062500; 1.00275E-4
3169.921875; 1.01714E-4
3175.781250; 1.05906E-4
3181.640625; 1.09041E-4
3187.500000; 1.01386E-4
3193.359375; 1.04083E-4
3199.218750; 1.00084E-4
3205.078125; 1.08364E-4
3210.937500; 1.04012E-4
3216.796875; 1.03924E-4
3222.656250; 1.13022E-4
3228.515625; 1.08494E-4
3234.375000; 9.59866E-5
3240.234375; 9.65625E-5
3246.093750; 1.08129E-4
3251.953125; 1.11582E-4
3257.812500; 1.19060E-4
3263.671875; 1.06686E-4
3269.531250; 1.13240E-4
3275.390625; 1.13664E-4
3281.250000; 1.10789E-4
3287.109375; 1.24546E-4
3292.968750; 1.31392E-4
3298.828125; 1.16136E-4
3304.687500; 1.04999E-4
3310.546875; 1.02450E-4
3316.406250; 1.09269E-4
3322.265625; 1.20471E-4
3328.125000; 1.19564E-4
3333.984375; 1.17394E-4
3339.843750; 1.15728E-4
3345.703125; 1.21134E-4
3351.562500; 1.08503E-4
3357.421875; 1.02360E-4
3363.281250; 1.06322E-4
3369.140625; 1.13364E-4
3375.000000; 1.03021E-4
3380.859375; 9.01493E-5
3386.718750; 9.12106E-5
3392.578125; 9.78785E-5
3398.437500; 1.11236E-4
3404.296875; 1.00855E-4
3410.156250; 9.82512E-5
3416.015625; 1.06621E-4
3421.875000; 1.16107E-4
3427.734375; 1.17373E-4
3433.593750; 1.23614E-4
3439.453125; 1.13630E-4
3445.312500; 1.21011E-4
3451.171875; 1.19593E-4
3457.031250; 1.07138E-4
3462.890625; 1.04712E-4
3468.750000; 1.02049E-4
3474.609375; 1.00743E-4
3480.468750; 1.05626E-4
3486.328125; 1.00620E-4
3492.187500; 9.31990E-5
3498.046875; 1.01603E-4
3503.906250; 1.05075E-4
3509.765625; 1.04564E-4
3515.625000; 1.13295E-4
3521.484375; 1.19852E-4
3527.343750; 1.20698E-4
3533.203125; 1.19023E-4
3539.062500; 1.06197E-4
3544.921875; 1.08317E-4
3550.781250; 1.06706E-4
3556.640625; 1.08518E-4
3562.500000; 1.06333E-4
3568.359375; 9.32596E-5
3574.218750; 1.06317E-4
3580.078125; 1.15922E-4
3585.937500; 1.13018E-4
3591.796875; 1.21209E-4
3597.656250; 1.31081E-4
3603.515625; 1.07089E-4
3609.375000; 1.02844E-4
3615.234375; 1.10383E-4
3621.093750; 1.05317E-4
3626.953125; 1.05289E-4
3632.812500; 1.08459E-4
3638.671875; 1.10671E-4
3644.531250; 1.16608E-4
3650.390625; 1.07927E-4
3656.250000; 1.03372E-4
3662.109375; 1.12573E-4
3667.968750; 1.18143E-4
3673.828125; 1.21446E-4
3679.687500; 1.18469E-4
3685.546875; 1.11518E-4
3691.406250; 1.13841E-4
3697.265625; 1.07711E-4
3703.125000; 1.00844E-4
3708.984375; 9.90925E-5
3714.843750; 1.09650E-4
3720.703125; 1.11087E-4
3726.562500; 1.04804E-4
3732.421875; 1.09571E-4
3738.281250; 1.05659E-4
3744.140625; 1.02368E-4
3750.000000; 9.45264E-5
3755.859375; 1.06404E-4
3761.718750; 1.17990E-4
3767.578125; 1.09538E-4
3773.437500; 1.09556E-4
3779.296875; 1.09200E-4
3785.156250; 1.08538E-4
3791.015625; 1.03284E-4
3796.875000; 1.05554E-4
3802.734375; 1.04871E-4
3808.593750; 9.74173E-5
3814.453125; 1.03095E-4
3820.312500; 1.09946E-4
3826.171875; 1.12689E-4
3832.031250; 1.02833E-4
3837.890625; 9.95720E-5
3843.750000; 8.93733E-5
3849.609375; 1.04321E-4
3855.468750; 1.06877E-4
3861.328125; 1.06343E-4
3867.187500; 9.77714E-5
3873.046875; 9.61006E-5
3878.906250; 1.01242E-4
3884.765625; 1.13443E-4
3890.625000; 1.10226E-4
3896.484375; 9.15613E-5
3902.343750; 9.38450E-5
3908.203125; 1.12576E-4
3914.062500; 1.13887E-4
3919.921875; 1.12749E-4
3925.781250; 1.07584E-4
3931.640625; 1.08304E-4
3937.500000; 1.19681E-4
3943.359375; 1.22189E-4
3949.218750; 1.14929E-4
3955.078125; 1.06666E-4
3960.937500; 1.11927E-4
3966.796875; 1.10573E-4
3972.656250; 1.10475E-4
3978.515625; 1.13868E-4
3984.375000; 1.14073E-4
3990.234375; 1.02916E-4
3996.093750; 1.04592E-4
4001.953125; 1.18461E-4
4007.812500; 1.10179E-4
4013.671875; 1.10189E-4
4019.531250; 1.07260E-4
4025.390625; 1.05103E-4
4031.250000; 1.12773E-4
4037.109375; 1.13027E-4
4042.968750; 1.09446E-4
4048.828125; 1.07777E-4
4054.687500; 1.14521E-4
4060.546875; 1.12085E-4
4066.406250; 1.12551E-4
4072.265625; 1.22707E-4
4078.125000; 1.12898E-4
4083.984375; 1.12999E-4
4089.843750; 1.07402E-4
4095.703125; 9.75775E-5
4101.562500; 1.14390E-4
4107.421875; 1.15884E-4
4113.281250; 1.23581E-4
4119.140625; 1.21893E-4
4125.000000; 1.16703E-4
4130.859375; 1.08566E-4
4136.718750; 1.03111E-4
4142.578125; 1.05697E-4
4148.437500; 1.14933E-4
4154.296875; 1.20673E-4
4160.156250; 1.18167E-4
4166.015625; 1.21822E-4
4171.875000; 1.17276E-4
4177.734375; 1.04562E-4
4183.593750; 1.02940E-4
4189.453125; 1.05929E-4
4195.312500; 1.13608E-4
4201.171875; 1.08121E-4
4207.031250; 1.10911E-4
4212.890625; 1.08857E-4
4218.750000; 1.19552E-4
4224.609375; 1.23937E-4
4230.468750; 1.10466E-4
4236.328125; 1.13366E-4
4242.187500; 1.20236E-4
4248.046875; 1.08869E-4
4253.906250; 1.10005E-4
4259.765625; 1.12706E-4
4265.625000; 9.59589E-5
4271.484375; 1.02003E-4
4277.343750; 1.01617E-4
4283.203125; 1.13853E-4
4289.062500; 1.12113E-4
4294.921875; 1.06957E-4
4300.781250; 1.12397E-4
4306.640625; 1.12653E-4
4312.500000; 1.15453E-4
4318.359375; 1.01667E-4
4324.218750; 1.10195E-4
4330.078125; 1.15548E-4
4335.937500; 1.15694E-4
4341.796875; 1.15949E-4
4347.656250; 1.26882E-4
4353.515625; 1.13612E-4
4359.375000; 1.01681E-4
4365.234375; 1.09377E-4
4371.093750; 1.04901E-4
4376.953125; 1.13907E-4
4382.812500; 1.16178E-4
4388.671875; 1.10318E-4
4394.531250; 1.07261E-4
4400.390625; 1.23679E-4
4406.250000; 1.20069E-4
4412.109375; 1.10246E-4
4417.968750; 1.05900E-4
4423.828125; 1.07964E-4
4429.687500; 1.05888E-4
4435.546875; 1.07847E-4
4441.406250; 1.08445E-4
4447.265625; 1.26953E-4
4453.125000; 1.22396E-4
4458.984375; 1.05561E-4
4464.843750; 1.00063E-4
4470.703125; 9.99436E-5
4476.562500; 1.03211E-4
4482.421875; 1.10483E-4
4488.281250; 1.21305E-4
4494.140625; 1.23860E-4
4500.000000; 1.25856E-4
4505.859375; 1.17294E-4
4511.718750; 1.10454E-4
4517.578125; 1.13276E-4
4523.437500; 1.09548E-4
4529.296875; 1.14958E-4
4535.156250; 1.11578E-4
4541.015625; 1.13456E-4
4546.875000; 1.06788E-4
4552.734375; 9.15095E-5
4558.593750; 9.29770E-5
4564.453125; 1.05520E-4
4570.312500; 1.13606E-4
4576.171875; 1.13482E-4
4582.031250; 1.16991E-4
4587.890625; 1.00566E-4
4593.750000; 1.09163E-4
4599.609375; 1.09267E-4
4605.468750; 1.05696E-4
4611.328125; 1.06608E-4
4617.187500; 1.17591E-4
4623.046875; 1.23625E-4
4628.906250; 1.12935E-4
4634.765625; 1.05703E-4
4640.625000; 1.02692E-4
4646.484375; 1.07203E-4
4652.343750; 1.03277E-4
4658.203125; 1.03491E-4
4664.062500; 1.05687E-4
4669.921875; 1.17411E-4
4675.781250; 1.07453E-4
4681.640625; 1.09318E-4
4687.500000; 1.04423E-4
4693.359375; 1.04951E-4
4699.218750; 1.00297E-4
4705.078125; 9.78238E-5
4710.937500; 1.15838E-4
4716.796875; 1.16481E-4
4722.656250; 1.07138E-4
4728.515625; 1.02933E-4
4734.375000; 1.02083E-4
4740.234375; 1.08070E-4
4746.093750; 1.08019E-4
4751.953125; 1.08617E-4
4757.812500; 1.13659E-4
4763.671875; 1.10022E-4
4769.531250; 1.04580E-4
4775.390625; 1.06036E-4
4781.250000; 1.08586E-4
4787.109375; 1.23395E-4
4792.968750; 1.23154E-4
4798.828125; 1.18271E-4
4804.687500; 1.02637E-4
4810.546875; 1.11071E-4
4816.406250; 1.18074E-4
4822.265625; 1.06812E-4
4828.125000; 9.90852E-5
4833.984375; 1.00655E-4
4839.843750; 9.75250E-5
4845.703125; 1.02847E-4
4851.562500; 1.17752E-4
4857.421875; 1.21093E-4
4863.281250; 1.17532E-4
4869.140625; 1.07028E-4
4875.000000; 9.96410E-5
4880.859375; 1.04641E-4
4886.718750; 1.12347E-4
4892.578125; 1.08533E-4
4898.437500; 1.13246E-4
4904.296875; 1.09100E-4
4910.156250; 1.19796E-4
4916.015625; 1.04403E-4
4921.875000; 9.70251E-5
4927.734375; 1.09708E-4
4933.593750; 1.16007E-4
4939.453125; 1.10372E-4
4945.312500; 1.02293E-4
4951.171875; 1.05898E-4
4957.031250; 9.93961E-5
4962.890625; 1.13479E-4
4968.750000; 1.16060E-4
4974.609375; 1.08877E-4
4980.468750; 1.07473E-4
4986.328125; 1.09224E-4
4992.187500; 1.04920E-4
4998.046875; 1.10264E-4
5003.906250; 1.11600E-4
5009.765625; 1.09712E-4
5015.625000; 9.62275E-5
5021.484375; 1.02441E-4
5027.343750; 1.03708E-4
5033.203125; 9.30545E-5
5039.062500; 9.66287E-5
5044.921875; 1.07309E-4
5050.781250; 1.20610E-4
5056.640625; 1.11806E-4
5062.500000; 1.09890E-4
5068.359375; 1.13084E-4
5074.218750; 1.05431E-4
5080.078125; 1.07285E-4
5085.937500; 1.07449E-4
5091.796875; 1.03178E-4
5097.656250; 9.95439E-5
5103.515625; 1.07633E-4
5109.375000; 1.08736E-4
5115.234375; 1.03292E-4
5121.093750; 9.71352E-5
5126.953125; 1.06126E-4
5132.812500; 1.02898E-4
5138.671875; 1.10165E-4
5144.531250; 1.17930E-4
5150.390625; 1.11196E-4
5156.250000; 1.09530E-4
5162.109375; 1.06300E-4
5167.968750; 1.14567E-4
5173.828125; 1.16954E-4
5179.687500; 1.29298E-4
5185.546875; 1.22249E-4
5191.406250; 1.09691E-4
5197.265625; 1.10404E-4
5203.125000; 1.09302E-4
5208.984375; 1.09143E-4
5214.843750; 1.17316E-4
5220.703125; 1.06735E-4
5226.562500; 1.08758E-4
5232.421875; 1.08611E-4
5238.281250; 1.11030E-4
5244.140625; 1.11017E-4
5250.000000; 1.15017E-4
5255.859375; 1.07441E-4
5261.718750; 1.13512E-4
5267.578125; 1.09325E-4
5273.437500; 1.12323E-4
5279.296875; 1.13176E-4
5285.156250; 1.04764E-4
5291.015625; 1.02275E-4
5296.875000; 1.24026E-4
5302.734375; 1.21405E-4
5308.593750; 1.12976E-4
5314.453125; 1.09587E-4
5320.312500; 1.02263E-4
5326.171875; 9.96768E-5
5332.031250; 1.01456E-4
5337.890625; 1.05210E-4
5343.750000; 1.14752E-4
5349.609375; 1.17545E-4
5355.468750; 1.12287E-4
5361.328125; 1.13376E-4
5367.187500; 1.07740E-4
5373.046875; 1.05535E-4
5378.906250; 1.06406E-4
5384.765625; 1.12749E-4
5390.625000; 1.28742E-4
5396.484375; 1.18983E-4
5402.343750; 1.04338E-4
5408.203125; 1.09339E-4
5414.062500; 1.14125E-4
5419.921875; 1.19360E-4
5425.781250; 1.11993E-4
5431.640625; 1.01291E-4
5437.500000; 1.04724E-4
5443.359375; 1.12258E-4
5449.218750; 1.08517E-4
5455.078125; 1.07382E-4
5460.937500; 1.02510E-4
5466.796875; 9.81187E-5
5472.656250; 1.12087E-4
5478.515625; 1.08202E-4
5484.375000; 1.11889E-4
5490.234375; 1.16208E-4
5496.093750; 1.12461E-4
5501.953125; 1.05386E-4
5507.812500; 1.06976E-4
5513.671875; 1.19960E-4
5519.531250; 1.17257E-4
5525.390625; 1.12899E-4
5531.250000; 1.00428E-4
5537.109375; 1.08273E-4
5542.968750; 1.11145E-4
5548.828125; 9.83326E-5
5554.687500; 1.01110E-4
5560.546875; 9.84785E-5
5566.406250; 1.00862E-4
5572.265625; 1.15113E-4
5578.125000; 1.00697E-4
5583.984375; 1.02863E-4
5589.843750; 1.17111E-4
5595.703125; 1.05300E-4
5601.562500; 1.01032E-4
5607.421875; 1.01746E-4
5613.281250; 1.09976E-4
5619.140625; 1.09255E-4
5625.000000; 1.10728E-4
5630.859375; 1.10171E-4
5636.718750; 1.12367E-4
5642.578125; 9.84998E-5
5648.437500; 1.01447E-4
5654.296875; 1.05075E-4
5660.156250; 1.09153E-4
5666.015625; 1.16102E-4
5671.875000; 1.13194E-4
5677.734375; 9.65844E-5
5683.593750; 9.37980E-5
5689.453125; 9.92402E-5
5695.312500; 1.06444E-4
5701.171875; 1.03531E-4
5707.031250; 1.04343E-4
5712.890625; 1.22712E-4
5718.750000; 1.16350E-4
5724.609375; 1.01602E-4
5730.468750; 9.85528E-5
5736.328125; 1.09851E-4
5742.187500; 1.11699E-4
5748.046875; 1.10130E-4
5753.906250; 9.96820E-5
5759.765625; 1.11229E-4
5765.625000; 1.02695E-4
5771.484375; 1.10821E-4
5777.343750; 1.15091E-4
5783.203125; 1.17144E-4
5789.062500; 1.06090E-4
5794.921875; 1.15055E-4
5800.781250; 1.23216E-4
5806.640625; 1.14419E-4
5812.500000; 1.11491E-4
5818.359375; 1.08369E-4
5824.218750; 1.11058E-4
5830.078125; 1.04639E-4
5835.937500; 1.00259E-4
5841.796875; 1.13220E-4
5847.656250; 1.16553E-4
5853.515625; 1.24838E-4
5859.375000; 1.10507E-4
5865.234375; 1.10016E-4
5871.093750; 1.15722E-4
5876.953125; 1.06842E-4
5882.812500; 1.01989E-4
5888.671875; 1.19209E-4
5894.531250; 1.19547E-4
5900.390625; 1.02020E-4
5906.250000; 1.08586E-4
5912.109375; 1.08578E-4
5917.968750; 1.00707E-4
5923.828125; 1.04945E-4
5929.687500; 1.04693E-4
5935.546875; 9.96106E-5
5941.406250; 1.01698E-4
5947.265625; 1.10282E-4
5953.125000; 1.18722E-4
5958.984375; 1.05610E-4
5964.843750; 1.01919E-4
5970.703125; 1.08852E-4
5976.562500; 1.08520E-4
5982.421875; 1.10100E-4
5988.281250; 1.07948E-4
5994.140625; 1.04046E-4
6000.000000; 1.08277E-4
6005.859375; 1.08620E-4
6011.718750; 1.07811E-4
6017.578125; 1.16072E-4
6023.437500; 1.21824E-4
6029.296875; 1.01496E-4
6035.156250; 1.04145E-4
6041.015625; 1.03115E-4
6046.875000; 9.72993E-5
6052.734375; 9.90181E-5
6058.593750; 1.10751E-4
6064.453125; 1.19201E-4
6070.312500; 1.09813E-4
6076.171875; 1.02047E-4
6082.031250; 9.91969E-5
6087.890625; 9.84110E-5
6093.750000; 9.89851E-5
6099.609375; 1.09387E-4
6105.468750; 9.90395E-5
6111.328125; 1.07342E-4
6117.187500; 1.11090E-4
6123.046875; 1.19179E-4
6128.906250; 1.20458E-4
6134.765625; 1.11301E-4
6140.625000; 1.10029E-4
6146.484375; 9.99047E-5
6152.343750; 1.01940E-4
6158.203125; 9.81185E-5
6164.062500; 1.10739E-4
6169.921875; 1.15477E-4
6175.781250; 9.49063E-5
6181.640625; 1.06835E-4
6187.500000; 1.12661E-4
6193.359375; 1.05624E-4
6199.218750; 9.91104E-5
6205.078125; 9.74382E-5
6210.937500; 1.05368E-4
6216.796875; 1.09002E-4
6222.656250; 1.14705E-4
6228.515625; 1.15750E-4
6234.375000; 1.09235E-4
6240.234375; 9.99312E-5
6246.093750; 1.05592E-4
6251.953125; 1.05732E-4
6257.812500; 1.03597E-4
6263.671875; 1.08590E-4
6269.531250; 1.08038E-4
6275.390625; 1.02661E-4
6281.250000; 1.03122E-4
6287.109375; 1.11577E-4
6292.968750; 1.11195E-4
6298.828125; 1.12354E-4
6304.687500; 1.15189E-4
6310.546875; 1.13338E-4
6316.406250; 1.06410E-4
6322.265625; 1.00256E-4
6328.125000; 1.08386E-4
6333.984375; 1.13776E-4
6339.843750; 1.19821E-4
6345.703125; 1.09447E-4
6351.562500; 9.97860E-5
6357.421875; 1.01084E-4
6363.281250; 1.12522E-4
6369.140625; 1.03263E-4
6375.000000; 1.04932E-4
6380.859375; 1.18140E-4
6386.718750; 1.04803E-4
6392.578125; 1.06084E-4
6398.437500; 1.07546E-4
6404.296875; 1.08598E-4
6410.156250; 1.12023E-4
6416.015625; 9.78970E-5
6421.875000; 1.06853E-4
6427.734375; 1.16914E-4
6433.593750; 1.05036E-4
6439.453125; 1.10300E-4
6445.312500; 1.12966E-4
6451.171875; 1.07490E-4
6457.031250; 1.11622E-4
6462.890625; 1.15414E-4
6468.750000; 1.07100E-4
6474.609375; 1.01509E-4
6480.468750; 1.13977E-4
6486.328125; 1.08148E-4
6492.187500; 1.20299E-4
6498.046875; 1.09618E-4
6503.906250; 1.09917E-4
6509.765625; 1.12581E-4
6515.625000; 1.09157E-4
6521.484375; 1.11131E-4
6527.343750; 1.04460E-4
6533.203125; 1.09686E-4
6539.062500; 1.09234E-4
6544.921875; 1.00156E-4
6550.781250; 1.08345E-4
6556.640625; 1.22175E-4
6562.500000; 1.13231E-4
6568.359375; 1.11694E-4
6574.218750; 1.05094E-4
6580.078125; 1.15380E-4
6585.937500; 1.08068E-4
6591.796875; 1.07784E-4
6597.656250; 1.17133E-4
6603.515625; 1.05127E-4
6609.375000; 1.01723E-4
6615.234375; 1.04127E-4
6621.093750; 1.10799E-4
6626.953125; 1.14722E-4
6632.812500; 1.09267E-4
6638.671875; 1.07032E-4
6644.531250; 1.07529E-4
6650.390625; 1.14845E-4
6656.250000; 1.08690E-4
6662.109375; 9.13573E-5
6667.968750; 9.63015E-5
6673.828125; 9.83317E-5
6679.687500; 1.03105E-4
6685.546875; 1.04086E-4
6691.406250; 9.70441E-5
6697.265625; 1.10657E-4
6703.125000; 1.05703E-4
6708.984375; 1.07586E-4
6714.843750; 1.09641E-4
6720.703125; 1.01531E-4
6726.562500; 9.68998E-5
6732.421875; 9.86023E-5
6738.281250; 1.11241E-4
6744.140625; 1.23851E-4
6750.000000; 1.16040E-4
6755.859375; 1.10655E-4
6761.718750; 1.11182E-4
6767.578125; 1.13905E-4
6773.437500; 1.11324E-4
6779.296875; 1.11072E-4
6785.156250; 1.07867E-4
6791.015625; 9.98794E-5
6796.875000; 1.05872E-4
6802.734375; 1.13480E-4
6808.593750; 1.01819E-4
6814.453125; 1.11615E-4
6820.312500; 1.13157E-4
6826.171875; 1.19181E-4
6832.031250; 1.05110E-4
6837.890625; 8.89282E-5
6843.750000; 1.05865E-4
6849.609375; 1.11947E-4
6855.468750; 1.14048E-4
6861.328125; 1.04843E-4
6867.187500; 1.06510E-4
6873.046875; 1.03677E-4
6878.906250; 1.11689E-4
6884.765625; 1.10868E-4
6890.625000; 9.86812E-5
6896.484375; 1.06877E-4
6902.343750; 1.11640E-4
6908.203125; 1.01980E-4
6914.062500; 9.47667E-5
6919.921875; 9.75633E-5
6925.781250; 1.07232E-4
6931.640625; 1.02094E-4
6937.500000; 9.48356E-5
6943.359375; 1.08884E-4
6949.218750; 1.14837E-4
6955.078125; 1.10941E-4
6960.937500; 1.10254E-4
6966.796875; 1.10209E-4
6972.656250; 9.93662E-5
6978.515625; 1.17038E-4
6984.375000; 1.24477E-4
6990.234375; 1.12200E-4
6996.093750; 1.01203E-4
7001.953125; 1.12404E-4
7007.812500; 1.11552E-4
7013.671875; 1.08810E-4
7019.531250; 1.09657E-4
7025.390625; 1.06205E-4
7031.250000; 1.01988E-4
7037.109375; 1.06107E-4
7042.968750; 1.12516E-4
7048.828125; 1.04712E-4
7054.687500; 1.10623E-4
7060.546875; 1.17235E-4
7066.406250; 1.04845E-4
7072.265625; 1.10957E-4
7078.125000; 9.98611E-5
7083.984375; 9.93068E-5
7089.843750; 1.04495E-4
7095.703125; 9.82740E-5
7101.562500; 9.28913E-5
7107.421875; 1.03868E-4
7113.281250; 1.16902E-4
7119.140625; 1.11609E-4
7125.000000; 1.08402E-4
7130.859375; 1.04407E-4
7136.718750; 1.02841E-4
7142.578125; 1.05269E-4
7148.437500; 1.09112E-4
7154.296875; 1.02640E-4
7160.156250; 1.07387E-4
7166.015625; 1.18356E-4
7171.875000; 1.16795E-4
7177.734375; 1.03077E-4
7183.593750; 1.10372E-4
7189.453125; 1.09559E-4
7195.312500; 9.93237E-5
7201.171875; 9.99294E-5
7207.031250; 1.11486E-4
7212.890625; 1.02550E-4
7218.750000; 9.92103E-5
7224.609375; 1.04829E-4
7230.468750; 1.07461E-4
7236.328125; 1.04152E-4
7242.187500; 1.08138E-4
7248.046875; 1.20070E-4
7253.906250; 1.15601E-4
7259.765625; 9.66874E-5
7265.625000; 9.87878E-5
7271.484375; 1.07802E-4
7277.343750; 1.03518E-4
7283.203125; 1.11100E-4
7289.062500; 1.07462E-4
7294.921875; 1.03844E-4
7300.781250; 9.51916E-5
7306.640625; 1.15487E-4
7312.500000; 1.21231E-4
7318.359375; 1.07008E-4
7324.218750; 1.07278E-4
7330.078125; 1.16509E-4
7335.937500; 1.15475E-4
7341.796875; 1.13250E-4
7347.656250; 9.47344E-5
7353.515625; 1.08346E-4
7359.375000; 1.10961E-4
7365.234375; 1.07691E-4
7371.093750; 1.12222E-4
7376.953125; 1.10985E-4
7382.812500; 1.04599E-4
7388.671875; 1.11478E-4
7394.531250; 1.14947E-4
7400.390625; 1.00200E-4
7406.250000; 9.52447E-5
7412.109375; 9.56977E-5
7417.968750; 9.99729E-5
7423.828125; 1.00130E-4
7429.687500; 1.05951E-4
7435.546875; 1.12686E-4
7441.406250; 9.79643E-5
7447.265625; 1.04542E-4
7453.125000; 1.04315E-4
7458.984375; 9.72584E-5
7464.843750; 1.01307E-4
7470.703125; 1.10580E-4
7476.562500; 1.10397E-4
7482.421875; 1.07763E-4
7488.281250; 1.11491E-4
7494.140625; 1.12313E-4
7500.000000; 1.13425E-4
7505.859375; 9.53602E-5
7511.718750; 9.95370E-5
7517.578125; 1.15416E-4
7523.437500; 1.07181E-4
7529.296875; 9.64169E-5
7535.156250; 1.10884E-4
7541.015625; 1.22384E-4
7546.875000; 1.14341E-4
7552.734375; 1.01859E-4
7558.593750; 9.86440E-5
7564.453125; 1.13805E-4
7570.312500; 1.15806E-4
7576.171875; 1.13185E-4
7582.031250; 9.78272E-5
7587.890625; 1.04171E-4
7593.750000; 1.10922E-4
7599.609375; 1.16321E-4
7605.468750; 1.13964E-4
7611.328125; 1.11347E-4
7617.187500; 1.00535E-4
7623.046875; 9.67990E-5
7628.906250; 1.22359E-4
7634.765625; 1.24098E-4
7640.625000; 1.13506E-4
7646.484375; 1.11440E-4
7652.343750; 1.18744E-4
7658.203125; 1.05592E-4
7664.062500; 1.05006E-4
7669.921875; 1.17462E-4
7675.781250; 1.09055E-4
7681.640625; 1.07407E-4
7687.500000; 1.16577E-4
7693.359375; 1.11017E-4
7699.218750; 1.08298E-4
7705.078125; 1.14649E-4
7710.937500; 1.03002E-4
7716.796875; 1.02320E-4
7722.656250; 1.08188E-4
7728.515625; 1.14288E-4
7734.375000; 1.07046E-4
7740.234375; 1.03256E-4
7746.093750; 1.00367E-4
7751.953125; 1.03343E-4
7757.812500; 1.04526E-4
7763.671875; 1.17652E-4
7769.531250; 1.17502E-4
7775.390625; 1.05619E-4
7781.250000; 9.78751E-5
7787.109375; 1.10860E-4
7792.968750; 1.07665E-4
7798.828125; 9.17766E-5
7804.687500; 9.84329E-5
7810.546875; 1.19043E-4
7816.406250; 1.17954E-4
7822.265625; 1.06467E-4
7828.125000; 1.06096E-4
7833.984375; 1.13964E-4
7839.843750; 1.07722E-4
7845.703125; 1.10742E-4
7851.562500; 1.08939E-4
7857.421875; 1.08655E-4
7863.281250; 1.05740E-4
7869.140625; 1.08212E-4
7875.000000; 1.12590E-4
7880.859375; 1.10005E-4
7886.718750; 9.73906E-5
7892.578125; 1.00348E-4
7898.437500; 1.05442E-4
7904.296875; 1.06404E-4
7910.156250; 1.01589E-4
7916.015625; 1.01514E-4
7921.875000; 1.12399E-4
7927.734375; 1.01897E-4
7933.593750; 9.27787E-5
7939.453125; 1.09225E-4
7945.312500; 1.17214E-4
7951.171875; 1.09896E-4
7957.031250; 1.08991E-4
7962.890625; 9.42128E-5
7968.750000; 1.04188E-4
7974.609375; 1.25773E-4
7980.468750; 1.24616E-4
7986.328125; 1.10028E-4
7992.187500; 9.71741E-5
7998.046875; 1.04929E-4
8003.906250; 9.45379E-5
8009.765625; 9.29117E-5
8015.625000; 9.86331E-5
8021.484375; 9.50069E-5
8027.343750; 9.86441E-5
8033.203125; 1.12263E-4
8039.062500; 1.20149E-4
8044.921875; 1.23517E-4
8050.781250; 1.12626E-4
8056.640625; 9.89896E-5
8062.500000; 1.06052E-4
8068.359375; 1.02141E-4
8074.218750; 9.05480E-5
8080.078125; 9.53110E-5
8085.937500; 1.03154E-4
8091.796875; 1.07953E-4
8097.656250; 1.23486E-4
8103.515625; 1.14942E-4
8109.375000; 1.02360E-4
8115.234375; 1.15463E-4
8121.093750; 1.10227E-4
8126.953125; 1.14160E-4
8132.812500; 1.06582E-4
8138.671875; 1.11038E-4
8144.531250; 1.15655E-4
8150.390625; 1.01092E-4
8156.250000; 8.85670E-5
8162.109375; 9.23651E-5
8167.968750; 1.03529E-4
8173.828125; 1.17371E-4
8179.687500; 1.11407E-4
8185.546875; 1.25480E-4
8191.406250; 1.14422E-4
8197.265625; 1.01357E-4
8203.125000; 1.04910E-4
8208.984375; 1.13788E-4
8214.843750; 1.05579E-4
8220.703125; 1.04176E-4
8226.562500; 1.19056E-4
8232.421875; 1.15689E-4
8238.281250; 1.14040E-4
8244.140625; 1.14575E-4
8250.000000; 1.03717E-4
8255.859375; 1.15331E-4
8261.718750; 1.07565E-4
8267.578125; 1.04021E-4
8273.437500; 1.06930E-4
8279.296875; 1.11101E-4
8285.156250; 1.08648E-4
8291.015625; 1.02227E-4
8296.875000; 1.06038E-4
8302.734375; 1.04174E-4
8308.593750; 9.87010E-5
8314.453125; 1.03711E-4
8320.312500; 1.12912E-4
8326.171875; 1.07042E-4
8332.031250; 1.17502E-4
8337.890625; 1.23708E-4
8343.750000; 1.09852E-4
8349.609375; 1.05625E-4
8355.468750; 1.02311E-4
8361.328125; 1.09028E-4
8367.187500; 1.03481E-4
8373.046875; 1.04214E-4
8378.906250; 1.17493E-4
8384.765625; 1.02562E-4
8390.625000; 1.12419E-4
8396.484375; 1.06922E-4
8402.343750; 9.50211E-5
8408.203125; 1.07426E-4
8414.062500; 1.06362E-4
8419.921875; 1.08049E-4
8425.781250; 1.18250E-4
8431.640625; 1.10502E-4
8437.500000; 1.20571E-4
8443.359375; 1.23289E-4
8449.218750; 1.15343E-4
8455.078125; 1.11713E-4
8460.937500; 1.13280E-4
8466.796875; 1.06512E-4
8472.656250; 1.03994E-4
8478.515625; 9.91244E-5
8484.375000; 1.05543E-4
8490.234375; 1.01277E-4
8496.093750; 1.15380E-4
8501.953125; 1.06416E-4
8507.812500; 1.01868E-4
8513.671875; 1.01115E-4
8519.531250; 1.06519E-4
8525.390625; 1.11091E-4
8531.250000; 1.14326E-4
8537.109375; 1.14907E-4
8542.968750; 1.07330E-4
8548.828125; 9.98575E-5
8554.687500; 1.02111E-4
8560.546875; 1.12844E-4
8566.406250; 1.09461E-4
8572.265625; 1.07177E-4
8578.125000; 1.03882E-4
8583.984375; 1.00346E-4
8589.843750; 1.05035E-4
8595.703125; 9.66521E-5
8601.562500; 9.09368E-5
8607.421875; 9.62093E-5
8613.281250; 1.05517E-4
8619.140625; 9.71482E-5
8625.000000; 1.00532E-4
8630.859375; 1.15223E-4
8636.718750; 1.08061E-4
8642.578125; 1.06642E-4
8648.437500; 1.11209E-4
8654.296875; 1.00789E-4
8660.156250; 1.01893E-4
8666.015625; 1.02747E-4
8671.875000; 1.07272E-4
8677.734375; 1.03887E-4
8683.593750; 1.08435E-4
8689.453125; 1.08050E-4
8695.312500; 1.03281E-4
8701.171875; 1.04798E-4
8707.031250; 1.19965E-4
8712.890625; 1.21966E-4
8718.750000; 1.09506E-4
8724.609375; 1.16940E-4
8730.468750; 1.14432E-4
8736.328125; 1.11426E-4
8742.187500; 1.07995E-4
8748.046875; 1.11152E-4
8753.906250; 1.07353E-4
8759.765625; 1.22160E-4
8765.625000; 1.19232E-4
8771.484375; 1.20870E-4
8777.343750; 1.17394E-4
8783.203125; 1.10103E-4
8789.062500; 1.13719E-4
8794.921875; 1.00594E-4
8800.781250; 1.02601E-4
8806.640625; 1.03936E-4
8812.500000; 1.08763E-4
8818.359375; 1.15720E-4
8824.218750; 1.13988E-4
8830.078125; 1.02634E-4
8835.937500; 1.05554E-4
8841.796875; 1.10702E-4
8847.656250; 1.06997E-4
8853.515625; 9.81992E-5
8859.375000; 9.41135E-5
8865.234375; 1.00466E-4
8871.093750; 1.12036E-4
8876.953125; 1.01004E-4
8882.812500; 1.02926E-4
8888.671875; 1.19808E-4
8894.531250; 1.04296E-4
8900.390625; 1.05313E-4
8906.250000; 1.00536E-4
8912.109375; 1.03397E-4
8917.968750; 1.16351E-4
8923.828125; 1.01543E-4
8929.687500; 1.03000E-4
8935.546875; 1.02757E-4
8941.406250; 1.01582E-4
8947.265625; 1.05813E-4
8953.125000; 1.09611E-4
8958.984375; 1.13438E-4
8964.843750; 1.11202E-4
8970.703125; 1.07625E-4
8976.562500; 1.10993E-4
8982.421875; 1.10572E-4
8988.281250; 1.11344E-4
8994.140625; 1.12594E-4
9000.000000; 1.11961E-4
9005.859375; 1.10296E-4
9011.718750; 1.03999E-4
9017.578125; 1.04797E-4
9023.437500; 1.04783E-4
9029.296875; 1.11426E-4
9035.156250; 1.11642E-4
9041.015625; 1.14438E-4
9046.875000; 1.15778E-4
9052.734375; 1.13258E-4
9058.593750; 1.21016E-4
9064.453125; 1.15941E-4
9070.312500; 9.58978E-5
9076.171875; 9.55839E-5
9082.031250; 1.02221E-4
9087.890625; 1.13603E-4
9093.750000; 1.15576E-4
9099.609375; 1.05584E-4
9105.468750; 1.16644E-4
9111.328125; 1.27033E-4
9117.187500; 1.20752E-4
9123.046875; 1.12597E-4
9128.906250; 1.11135E-4
9134.765625; 1.19906E-4
9140.625000; 1.11475E-4
9146.484375; 9.99972E-5
9152.343750; 1.04722E-4
9158.203125; 1.11905E-4
9164.062500; 1.21140E-4
9169.921875; 1.13335E-4
9175.781250; 1.06080E-4
9181.640625; 1.12249E-4
9187.500000; 1.11531E-4
9193.359375; 1.05164E-4
9199.218750; 1.21759E-4
9205.078125; 1.19990E-4
9210.937500; 1.18706E-4
9216.796875; 1.00156E-4
9222.656250; 1.06226E-4
9228.515625; 1.20395E-4
9234.375000; 1.16964E-4
9240.234375; 1.16103E-4
9246.093750; 1.10358E-4
9251.953125; 1.04450E-4
9257.812500; 9.87444E-5
9263.671875; 1.04244E-4
9269.531250; 1.03269E-4
9275.390625; 9.77196E-5
9281.250000; 9.57457E-5
9287.109375; 1.02275E-4
9292.968750; 1.04485E-4
9298.828125; 1.03942E-4
9304.687500; 1.05598E-4
9310.546875; 1.03442E-4
9316.406250; 9.81193E-5
9322.265625; 1.13867E-4
9328.125000; 1.19588E-4
9333.984375; 1.03102E-4
9339.843750; 1.09247E-4
9345.703125; 1.07914E-4
9351.562500; 1.19843E-4
9357.421875; 1.03585E-4
9363.281250; 1.01266E-4
9369.140625; 1.09573E-4
9375.000000; 1.10868E-4
9380.859375; 1.04719E-4
9386.718750; 9.16068E-5
9392.578125; 1.06548E-4
9398.437500; 9.92591E-5
9404.296875; 1.02483E-4
9410.156250; 1.05670E-4
9416.015625; 1.17561E-4
9421.875000; 1.05443E-4
9427.734375; 1.04860E-4
9433.593750; 9.64566E-5
9439.453125; 1.00103E-4
9445.312500; 1.12681E-4
9451.171875; 1.20076E-4
9457.031250; 1.21189E-4
9462.890625; 1.07080E-4
9468.750000; 9.65855E-5
9474.609375; 1.01250E-4
9480.468750; 1.00421E-4
9486.328125; 1.09332E-4
9492.187500; 1.04764E-4
9498.046875; 1.00699E-4
9503.906250; 1.09306E-4
9509.765625; 1.10443E-4
9515.625000; 1.07845E-4
9521.484375; 1.07907E-4
9527.343750; 1.13563E-4
9533.203125; 1.11305E-4
9539.062500; 1.03928E-4
9544.921875; 1.09907E-4
9550.781250; 1.04734E-4
9556.640625; 1.11749E-4
9562.500000; 1.18957E-4
9568.359375; 1.21126E-4
9574.218750; 1.06834E-4
9580.078125; 1.07345E-4
9585.937500; 1.09354E-4
9591.796875; 1.08391E-4
9597.656250; 1.07233E-4
9603.515625; 1.16749E-4
9609.375000; 1.07596E-4
9615.234375; 1.07344E-4
9621.093750; 9.98108E-5
9626.953125; 9.86839E-5
9632.812500; 1.04827E-4
9638.671875; 1.11206E-4
9644.531250; 1.10407E-4
9650.390625; 1.17748E-4
9656.250000; 1.00257E-4
9662.109375; 1.00173E-4
9667.968750; 1.04151E-4
9673.828125; 1.02564E-4
9679.687500; 1.12874E-4
9685.546875; 1.28258E-4
9691.406250; 1.12551E-4
9697.265625; 1.11051E-4
9703.125000; 1.19054E-4
9708.984375; 1.13310E-4
9714.843750; 1.06244E-4
9720.703125; 1.15250E-4
9726.562500; 1.08997E-4
9732.421875; 1.01333E-4
9738.281250; 1.03290E-4
9744.140625; 1.03708E-4
9750.000000; 1.02615E-4
9755.859375; 1.07576E-4
9761.718750; 1.25940E-4
9767.578125; 1.14860E-4
9773.437500; 9.93644E-5
9779.296875; 1.05502E-4
9785.156250; 9.91856E-5
9791.015625; 9.94896E-5
9796.875000; 1.15017E-4
9802.734375; 1.19514E-4
9808.593750; 1.15285E-4
9814.453125; 1.04865E-4
9820.312500; 1.04733E-4
9826.171875; 1.04968E-4
9832.031250; 1.05914E-4
9837.890625; 1.06855E-4
9843.750000; 1.08603E-4
9849.609375; 1.05517E-4
9855.468750; 1.09756E-4
9861.328125; 1.12087E-4
9867.187500; 1.08979E-4
9873.046875; 1.08966E-4
9878.906250; 1.13804E-4
9884.765625; 1.09109E-4
9890.625000; 1.04394E-4
9896.484375; 9.78113E-5
9902.343750; 1.04534E-4
9908.203125; 1.01702E-4
9914.062500; 9.94144E-5
9919.921875; 1.08148E-4
9925.781250; 1.04110E-4
9931.640625; 9.98908E-5
9937.500000; 8.90080E-5
9943.359375; 1.02672E-4
9949.218750; 1.10678E-4
9955.078125; 1.02075E-4
9960.937500; 9.38198E-5
9966.796875; 1.04011E-4
9972.656250; 1.11486E-4
9978.515625; 1.03515E-4
9984.375000; 9.59917E-5
9990.234375; 1.08428E-4
9996.093750; 1.10914E-4
10001.953125; 1.10003E-4
10007.812500; 1.17949E-4
10013.671875; 1.16825E-4
10019.531250; 1.12121E-4
10025.390625; 1.17455E-4
10031.250000; 1.22828E-4
10037.109375; 1.19206E-4
10042.968750; 1.14770E-4
10048.828125; 1.00928E-4
10054.687500; 9.41317E-5
10060.546875; 1.01199E-4
10066.406250; 1.12600E-4
10072.265625; 1.08511E-4
10078.125000; 1.04163E-4
10083.984375; 1.08170E-4
10089.843750; 9.99005E-5
10095.703125; 1.01570E-4
10101.562500; 9.95599E-5
10107.421875; 9.48292E-5
10113.281250; 1.01777E-4
10119.140625; 1.07282E-4
10125.000000; 1.04811E-4
10130.859375; 1.04502E-4
10136.718750; 1.05181E-4
10142.578125; 1.23824E-4
10148.437500; 1.09454E-4
10154.296875; 1.03504E-4
10160.156250; 1.03153E-4
10166.015625; 1.01270E-4
10171.875000; 1.09424E-4
10177.734375; 1.11718E-4
10183.593750; 1.04719E-4
10189.453125; 1.12164E-4
10195.312500; 1.12707E-4
10201.171875; 1.03915E-4
10207.031250; 1.01327E-4
10212.890625; 1.04072E-4
10218.750000; 1.05191E-4
10224.609375; 1.10677E-4
10230.468750; 1.09898E-4
10236.328125; 1.14759E-4
10242.187500; 1.16667E-4
10248.046875; 1.11395E-4
10253.906250; 1.12370E-4
10259.765625; 1.15626E-4
10265.625000; 1.09817E-4
10271.484375; 1.05363E-4
10277.343750; 1.09505E-4
10283.203125; 1.17007E-4
10289.062500; 1.11042E-4
10294.921875; 1.17480E-4
10300.781250; 1.25916E-4
10306.640625; 1.11579E-4
10312.500000; 1.06197E-4
10318.359375; 1.11387E-4
10324.218750; 1.11112E-4
10330.078125; 1.06988E-4
10335.937500; 1.03074E-4
10341.796875; 9.72940E-5
10347.656250; 9.62651E-5
10353.515625; 1.10596E-4
10359.375000; 1.13746E-4
10365.234375; 1.00622E-4
10371.093750; 9.67883E-5
10376.953125; 1.01017E-4
10382.812500; 1.08542E-4
10388.671875; 1.10808E-4
10394.531250; 1.05781E-4
10400.390625; 1.10195E-4
10406.250000; 1.13054E-4
10412.109375; 1.17621E-4
10417.968750; 1.12004E-4
10423.828125; 1.11696E-4
10429.687500; 1.15752E-4
10435.546875; 9.87832E-5
10441.406250; 1.09743E-4
10447.265625; 1.16987E-4
10453.125000; 1.16046E-4
10458.984375; 1.07547E-4
10464.843750; 9.55852E-5
10470.703125; 1.01546E-4
10476.562500; 1.03354E-4
10482.421875; 1.03958E-4
10488.281250; 1.04452E-4
10494.140625; 1.09480E-4
10500.000000; 9.74756E-5
10505.859375; 1.10169E-4
10511.718750; 1.05647E-4
10517.578125; 1.05015E-4
10523.437500; 1.14454E-4
10529.296875; 1.15501E-4
10535.156250; 1.02458E-4
10541.015625; 9.84625E-5
10546.875000; 9.62389E-5
10552.734375; 9.81642E-5
10558.593750; 9.49498E-5
10564.453125; 1.04045E-4
10570.312500; 1.22660E-4
10576.171875; 1.11641E-4
10582.031250; 1.11023E-4
10587.890625; 1.07135E-4
10593.750000; 1.10191E-4
10599.609375; 1.12210E-4
10605.468750; 1.06325E-4
10611.328125; 9.70778E-5
10617.187500; 9.93876E-5
10623.046875; 1.04549E-4
10628.906250; 1.01693E-4
10634.765625; 1.06109E-4
10640.625000; 1.11434E-4
10646.484375; 1.01949E-4
10652.343750; 1.12534E-4
10658.203125; 1.08832E-4
10664.062500; 1.06155E-4
10669.921875; 1.06863E-4
10675.781250; 1.07694E-4
10681.640625; 1.09038E-4
10687.500000; 1.02993E-4
10693.359375; 1.04830E-4
10699.218750; 1.11089E-4
10705.078125; 1.13071E-4
10710.937500; 1.01052E-4
10716.796875; 1.11305E-4
10722.656250; 1.08773E-4
10728.515625; 1.00550E-4
10734.375000; 9.62137E-5
10740.234375; 1.01955E-4
10746.093750; 1.02061E-4
10751.953125; 1.01101E-4
10757.812500; 1.06587E-4
10763.671875; 1.05339E-4
10769.531250; 9.63756E-5
10775.390625; 9.32719E-5
10781.250000; 9.14337E-5
10787.109375; 1.05653E-4
10792.968750; 9.75260E-5
10798.828125; 9.74450E-5
10804.687500; 1.07122E-4
10810.546875; 1.05022E-4
10816.406250; 1.10011E-4
10822.265625; 9.97099E-5
10828.125000; 1.01989E-4
10833.984375; 1.07233E-4
10839.843750; 1.10678E-4
10845.703125; 1.09277E-4
10851.562500; 1.04522E-4
10857.421875; 1.04517E-4
10863.281250; 1.10386E-4
10869.140625; 1.07233E-4
10875.000000; 1.07009E-4
10880.859375; 1.09420E-4
10886.718750; 1.15965E-4
10892.578125; 1.09968E-4
10898.437500; 1.10080E-4
10904.296875; 1.09084E-4
10910.156250; 1.04530E-4
10916.015625; 1.05686E-4
10921.875000; 1.07918E-4
10927.734375; 1.20622E-4
10933.593750; 1.14606E-4
10939.453125; 1.15941E-4
10945.312500; 1.04283E-4
10951.171875; 1.04371E-4
10957.031250; 1.06943E-4
10962.890625; 1.04334E-4
10968.750000; 1.02108E-4
10974.609375; 1.08257E-4
10980.468750; 1.13086E-4
10986.328125; 1.14286E-4
10992.187500; 1.15297E-4
10998.046875; 1.15454E-4
11003.906250; 1.10281E-4
11009.765625; 9.28195E-5
11015.625000; 1.08887E-4
11021.484375; 1.08706E-4
11027.343750; 1.10777E-4
11033.203125; 1.09318E-4
11039.062500; 1.06016E-4
11044.921875; 1.08756E-4
11050.781250; 1.04123E-4
11056.640625; 1.04242E-4
11062.500000; 1.00273E-4
11068.359375; 1.10751E-4
11074.218750; 1.15244E-4
11080.078125; 1.09562E-4
11085.937500; 1.07143E-4
11091.796875; 1.01114E-4
11097.656250; 1.17761E-4
11103.515625; 1.15086E-4
11109.375000; 1.11046E-4
11115.234375; 1.13762E-4
11121.093750; 1.17868E-4
11126.953125; 1.21662E-4
11132.812500; 1.12393E-4
11138.671875; 1.06183E-4
11144.531250; 1.01371E-4
11150.390625; 9.71912E-5
11156.250000; 1.14221E-4
11162.109375; 1.12602E-4
11167.968750; 1.20695E-4
11173.828125; 9.88178E-5
11179.687500; 9.08527E-5
11185.546875; 9.23216E-5
11191.406250; 8.78494E-5
11197.265625; 9.53724E-5
11203.125000; 1.01098E-4
11208.984375; 1.19867E-4
11214.843750; 1.21783E-4
11220.703125; 1.08862E-4
11226.562500; 1.11505E-4
11232.421875; 1.07510E-4
11238.281250; 9.51974E-5
11244.140625; 1.01623E-4
11250.000000; 1.06078E-4
11255.859375; 1.09253E-4
11261.718750; 1.12449E-4
11267.578125; 1.18271E-4
11273.437500; 9.98052E-5
11279.296875; 1.09230E-4
11285.156250; 1.08521E-4
11291.015625; 1.12132E-4
11296.875000; 1.06971E-4
11302.734375; 9.80768E-5
11308.593750; 9.61287E-5
11314.453125; 9.45518E-5
11320.312500; 1.10480E-4
11326.171875; 1.13557E-4
11332.031250; 1.08795E-4
11337.890625; 9.97764E-5
11343.750000; 1.00489E-4
11349.609375; 9.37261E-5
11355.468750; 9.71469E-5
11361.328125; 1.09682E-4
11367.187500; 1.04665E-4
11373.046875; 1.09134E-4
11378.906250; 1.13483E-4
11384.765625; 1.02813E-4
11390.625000; 1.05496E-4
11396.484375; 1.18790E-4
11402.343750; 1.16989E-4
11408.203125; 1.05236E-4
11414.062500; 1.03811E-4
11419.921875; 1.08183E-4
11425.781250; 9.68897E-5
11431.640625; 1.02117E-4
11437.500000; 1.01207E-4
11443.359375; 8.92868E-5
11449.218750; 1.15522E-4
11455.078125; 1.04340E-4
11460.937500; 9.64481E-5
11466.796875; 1.07804E-4
11472.656250; 1.08297E-4
11478.515625; 1.09454E-4
11484.375000; 9.92217E-5
11490.234375; 1.02123E-4
11496.093750; 1.09340E-4
11501.953125; 1.00029E-4
11507.812500; 1.04879E-4
11513.671875; 1.04816E-4
11519.531250; 1.18039E-4
11525.390625; 1.11924E-4
11531.250000; 1.06408E-4
11537.109375; 1.15336E-4
11542.968750; 1.18259E-4
11548.828125; 1.01098E-4
11554.687500; 9.45639E-5
11560.546875; 1.03223E-4
11566.406250; 1.08592E-4
11572.265625; 1.07632E-4
11578.125000; 1.15759E-4
11583.984375; 1.24216E-4
11589.843750; 1.18531E-4
11595.703125; 1.01355E-4
11601.562500; 1.03014E-4
11607.421875; 1.20702E-4
11613.281250; 1.07128E-4
11619.140625; 1.00457E-4
11625.000000; 1.05243E-4
11630.859375; 1.13808E-4
11636.718750; 1.11239E-4
11642.578125; 1.03013E-4
11648.437500; 9.59273E-5
11654.296875; 1.03647E-4
11660.156250; 1.05905E-4
11666.015625; 1.04658E-4
11671.875000; 1.11544E-4
11677.734375; 1.06966E-4
11683.593750; 1.05873E-4
11689.453125; 1.08555E-4
11695.312500; 1.02626E-4
11701.171875; 1.11582E-4
11707.031250; 1.15592E-4
11712.890625; 1.17236E-4
11718.750000; 1.13143E-4
11724.609375; 1.14824E-4
11730.468750; 1.08413E-4
11736.328125; 1.02309E-4
11742.187500; 1.07734E-4
11748.046875; 1.16154E-4
11753.906250; 1.17120E-4
11759.765625; 9.33947E-5
11765.625000; 9.38589E-5
11771.484375; 1.11727E-4
11777.343750; 1.08510E-4
11783.203125; 1.09960E-4
11789.062500; 1.08474E-4
11794.921875; 1.00098E-4
11800.781250; 1.01851E-4
11806.640625; 1.13107E-4
11812.500000; 1.01730E-4
11818.359375; 9.65270E-5
11824.218750; 1.09334E-4
11830.078125; 1.14004E-4
11835.937500; 1.08629E-4
11841.796875; 1.15280E-4
11847.656250; 1.05279E-4
11853.515625; 9.09050E-5
11859.375000; 9.31896E-5
11865.234375; 1.10876E-4
11871.093750; 1.00798E-4
11876.953125; 9.93980E-5
11882.812500; 1.00034E-4
11888.671875; 1.08521E-4
11894.531250; 1.16396E-4
11900.390625; 1.15784E-4
11906.250000; 1.08269E-4
11912.109375; 1.05898E-4
11917.968750; 1.02292E-4
11923.828125; 1.28202E-4
11929.687500; 1.14734E-4
11935.546875; 1.04945E-4
11941.406250; 1.05279E-4
11947.265625; 1.10546E-4
11953.125000; 1.13249E-4
11958.984375; 1.00357E-4
11964.843750; 9.07490E-5
11970.703125; 1.06622E-4
11976.562500; 1.02495E-4
11982.421875; 9.52872E-5
11988.281250; 1.02584E-4
11994.140625; 1.08597E-4
12000.000000; 1.05292E-4
12005.859375; 1.00456E-4
12011.718750; 9.50441E-5
12017.578125; 9.30680E-5
12023.437500; 9.39877E-5
12029.296875; 1.05714E-4
12035.156250; 1.21886E-4
12041.015625; 1.15687E-4
12046.875000; 1.11217E-4
12052.734375; 1.03773E-4
12058.593750; 9.78739E-5
12064.453125; 9.92734E-5
12070.312500; 1.05484E-4
12076.171875; 1.19342E-4
12082.031250; 1.05502E-4
12087.890625; 1.03781E-4
12093.750000; 1.19405E-4
12099.609375; 1.19767E-4
12105.468750; 1.09741E-4
12111.328125; 1.06159E-4
12117.187500; 1.18699E-4
12123.046875; 1.14772E-4
12128.906250; 1.09161E-4
12134.765625; 1.01321E-4
12140.625000; 1.09499E-4
12146.484375; 1.21793E-4
12152.343750; 1.07863E-4
12158.203125; 1.09604E-4
12164.062500; 1.01888E-4
12169.921875; 9.42633E-5
12175.781250; 1.06919E-4
12181.640625; 1.17770E-4
12187.500000; 1.14328E-4
12193.359375; 9.98172E-5
12199.218750; 9.79602E-5
12205.078125; 1.11198E-4
12210.937500; 1.06649E-4
12216.796875; 8.81284E-5
12222.656250; 9.69023E-5
12228.515625; 1.01657E-4
12234.375000; 1.01593E-4
12240.234375; 1.21003E-4
12246.093750; 1.07252E-4
12251.953125; 9.96853E-5
12257.812500; 1.05869E-4
12263.671875; 9.44772E-5
12269.531250; 9.88356E-5
12275.390625; 9.71763E-5
12281.250000; 1.09043E-4
12287.109375; 1.20330E-4
12292.968750; 1.17090E-4
12298.828125; 1.08922E-4
12304.687500; 1.23879E-4
12310.546875; 1.20856E-4
12316.406250; 1.18543E-4
12322.265625; 1.10405E-4
12328.125000; 1.05041E-4
12333.984375; 1.16710E-4
12339.843750; 1.12999E-4
12345.703125; 1.09334E-4
12351.562500; 1.13074E-4
12357.421875; 1.00387E-4
12363.281250; 1.10511E-4
12369.140625; 1.10666E-4
12375.000000; 1.09458E-4
12380.859375; 1.05372E-4
12386.718750; 1.03768E-4
12392.578125; 1.14485E-4
12398.437500; 1.11880E-4
12404.296875; 1.07057E-4
12410.156250; 1.06948E-4
12416.015625; 1.08068E-4
12421.875000; 9.88937E-5
12427.734375; 1.20585E-4
12433.593750; 1.21962E-4
12439.453125; 1.06389E-4
12445.312500; 1.03007E-4
12451.171875; 1.08436E-4
12457.031250; 1.03288E-4
12462.890625; 1.05303E-4
12468.750000; 1.05707E-4
12474.609375; 1.06466E-4
12480.468750; 1.13387E-4
12486.328125; 1.15795E-4
12492.187500; 1.11454E-4
12498.046875; 1.16558E-4
12503.906250; 1.07374E-4
12509.765625; 9.44603E-5
12515.625000; 9.51339E-5
12521.484375; 1.05596E-4
12527.343750; 1.08281E-4
12533.203125; 1.08473E-4
12539.062500; 9.90102E-5
12544.921875; 1.00962E-4
12550.781250; 1.12430E-4
12556.640625; 1.05186E-4
12562.500000; 1.08058E-4
12568.359375; 1.10700E-4
12574.218750; 1.03908E-4
12580.078125; 1.16766E-4
12585.937500; 1.17747E-4
12591.796875; 1.10954E-4
12597.656250; 1.06757E-4
12603.515625; 1.06205E-4
12609.375000; 1.07104E-4
12615.234375; 9.27175E-5
12621.093750; 9.85115E-5
12626.953125; 1.08017E-4
12632.812500; 1.10406E-4
12638.671875; 1.00341E-4
12644.531250; 9.56894E-5
12650.390625; 9.92036E-5
12656.250000; 1.07215E-4
12662.109375; 1.05462E-4
12667.968750; 1.13330E-4
12673.828125; 1.04761E-4
12679.687500; 9.77651E-5
12685.546875; 1.00037E-4
12691.406250; 1.08881E-4
12697.265625; 1.08884E-4
12703.125000; 9.72238E-5
12708.984375; 1.04407E-4
12714.843750; 1.08674E-4
12720.703125; 1.03499E-4
12726.562500; 1.05936E-4
12732.421875; 1.01008E-4
12738.281250; 1.19454E-4
12744.140625; 1.20063E-4
12750.000000; 1.23033E-4
12755.859375; 1.08105E-4
12761.718750; 9.93194E-5
12767.578125; 9.97743E-5
12773.437500; 9.51463E-5
12779.296875; 1.02650E-4
12785.156250; 1.03777E-4
12791.015625; 1.10328E-4
12796.875000; 9.71363E-5
12802.734375; 9.88829E-5
12808.593750; 1.01843E-4
12814.453125; 9.27119E-5
12820.312500; 9.41544E-5
12826.171875; 1.03380E-4
12832.031250; 1.09704E-4
12837.890625; 1.05067E-4
12843.750000; 1.07305E-4
12849.609375; 1.03838E-4
12855.468750; 9.84762E-5
12861.328125; 1.00816E-4
12867.187500; 1.07755E-4
12873.046875; 1.02729E-4
12878.906250; 1.00860E-4
12884.765625; 1.10407E-4
12890.625000; 1.13694E-4
12896.484375; 1.16955E-4
12902.343750; 1.04979E-4
12908.203125; 9.43471E-5
12914.062500; 1.11253E-4
12919.921875; 1.18340E-4
12925.781250; 1.15103E-4
12931.640625; 1.10454E-4
12937.500000; 1.09318E-4
12943.359375; 9.66799E-5
12949.218750; 1.07882E-4
12955.078125; 1.11007E-4
12960.937500; 1.08527E-4
12966.796875; 1.09643E-4
12972.656250; 1.11956E-4
12978.515625; 1.18589E-4
12984.375000; 1.13212E-4
12990.234375; 9.59049E-5
12996.093750; 9.76862E-5
13001.953125; 9.64090E-5
13007.812500; 9.49341E-5
13013.671875; 9.82056E-5
13019.531250; 1.06958E-4
13025.390625; 1.06755E-4
13031.250000; 1.03633E-4
13037.109375; 9.92485E-5
13042.968750; 1.03028E-4
13048.828125; 1.01159E-4
13054.687500; 1.11521E-4
13060.546875; 1.01956E-4
13066.406250; 1.07821E-4
13072.265625; 1.17145E-4
13078.125000; 1.11433E-4
13083.984375; 9.99276E-5
13089.843750; 1.01555E-4
13095.703125; 1.15709E-4
13101.562500; 1.03136E-4
13107.421875; 9.78036E-5
13113.281250; 1.14110E-4
13119.140625; 1.14616E-4
13125.000000; 1.02709E-4
13130.859375; 9.85592E-5
13136.718750; 1.08391E-4
13142.578125; 9.61195E-5
13148.437500; 1.09639E-4
13154.296875; 9.60869E-5
13160.156250; 1.03836E-4
13166.015625; 1.05094E-4
13171.875000; 9.67413E-5
13177.734375; 1.03002E-4
13183.593750; 1.06606E-4
13189.453125; 1.10504E-4
13195.312500; 1.11386E-4
13201.171875; 1.16802E-4
13207.031250; 1.03097E-4
13212.890625; 1.08909E-4
13218.750000; 1.08607E-4
13224.609375; 9.90486E-5
13230.468750; 9.96290E-5
13236.328125; 1.04656E-4
13242.187500; 1.00711E-4
13248.046875; 1.22596E-4
13253.906250; 1.24718E-4
13259.765625; 1.11735E-4
13265.625000; 9.67600E-5
13271.484375; 9.26164E-5
13277.343750; 1.03881E-4
13283.203125; 1.04700E-4
13289.062500; 9.65327E-5
13294.921875; 1.09570E-4
13300.781250; 1.14983E-4
13306.640625; 1.10964E-4
13312.500000; 1.05301E-4
13318.359375; 1.05231E-4
13324.218750; 1.00426E-4
13330.078125; 9.74199E-5
13335.937500; 1.01802E-4
13341.796875; 1.02824E-4
13347.656250; 1.08598E-4
13353.515625; 1.08315E-4
13359.375000; 1.03231E-4
13365.234375; 1.08948E-4
13371.093750; 1.06843E-4
13376.953125; 1.07883E-4
13382.812500; 1.04356E-4
13388.671875; 1.10088E-4
13394.531250; 1.08861E-4
13400.390625; 1.10670E-4
13406.250000; 1.15799E-4
13412.109375; 1.12192E-4
13417.968750; 1.07928E-4
13423.828125; 1.10916E-4
13429.687500; 1.11313E-4
13435.546875; 1.09917E-4
13441.406250; 1.18351E-4
13447.265625; 1.11101E-4
13453.125000; 1.10057E-4
13458.984375; 1.10548E-4
13464.843750; 1.07339E-4
13470.703125; 1.22416E-4
13476.562500; 1.19746E-4
13482.421875; 1.15966E-4
13488.281250; 1.06384E-4
13494.140625; 9.95863E-5
13500.000000; 1.02842E-4
13505.859375; 1.08595E-4
13511.718750; 1.10772E-4
13517.578125; 1.10169E-4
13523.437500; 1.04962E-4
13529.296875; 1.06398E-4
13535.156250; 9.85296E-5
13541.015625; 1.00123E-4
13546.875000; 9.72707E-5
13552.734375; 9.90258E-5
13558.593750; 9.94410E-5
13564.453125; 1.11554E-4
13570.312500; 9.35318E-5
13576.171875; 9.92077E-5
13582.031250; 1.11570E-4
13587.890625; 1.08582E-4
13593.750000; 1.07497E-4
13599.609375; 1.13593E-4
13605.468750; 1.07818E-4
13611.328125; 1.12198E-4
13617.187500; 1.10654E-4
13623.046875; 1.09292E-4
13628.906250; 9.65799E-5
13634.765625; 1.10740E-4
13640.625000; 1.08874E-4
13646.484375; 1.03356E-4
13652.343750; 1.02158E-4
13658.203125; 9.93505E-5
13664.062500; 9.39273E-5
13669.921875; 9.71644E-5
13675.781250; 1.12616E-4
13681.640625; 1.10037E-4
13687.500000; 9.96635E-5
13693.359375; 9.75978E-5
13699.218750; 1.03857E-4
13705.078125; 1.07343E-4
13710.937500; 1.07173E-4
13716.796875; 1.04875E-4
13722.656250; 1.16321E-4
13728.515625; 1.15656E-4
13734.375000; 9.99981E-5
13740.234375; 1.05826E-4
13746.093750; 1.14894E-4
13751.953125; 1.05329E-4
13757.812500; 1.14310E-4
13763.671875; 1.12387E-4
13769.531250; 1.14647E-4
13775.390625; 1.06188E-4
13781.250000; 1.05742E-4
13787.109375; 1.03934E-4
13792.968750; 9.85569E-5
13798.828125; 1.06796E-4
13804.687500; 1.16713E-4
13810.546875; 1.10689E-4
13816.406250; 1.02844E-4
13822.265625; 9.25928E-5
13828.125000; 1.06837E-4
13833.984375; 1.20495E-4
13839.843750; 1.23797E-4
13845.703125; 1.10695E-4
13851.562500; 1.05054E-4
13857.421875; 1.06610E-4
13863.281250; 1.15013E-4
13869.140625; 1.14704E-4
13875.000000; 1.24911E-4
13880.859375; 1.23578E-4
13886.718750; 1.09648E-4
13892.578125; 1.08174E-4
13898.437500; 8.67911E-5
13904.296875; 1.05788E-4
13910.156250; 1.10412E-4
13916.015625; 1.03717E-4
13921.875000; 9.88735E-5
13927.734375; 1.03437E-4
13933.593750; 1.03563E-4
13939.453125; 1.14550E-4
13945.312500; 1.21048E-4
13951.171875; 1.07760E-4
13957.031250; 1.16225E-4
13962.890625; 1.14147E-4
13968.750000; 1.15116E-4
13974.609375; 1.06928E-4
13980.468750; 9.84267E-5
13986.328125; 1.11774E-4
13992.187500; 1.06082E-4
13998.046875; 1.10306E-4
14003.906250; 1.04382E-4
14009.765625; 1.05882E-4
14015.625000; 1.02785E-4
14021.484375; 9.98210E-5
14027.343750; 1.02849E-4
14033.203125; 1.03041E-4
14039.062500; 9.30504E-5
14044.921875; 1.00515E-4
14050.781250; 9.99434E-5
14056.640625; 1.06134E-4
14062.500000; 1.04444E-4
14068.359375; 1.03457E-4
14074.218750; 9.40206E-5
14080.078125; 1.11447E-4
14085.937500; 1.16197E-4
14091.796875; 1.09801E-4
14097.656250; 1.09152E-4
14103.515625; 1.17042E-4
14109.375000; 1.07745E-4
14115.234375; 1.11546E-4
14121.093750; 1.14831E-4
14126.953125; 1.10261E-4
14132.812500; 1.06688E-4
14138.671875; 1.01565E-4
14144.531250; 1.12878E-4
14150.390625; 1.11371E-4
14156.250000; 1.06410E-4
14162.109375; 1.04422E-4
14167.968750; 1.04272E-4
14173.828125; 1.01070E-4
14179.687500; 9.10050E-5
14185.546875; 9.89847E-5
14191.406250; 1.02755E-4
14197.265625; 1.10444E-4
14203.125000; 1.05325E-4
14208.984375; 1.12925E-4
14214.843750; 1.09709E-4
14220.703125; 1.07567E-4
14226.562500; 1.13649E-4
14232.421875; 1.01787E-4
14238.281250; 1.12352E-4
14244.140625; 1.12904E-4
14250.000000; 1.05196E-4
14255.859375; 1.11160E-4
14261.718750; 1.05707E-4
14267.578125; 9.04129E-5
14273.437500; 9.70718E-5
14279.296875; 1.10627E-4
14285.156250; 1.06817E-4
14291.015625; 1.09416E-4
14296.875000; 1.14509E-4
14302.734375; 1.07894E-4
14308.593750; 9.60509E-5
14314.453125; 1.00819E-4
14320.312500; 1.06339E-4
14326.171875; 1.17106E-4
14332.031250; 1.15593E-4
14337.890625; 1.15989E-4
14343.750000; 1.12800E-4
14349.609375; 1.17748E-4
14355.468750; 1.13197E-4
14361.328125; 1.13062E-4
14367.187500; 1.07315E-4
14373.046875; 1.00231E-4
14378.906250; 9.46435E-5
14384.765625; 1.05489E-4
14390.625000; 1.19108E-4
14396.484375; 1.15460E-4
14402.343750; 1.16045E-4
14408.203125; 1.20178E-4
14414.062500; 1.17725E-4
14419.921875; 9.93734E-5
14425.781250; 1.01547E-4
14431.640625; 9.95307E-5
14437.500000; 9.89710E-5
14443.359375; 1.08163E-4
14449.218750; 9.22054E-5
14455.078125; 9.40006E-5
14460.937500; 1.00531E-4
14466.796875; 9.67171E-5
14472.656250; 1.04567E-4
14478.515625; 1.04522E-4
14484.375000; 1.06136E-4
14490.234375; 1.09085E-4
14496.093750; 1.04546E-4
14501.953125; 1.02760E-4
14507.812500; 1.04438E-4
14513.671875; 1.12121E-4
14519.531250; 1.17080E-4
14525.390625; 1.19979E-4
14531.250000; 1.15220E-4
14537.109375; 1.02017E-4
14542.968750; 9.66541E-5
14548.828125; 9.63326E-5
14554.687500; 1.04130E-4
14560.546875; 1.14771E-4
14566.406250; 1.11435E-4
14572.265625; 1.05423E-4
14578.125000; 1.04194E-4
14583.984375; 1.08242E-4
14589.843750; 9.88825E-5
14595.703125; 1.00330E-4
14601.562500; 9.70905E-5
14607.421875; 9.58100E-5
14613.281250; 1.09609E-4
14619.140625; 1.09266E-4
14625.000000; 1.02188E-4
14630.859375; 1.05719E-4
14636.718750; 1.05118E-4
14642.578125; 1.12721E-4
14648.437500; 1.08322E-4
14654.296875; 1.04741E-4
14660.156250; 9.92915E-5
14666.015625; 1.16275E-4
14671.875000; 1.16167E-4
14677.734375; 1.18359E-4
14683.593750; 1.08456E-4
14689.453125; 1.01829E-4
14695.312500; 9.85463E-5
14701.171875; 9.87601E-5
14707.031250; 1.04451E-4
14712.890625; 1.07214E-4
14718.750000; 9.39988E-5
14724.609375; 1.06023E-4
14730.468750; 1.13066E-4
14736.328125; 1.15210E-4
14742.187500; 1.12764E-4
14748.046875; 1.07130E-4
14753.906250; 9.85526E-5
14759.765625; 1.04918E-4
14765.625000; 1.14081E-4
14771.484375; 1.08682E-4
14777.343750; 1.00005E-4
14783.203125; 1.08058E-4
14789.062500; 1.14282E-4
14794.921875; 1.12736E-4
14800.781250; 1.01902E-4
14806.640625; 1.13029E-4
14812.500000; 1.13506E-4
14818.359375; 1.05845E-4
14824.218750; 1.14671E-4
14830.078125; 1.06163E-4
14835.937500; 1.00507E-4
14841.796875; 9.83465E-5
14847.656250; 9.64574E-5
14853.515625; 1.04273E-4
14859.375000; 9.68569E-5
14865.234375; 9.41906E-5
14871.093750; 9.89791E-5
14876.953125; 9.50904E-5
14882.812500; 1.04488E-4
14888.671875; 1.04083E-4
14894.531250; 1.00587E-4
14900.390625; 1.02979E-4
14906.250000; 1.09503E-4
14912.109375; 1.18011E-4
14917.968750; 1.11199E-4
14923.828125; 1.14073E-4
14929.687500; 1.08469E-4
14935.546875; 1.02794E-4
14941.406250; 1.15940E-4
14947.265625; 1.16258E-4
14953.125000; 9.43610E-5
14958.984375; 9.70008E-5
14964.843750; 9.95520E-5
14970.703125; 1.03658E-4
14976.562500; 1.06689E-4
14982.421875; 1.00676E-4
14988.281250; 9.72087E-5
14994.140625; 1.06532E-4
15000.000000; 1.04399E-4
15005.859375; 1.01389E-4
15011.718750; 1.02435E-4
15017.578125; 1.07200E-4
15023.437500; 1.00336E-4
15029.296875; 9.82423E-5
15035.156250; 9.95445E-5
15041.015625; 1.08868E-4
15046.875000; 1.05330E-4
15052.734375; 1.08213E-4
15058.593750; 1.10390E-4
15064.453125; 1.00559E-4
15070.312500; 1.06933E-4
15076.171875; 1.11850E-4
15082.031250; 1.08924E-4
15087.890625; 1.06832E-4
15093.750000; 1.09457E-4
15099.609375; 1.14868E-4
15105.468750; 1.10669E-4
15111.328125; 1.10028E-4
15117.187500; 1.15828E-4
15123.046875; 1.14421E-4
15128.906250; 1.14742E-4
15134.765625; 1.01651E-4
15140.625000; 9.81373E-5
15146.484375; 1.06826E-4
15152.343750; 1.14545E-4
15158.203125; 1.19188E-4
15164.062500; 1.14933E-4
15169.921875; 1.05566E-4
15175.781250; 1.12709E-4
15181.640625; 1.14269E-4
15187.500000; 1.08815E-4
15193.359375; 1.10107E-4
15199.218750; 1.13718E-4
15205.078125; 1.07067E-4
15210.937500; 1.00789E-4
15216.796875; 1.05227E-4
15222.656250; 1.01203E-4
15228.515625; 1.02468E-4
15234.375000; 1.02468E-4
15240.234375; 1.03861E-4
15246.093750; 1.01512E-4
15251.953125; 9.90703E-5
15257.812500; 9.96173E-5
15263.671875; 1.04738E-4
15269.531250; 1.02116E-4
15275.390625; 1.08409E-4
15281.250000; 1.01587E-4
15287.109375; 1.01351E-4
15292.968750; 1.00905E-4
15298.828125; 1.05818E-4
15304.687500; 9.54392E-5
15310.546875; 9.98793E-5
15316.406250; 1.08142E-4
15322.265625; 1.10493E-4
15328.125000; 1.01404E-4
15333.984375; 1.00433E-4
15339.843750; 9.55764E-5
15345.703125; 9.88592E-5
15351.562500; 1.08844E-4
15357.421875; 1.07768E-4
15363.281250; 1.13020E-4
15369.140625; 1.13387E-4
15375.000000; 1.04634E-4
15380.859375; 1.15646E-4
15386.718750; 1.18093E-4
15392.578125; 1.07694E-4
15398.437500; 1.07809E-4
15404.296875; 1.17586E-4
15410.156250; 1.19132E-4
15416.015625; 1.10619E-4
15421.875000; 1.17906E-4
15427.734375; 1.12650E-4
15433.593750; 1.07124E-4
15439.453125; 1.03617E-4
15445.312500; 1.02444E-4
15451.171875; 1.06762E-4
15457.031250; 9.16953E-5
15462.890625; 9.75788E-5
15468.750000; 9.48593E-5
15474.609375; 1.05561E-4
15480.468750; 1.00375E-4
15486.328125; 1.06911E-4
15492.187500; 1.08478E-4
15498.046875; 1.05205E-4
15503.906250; 1.06052E-4
15509.765625; 9.07492E-5
15515.625000; 9.25386E-5
15521.484375; 1.08117E-4
15527.343750; 1.01938E-4
15533.203125; 9.46941E-5
15539.062500; 1.01853E-4
15544.921875; 1.05708E-4
15550.781250; 9.43743E-5
15556.640625; 1.00016E-4
15562.500000; 1.02770E-4
15568.359375; 1.07477E-4
15574.218750; 1.09503E-4
15580.078125; 1.08593E-4
15585.937500; 1.16656E-4
15591.796875; 1.05970E-4
15597.656250; 1.12094E-4
15603.515625; 1.15132E-4
15609.375000; 1.11144E-4
15615.234375; 9.86043E-5
15621.093750; 1.01119E-4
15626.953125; 9.14505E-5
15632.812500; 1.02264E-4
15638.671875; 9.51378E-5
15644.531250; 9.72831E-5
15650.390625; 1.06091E-4
15656.250000; 1.17057E-4
15662.109375; 1.01646E-4
15667.968750; 1.09315E-4
15673.828125; 9.45156E-5
15679.687500; 1.12291E-4
15685.546875; 1.20036E-4
15691.406250; 1.09957E-4
15697.265625; 1.06183E-4
15703.125000; 1.00395E-4
15708.984375; 1.01600E-4
15714.843750; 9.68714E-5
15720.703125; 1.00535E-4
15726.562500; 1.05107E-4
15732.421875; 1.03725E-4
15738.281250; 1.09665E-4
15744.140625; 1.01130E-4
15750.000000; 9.36761E-5
15755.859375; 8.74016E-5
15761.718750; 9.51584E-5
15767.578125; 1.02972E-4
15773.437500; 1.06562E-4
15779.296875; 1.07479E-4
15785.156250; 1.10141E-4
15791.015625; 1.03520E-4
15796.875000; 1.07505E-4
15802.734375; 1.16992E-4
15808.593750; 1.07408E-4
15814.453125; 1.00974E-4
15820.312500; 1.11058E-4
15826.171875; 1.02554E-4
15832.031250; 1.08807E-4
15837.890625; 1.03636E-4
15843.750000; 9.42113E-5
15849.609375; 1.05536E-4
15855.468750; 1.07406E-4
15861.328125; 1.08703E-4
15867.187500; 1.05137E-4
15873.046875; 1.06472E-4
15878.906250; 1.04518E-4
15884.765625; 1.02924E-4
15890.625000; 1.02889E-4
15896.484375; 1.02135E-4
15902.343750; 1.11996E-4
15908.203125; 1.06240E-4
15914.062500; 1.00793E-4
15919.921875; 9.08979E-5
15925.781250; 1.09098E-4
15931.640625; 1.06032E-4
15937.500000; 1.01879E-4
15943.359375; 1.00817E-4
15949.218750; 1.08400E-4
15955.078125; 1.08849E-4
15960.937500; 1.02737E-4
15966.796875; 1.12557E-4
15972.656250; 1.06175E-4
15978.515625; 9.24467E-5
15984.375000; 1.07149E-4
15990.234375; 1.04479E-4
15996.093750; 9.10328E-5
16001.953125; 1.06776E-4
16007.812500; 1.10439E-4
16013.671875; 1.07504E-4
16019.531250; 1.10836E-4
16025.390625; 1.01378E-4
16031.250000; 1.01322E-4
16037.109375; 1.08887E-4
16042.968750; 1.02079E-4
16048.828125; 1.02571E-4
16054.687500; 1.11535E-4
16060.546875; 1.04984E-4
16066.406250; 1.00242E-4
16072.265625; 9.82228E-5
16078.125000; 1.03335E-4
16083.984375; 1.04173E-4
16089.843750; 1.04104E-4
16095.703125; 1.08338E-4
16101.562500; 1.05454E-4
16107.421875; 1.08128E-4
16113.281250; 1.06873E-4
16119.140625; 9.97412E-5
16125.000000; 9.46520E-5
16130.859375; 9.59584E-5
16136.718750; 9.95001E-5
16142.578125; 1.17579E-4
16148.437500; 1.09711E-4
16154.296875; 1.17143E-4
16160.156250; 1.11323E-4
16166.015625; 1.04774E-4
16171.875000; 9.71363E-5
16177.734375; 9.63427E-5
16183.593750; 1.06616E-4
16189.453125; 1.14410E-4
16195.312500; 1.06433E-4
16201.171875; 1.07442E-4
16207.031250; 1.06188E-4
16212.890625; 9.94691E-5
16218.750000; 1.06906E-4
16224.609375; 1.09826E-4
16230.468750; 1.05256E-4
16236.328125; 1.04537E-4
16242.187500; 1.02286E-4
16248.046875; 1.22295E-4
16253.906250; 1.21952E-4
16259.765625; 1.06020E-4
16265.625000; 1.12155E-4
16271.484375; 1.03163E-4
16277.343750; 1.11697E-4
16283.203125; 1.03137E-4
16289.062500; 9.54616E-5
16294.921875; 9.47053E-5
16300.781250; 1.15720E-4
16306.640625; 1.03895E-4
16312.500000; 1.02104E-4
16318.359375; 9.77459E-5
16324.218750; 9.77631E-5
16330.078125; 1.02495E-4
16335.937500; 9.80073E-5
16341.796875; 1.03129E-4
16347.656250; 9.68908E-5
16353.515625; 9.62380E-5
16359.375000; 9.34603E-5
16365.234375; 9.56957E-5
16371.093750; 9.21986E-5
16376.953125; 1.02109E-4
16382.812500; 1.10315E-4
16388.671875; 1.11161E-4
16394.531250; 1.10528E-4
16400.390625; 1.06280E-4
16406.250000; 9.42711E-5
16412.109375; 9.58011E-5
16417.968750; 1.13842E-4
16423.828125; 1.13957E-4
16429.687500; 1.07974E-4
16435.546875; 1.09233E-4
16441.406250; 1.04219E-4
16447.265625; 1.02768E-4
16453.125000; 1.09244E-4
16458.984375; 1.08047E-4
16464.843750; 9.54747E-5
16470.703125; 9.13763E-5
16476.562500; 8.47095E-5
16482.421875; 1.05323E-4
16488.281250; 9.61657E-5
16494.140625; 9.48709E-5
16500.000000; 1.02566E-4
16505.859375; 1.15740E-4
16511.718750; 1.18199E-4
16517.578125; 1.07968E-4
16523.437500; 1.00295E-4
16529.296875; 9.99795E-5
16535.156250; 1.01880E-4
16541.015625; 9.57764E-5
16546.875000; 9.30982E-5
16552.734375; 1.07293E-4
16558.593750; 1.08600E-4
16564.453125; 9.90921E-5
16570.312500; 1.11976E-4
16576.171875; 1.11040E-4
16582.031250; 1.01945E-4
16587.890625; 1.07502E-4
16593.750000; 1.09449E-4
16599.609375; 1.04428E-4
16605.468750; 9.46861E-5
16611.328125; 1.07898E-4
16617.187500; 1.10154E-4
16623.046875; 9.61254E-5
16628.906250; 1.04122E-4
16634.765625; 1.15314E-4
16640.625000; 1.09572E-4
16646.484375; 1.09715E-4
16652.343750; 1.09535E-4
16658.203125; 1.08718E-4
16664.062500; 1.03698E-4
16669.921875; 9.72109E-5
16675.781250; 1.03017E-4
16681.640625; 1.16354E-4
16687.500000; 1.08588E-4
16693.359375; 9.58719E-5
16699.218750; 1.04214E-4
16705.078125; 9.85607E-5
16710.937500; 8.26305E-5
16716.796875; 8.61915E-5
16722.656250; 9.32251E-5
16728.515625; 1.00480E-4
16734.375000; 1.03876E-4
16740.234375; 1.01934E-4
16746.093750; 1.02912E-4
16751.953125; 1.07796E-4
16757.812500; 1.06040E-4
16763.671875; 1.11238E-4
16769.531250; 1.05418E-4
16775.390625; 1.07578E-4
16781.250000; 1.14124E-4
16787.109375; 1.01936E-4
16792.968750; 1.01784E-4
16798.828125; 1.07020E-4
16804.687500; 1.13534E-4
16810.546875; 1.13392E-4
16816.406250; 9.29753E-5
16822.265625; 9.59513E-5
16828.125000; 9.14657E-5
16833.984375; 9.52281E-5
16839.843750; 1.02237E-4
16845.703125; 9.71793E-5
16851.562500; 9.75007E-5
16857.421875; 1.13478E-4
16863.281250; 1.10853E-4
16869.140625; 1.09334E-4
16875.000000; 1.15873E-4
16880.859375; 1.08519E-4
16886.718750; 1.00126E-4
16892.578125; 9.95411E-5
16898.437500; 9.71369E-5
16904.296875; 1.04001E-4
16910.156250; 1.00281E-4
16916.015625; 1.03743E-4
16921.875000; 1.07204E-4
16927.734375; 9.94460E-5
16933.593750; 8.70010E-5
16939.453125; 8.89309E-5
16945.312500; 8.63643E-5
16951.171875; 9.60772E-5
16957.031250; 1.00507E-4
16962.890625; 1.02674E-4
16968.750000; 1.04034E-4
16974.609375; 1.00310E-4
16980.468750; 9.92081E-5
16986.328125; 1.12755E-4
16992.187500; 1.10194E-4
16998.046875; 1.07171E-4
17003.906250; 1.12546E-4
17009.765625; 1.13716E-4
17015.625000; 1.14358E-4
17021.484375; 1.08527E-4
17027.343750; 1.01351E-4
17033.203125; 1.02495E-4
17039.062500; 1.09747E-4
17044.921875; 1.00130E-4
17050.781250; 9.33671E-5
17056.640625; 9.73730E-5
17062.500000; 1.07823E-4
17068.359375; 9.73492E-5
17074.218750; 9.80953E-5
17080.078125; 1.02449E-4
17085.937500; 9.88496E-5
17091.796875; 1.06624E-4
17097.656250; 1.09393E-4
17103.515625; 9.93579E-5
17109.375000; 1.15283E-4
17115.234375; 1.15709E-4
17121.093750; 1.10520E-4
17126.953125; 1.08848E-4
17132.812500; 9.57608E-5
17138.671875; 1.12458E-4
17144.531250; 1.07016E-4
17150.390625; 9.54674E-5
17156.250000; 1.06054E-4
17162.109375; 1.12079E-4
17167.968750; 1.11960E-4
17173.828125; 1.17783E-4
17179.687500; 1.11800E-4
17185.546875; 1.01634E-4
17191.406250; 9.24496E-5
17197.265625; 9.27331E-5
17203.125000; 1.12792E-4
17208.984375; 1.17834E-4
17214.843750; 1.15113E-4
17220.703125; 1.03254E-4
17226.562500; 1.09150E-4
17232.421875; 1.07389E-4
17238.281250; 1.13071E-4
17244.140625; 1.10751E-4
17250.000000; 1.09492E-4
17255.859375; 1.10166E-4
17261.718750; 1.12850E-4
17267.578125; 1.00563E-4
17273.437500; 1.00380E-4
17279.296875; 1.09042E-4
17285.156250; 1.04127E-4
17291.015625; 1.01290E-4
17296.875000; 1.03929E-4
17302.734375; 1.07830E-4
17308.593750; 1.09813E-4
17314.453125; 1.18370E-4
17320.312500; 1.05352E-4
17326.171875; 9.66573E-5
17332.031250; 9.73186E-5
17337.890625; 1.03372E-4
17343.750000; 1.13815E-4
17349.609375; 1.07619E-4
17355.468750; 1.05489E-4
17361.328125; 1.07873E-4
17367.187500; 1.12409E-4
17373.046875; 1.05616E-4
17378.906250; 9.67875E-5
17384.765625; 9.84203E-5
17390.625000; 9.99330E-5
17396.484375; 1.03426E-4
17402.343750; 1.08209E-4
17408.203125; 1.05084E-4
17414.062500; 1.00136E-4
17419.921875; 1.15551E-4
17425.781250; 1.06658E-4
17431.640625; 1.03870E-4
17437.500000; 1.03597E-4
17443.359375; 1.03405E-4
17449.218750; 1.01232E-4
17455.078125; 9.55173E-5
17460.937500; 1.00649E-4
17466.796875; 1.03314E-4
17472.656250; 9.74199E-5
17478.515625; 9.89200E-5
17484.375000; 1.10326E-4
17490.234375; 1.04506E-4
17496.093750; 1.13635E-4
17501.953125; 1.12156E-4
17507.812500; 1.07421E-4
17513.671875; 1.13410E-4
17519.531250; 1.10813E-4
17525.390625; 1.25045E-4
17531.250000; 1.13755E-4
17537.109375; 1.06382E-4
17542.968750; 1.10699E-4
17548.828125; 1.11898E-4
17554.687500; 1.12047E-4
17560.546875; 1.17477E-4
17566.406250; 1.09931E-4
17572.265625; 1.02880E-4
17578.125000; 1.04569E-4
17583.984375; 1.05788E-4
17589.843750; 9.61394E-5
17595.703125; 1.13402E-4
17601.562500; 1.24488E-4
17607.421875; 1.03422E-4
17613.281250; 9.56177E-5
17619.140625; 1.06570E-4
17625.000000; 1.05682E-4
17630.859375; 8.42582E-5
17636.718750; 1.04371E-4
17642.578125; 1.02112E-4
17648.437500; 1.11866E-4
17654.296875; 1.12373E-4
17660.156250; 1.09361E-4
17666.015625; 9.88364E-5
17671.875000; 1.02660E-4
17677.734375; 1.14765E-4
17683.593750; 1.03120E-4
17689.453125; 1.03176E-4
17695.312500; 8.80603E-5
17701.171875; 9.24105E-5
17707.031250; 1.14907E-4
17712.890625; 1.19564E-4
17718.750000; 1.14590E-4
17724.609375; 9.36063E-5
17730.468750; 9.58637E-5
17736.328125; 9.92167E-5
17742.187500; 9.31950E-5
17748.046875; 9.92462E-5
17753.906250; 9.99823E-5
17759.765625; 1.01994E-4
17765.625000; 1.01950E-4
17771.484375; 1.09905E-4
17777.343750; 1.19460E-4
17783.203125; 1.09949E-4
17789.062500; 1.12049E-4
17794.921875; 1.12233E-4
17800.781250; 1.06884E-4
17806.640625; 1.08297E-4
17812.500000; 1.02956E-4
17818.359375; 9.79062E-5
17824.218750; 9.82074E-5
17830.078125; 1.04692E-4
17835.937500; 1.00608E-4
17841.796875; 1.09658E-4
17847.656250; 1.08400E-4
17853.515625; 1.06545E-4
17859.375000; 1.02252E-4
17865.234375; 1.13018E-4
17871.093750; 1.20764E-4
17876.953125; 1.15911E-4
17882.812500; 1.02135E-4
17888.671875; 9.54260E-5
17894.531250; 1.02386E-4
17900.390625; 1.00560E-4
17906.250000; 1.15687E-4
17912.109375; 1.12380E-4
17917.968750; 1.06448E-4
17923.828125; 1.07076E-4
17929.687500; 1.05266E-4
17935.546875; 1.05376E-4
17941.406250; 1.05804E-4
17947.265625; 1.04431E-4
17953.125000; 1.08432E-4
17958.984375; 1.10020E-4
17964.843750; 1.07202E-4
17970.703125; 1.05950E-4
17976.562500; 1.01810E-4
17982.421875; 9.44771E-5
17988.281250; 9.74371E-5
17994.140625; 9.95104E-5
18000.000000; 9.70284E-5
18005.859375; 1.02822E-4
18011.718750; 1.04143E-4
18017.578125; 1.04470E-4
18023.437500; 1.02836E-4
18029.296875; 9.32995E-5
18035.156250; 9.97074E-5
18041.015625; 8.96127E-5
18046.875000; 9.67820E-5
18052.734375; 1.02313E-4
18058.593750; 1.00683E-4
18064.453125; 1.04791E-4
18070.312500; 1.05356E-4
18076.171875; 9.98847E-5
18082.031250; 9.86166E-5
18087.890625; 9.69544E-5
18093.750000; 9.89343E-5
18099.609375; 9.95586E-5
18105.468750; 9.50147E-5
18111.328125; 1.12986E-4
18117.187500; 1.12499E-4
18123.046875; 1.05061E-4
18128.906250; 1.02576E-4
18134.765625; 9.90563E-5
18140.625000; 1.05360E-4
18146.484375; 1.05347E-4
18152.343750; 1.12090E-4
18158.203125; 1.06502E-4
18164.062500; 1.08762E-4
18169.921875; 1.10614E-4
18175.781250; 1.09565E-4
18181.640625; 1.02635E-4
18187.500000; 1.00195E-4
18193.359375; 9.45545E-5
18199.218750; 1.02253E-4
18205.078125; 1.09621E-4
18210.937500; 1.20171E-4
18216.796875; 1.23872E-4
18222.656250; 1.13255E-4
18228.515625; 1.14014E-4
18234.375000; 1.11339E-4
18240.234375; 1.04058E-4
18246.093750; 1.07485E-4
18251.953125; 1.01949E-4
18257.812500; 1.04562E-4
18263.671875; 1.13212E-4
18269.531250; 1.08387E-4
18275.390625; 1.04523E-4
18281.250000; 9.60741E-5
18287.109375; 9.82667E-5
18292.968750; 1.06559E-4
18298.828125; 1.06231E-4
18304.687500; 9.69653E-5
18310.546875; 9.65245E-5
18316.406250; 1.05064E-4
18322.265625; 1.05300E-4
18328.125000; 1.06697E-4
18333.984375; 1.12890E-4
18339.843750; 1.16397E-4
18345.703125; 1.14397E-4
18351.562500; 1.06362E-4
18357.421875; 9.87120E-5
18363.281250; 1.04858E-4
18369.140625; 1.00033E-4
18375.000000; 9.32297E-5
18380.859375; 1.08984E-4
18386.718750; 1.10709E-4
18392.578125; 1.07976E-4
18398.437500; 1.20008E-4
18404.296875; 1.14799E-4
18410.156250; 1.05751E-4
18416.015625; 1.08108E-4
18421.875000; 9.47426E-5
18427.734375; 1.04347E-4
18433.593750; 1.06548E-4
18439.453125; 1.08484E-4
18445.312500; 1.04475E-4
18451.171875; 1.00531E-4
18457.031250; 1.02843E-4
18462.890625; 1.01237E-4
18468.750000; 9.80412E-5
18474.609375; 8.77447E-5
18480.468750; 9.12405E-5
18486.328125; 9.80760E-5
18492.187500; 9.87960E-5
18498.046875; 9.33103E-5
18503.906250; 9.98873E-5
18509.765625; 1.00752E-4
18515.625000; 1.00789E-4
18521.484375; 9.10423E-5
18527.343750; 9.72977E-5
18533.203125; 1.01643E-4
18539.062500; 9.18668E-5
18544.921875; 1.07146E-4
18550.781250; 1.00948E-4
18556.640625; 1.05838E-4
18562.500000; 1.12067E-4
18568.359375; 1.08236E-4
18574.218750; 1.03868E-4
18580.078125; 1.05424E-4
18585.937500; 1.07904E-4
18591.796875; 1.00246E-4
18597.656250; 1.01068E-4
18603.515625; 9.98031E-5
18609.375000; 1.02774E-4
18615.234375; 9.48221E-5
18621.093750; 9.56612E-5
18626.953125; 9.41853E-5
18632.812500; 9.66129E-5
18638.671875; 9.60441E-5
18644.531250; 1.03229E-4
18650.390625; 1.02177E-4
18656.250000; 9.77379E-5
18662.109375; 1.02822E-4
18667.968750; 1.07044E-4
18673.828125; 1.01573E-4
18679.687500; 1.02007E-4
18685.546875; 1.01403E-4
18691.406250; 1.00713E-4
18697.265625; 1.06636E-4
18703.125000; 1.03802E-4
18708.984375; 1.08626E-4
18714.843750; 9.72852E-5
18720.703125; 9.75950E-5
18726.562500; 1.03776E-4
18732.421875; 1.03255E-4
18738.281250; 1.09285E-4
18744.140625; 1.21593E-4
18750.000000; 1.15848E-4
18755.859375; 1.16486E-4
18761.718750; 1.09786E-4
18767.578125; 1.03073E-4
18773.437500; 1.01410E-4
18779.296875; 9.28145E-5
18785.156250; 8.82204E-5
18791.015625; 1.09481E-4
18796.875000; 1.12943E-4
18802.734375; 1.11956E-4
18808.593750; 1.11163E-4
18814.453125; 1.10880E-4
18820.312500; 9.72965E-5
18826.171875; 9.74697E-5
18832.031250; 1.08575E-4
18837.890625; 9.92563E-5
18843.750000; 1.05353E-4
18849.609375; 1.05410E-4
18855.468750; 1.01047E-4
18861.328125; 9.00711E-5
18867.187500; 9.01274E-5
18873.046875; 1.01361E-4
18878.906250; 1.04999E-4
18884.765625; 1.04370E-4
18890.625000; 1.06914E-4
18896.484375; 1.05253E-4
18902.343750; 1.04481E-4
18908.203125; 1.11787E-4
18914.062500; 1.06725E-4
18919.921875; 1.07178E-4
18925.781250; 9.71307E-5
18931.640625; 1.11111E-4
18937.500000; 1.10610E-4
18943.359375; 1.02073E-4
18949.218750; 1.01990E-4
18955.078125; 1.08939E-4
18960.937500; 1.11976E-4
18966.796875; 1.14149E-4
18972.656250; 1.09994E-4
18978.515625; 1.09295E-4
18984.375000; 1.14012E-4
18990.234375; 1.17585E-4
18996.093750; 1.19378E-4
19001.953125; 1.14403E-4
19007.812500; 1.10443E-4
19013.671875; 1.01588E-4
19019.531250; 9.89687E-5
19025.390625; 9.46754E-5
19031.250000; 1.08756E-4
19037.109375; 1.03719E-4
19042.968750; 9.75457E-5
19048.828125; 1.10066E-4
19054.687500; 1.02035E-4
19060.546875; 9.75528E-5
19066.406250; 1.05894E-4
19072.265625; 1.06369E-4
19078.125000; 1.06495E-4
19083.984375; 9.77485E-5
19089.843750; 1.06073E-4
19095.703125; 1.02437E-4
19101.562500; 8.99123E-5
19107.421875; 1.02042E-4
19113.281250; 1.09928E-4
19119.140625; 1.04070E-4
19125.000000; 1.13785E-4
19130.859375; 1.06178E-4
19136.718750; 9.77600E-5
19142.578125; 1.10578E-4
19148.437500; 1.13151E-4
19154.296875; 9.19519E-5
19160.156250; 1.06970E-4
19166.015625; 1.06226E-4
19171.875000; 1.04789E-4
19177.734375; 1.00149E-4
19183.593750; 1.09564E-4
19189.453125; 1.14300E-4
19195.312500; 1.02891E-4
19201.171875; 1.11028E-4
19207.031250; 1.19218E-4
19212.890625; 1.10836E-4
19218.750000; 9.32679E-5
19224.609375; 9.06349E-5
19230.468750; 9.58789E-5
19236.328125; 1.03399E-4
19242.187500; 1.04655E-4
19248.046875; 1.02713E-4
19253.906250; 1.07082E-4
19259.765625; 9.80764E-5
19265.625000; 8.68644E-5
19271.484375; 9.21642E-5
19277.343750; 9.21483E-5
19283.203125; 9.19009E-5
19289.062500; 9.90220E-5
19294.921875; 1.10142E-4
19300.781250; 1.13788E-4
19306.640625; 9.60871E-5
19312.500000; 9.99033E-5
19318.359375; 1.05152E-4
19324.218750; 9.40310E-5
19330.078125; 9.40095E-5
19335.937500; 1.09929E-4
19341.796875; 1.00474E-4
19347.656250; 9.21033E-5
19353.515625; 1.04676E-4
19359.375000; 9.78835E-5
19365.234375; 9.56313E-5
19371.093750; 9.78027E-5
19376.953125; 1.05945E-4
19382.812500; 9.61842E-5
19388.671875; 1.10639E-4
19394.531250; 1.03293E-4
19400.390625; 1.02463E-4
19406.250000; 1.05955E-4
19412.109375; 1.07840E-4
19417.968750; 1.04094E-4
19423.828125; 9.65027E-5
19429.687500; 8.80774E-5
19435.546875; 1.00142E-4
19441.406250; 9.99843E-5
19447.265625; 1.00907E-4
19453.125000; 9.27426E-5
19458.984375; 9.82208E-5
19464.843750; 1.07269E-4
19470.703125; 1.07635E-4
19476.562500; 1.07745E-4
19482.421875; 9.90618E-5
19488.281250; 1.02837E-4
19494.140625; 1.07043E-4
19500.000000; 1.11810E-4
19505.859375; 1.04505E-4
19511.718750; 9.93869E-5
19517.578125; 9.63556E-5
19523.437500; 1.10504E-4
19529.296875; 1.10109E-4
19535.156250; 1.01395E-4
19541.015625; 1.08489E-4
19546.875000; 1.08938E-4
19552.734375; 1.07548E-4
19558.593750; 1.05314E-4
19564.453125; 1.03702E-4
19570.312500; 8.97788E-5
19576.171875; 1.04144E-4
19582.031250; 1.14402E-4
19587.890625; 1.15875E-4
19593.750000; 1.12326E-4
19599.609375; 1.05672E-4
19605.468750; 1.07935E-4
19611.328125; 1.19425E-4
19617.187500; 1.20982E-4
19623.046875; 1.03519E-4
19628.906250; 1.03368E-4
19634.765625; 1.07814E-4
19640.625000; 1.12409E-4
19646.484375; 1.03379E-4
19652.343750; 8.89866E-5
19658.203125; 9.54481E-5
19664.062500; 9.43383E-5
19669.921875; 9.75334E-5
19675.781250; 1.05624E-4
19681.640625; 1.03282E-4
19687.500000; 1.04842E-4
19693.359375; 1.07953E-4
19699.218750; 1.10547E-4
19705.078125; 1.06346E-4
19710.937500; 1.04715E-4
19716.796875; 9.99882E-5
19722.656250; 1.06193E-4
19728.515625; 9.20861E-5
19734.375000; 9.32984E-5
19740.234375; 9.56298E-5
19746.093750; 1.00084E-4
19751.953125; 1.02563E-4
19757.812500; 9.91702E-5
19763.671875; 9.01853E-5
19769.531250; 1.02584E-4
19775.390625; 1.01880E-4
19781.250000; 1.01614E-4
19787.109375; 1.06382E-4
19792.968750; 1.06749E-4
19798.828125; 1.01895E-4
19804.687500; 1.06568E-4
19810.546875; 1.10470E-4
19816.406250; 1.07366E-4
19822.265625; 1.05549E-4
19828.125000; 1.05203E-4
19833.984375; 9.47495E-5
19839.843750; 9.77379E-5
19845.703125; 1.02336E-4
19851.562500; 9.86651E-5
19857.421875; 9.72358E-5
19863.281250; 9.97805E-5
19869.140625; 1.03306E-4
19875.000000; 9.19841E-5
19880.859375; 9.78187E-5
19886.718750; 9.86647E-5
19892.578125; 9.71352E-5
19898.437500; 9.50990E-5
19904.296875; 9.07570E-5
19910.156250; 1.08058E-4
19916.015625; 1.03800E-4
19921.875000; 1.01495E-4
19927.734375; 1.02685E-4
19933.593750; 9.42695E-5
19939.453125; 1.09883E-4
19945.312500; 1.05965E-4
19951.171875; 8.68285E-5
19957.031250; 9.52401E-5
19962.890625; 1.08832E-4
19968.750000; 1.15880E-4
19974.609375; 1.19744E-4
19980.468750; 1.09228E-4
19986.328125; 9.96085E-5
19992.187500; 1.03263E-4
19998.046875; 1.07286E-4
20003.906250; 1.06254E-4
20009.765625; 1.00158E-4
20015.625000; 1.07846E-4
20021.484375; 1.03242E-4
20027.343750; 9.86595E-5
20033.203125; 1.09678E-4
20039.062500; 1.06434E-4
20044.921875; 1.01313E-4
20050.781250; 1.03293E-4
20056.640625; 1.05161E-4
20062.500000; 1.05076E-4
20068.359375; 1.08215E-4
20074.218750; 1.22526E-4
20080.078125; 1.05690E-4
20085.937500; 1.01283E-4
20091.796875; 1.10206E-4
20097.656250; 9.90158E-5
20103.515625; 9.96601E-5
20109.375000; 1.06546E-4
20115.234375; 1.14154E-4
20121.093750; 1.03404E-4
20126.953125; 9.00799E-5
20132.812500; 9.72279E-5
20138.671875; 9.84077E-5
20144.531250; 9.84606E-5
20150.390625; 1.09511E-4
20156.250000; 1.05930E-4
20162.109375; 1.09815E-4
20167.968750; 1.12779E-4
20173.828125; 1.08180E-4
20179.687500; 9.29851E-5
20185.546875; 9.98407E-5
20191.406250; 1.09911E-4
20197.265625; 9.25424E-5
20203.125000; 9.62609E-5
20208.984375; 9.79864E-5
20214.843750; 9.89334E-5
20220.703125; 1.00780E-4
20226.562500; 9.62180E-5
20232.421875; 9.98183E-5
20238.281250; 1.07851E-4
20244.140625; 1.03340E-4
20250.000000; 1.08857E-4
20255.859375; 1.00285E-4
20261.718750; 9.78772E-5
20267.578125; 9.90600E-5
20273.437500; 1.00795E-4
20279.296875; 1.04588E-4
20285.156250; 1.12954E-4
20291.015625; 1.04720E-4
20296.875000; 1.13997E-4
20302.734375; 1.06736E-4
20308.593750; 1.04147E-4
20314.453125; 1.15218E-4
20320.312500; 1.10270E-4
20326.171875; 1.13369E-4
20332.031250; 1.24050E-4
20337.890625; 1.22380E-4
20343.750000; 1.13858E-4
20349.609375; 9.94046E-5
20355.468750; 9.98058E-5
20361.328125; 1.07120E-4
20367.187500; 1.12412E-4
20373.046875; 1.03864E-4
20378.906250; 9.72256E-5
20384.765625; 9.85390E-5
20390.625000; 1.01274E-4
20396.484375; 9.77080E-5
20402.343750; 9.27888E-5
20408.203125; 9.96137E-5
20414.062500; 9.91526E-5
20419.921875; 1.04572E-4
20425.781250; 9.60350E-5
20431.640625; 9.91651E-5
20437.500000; 9.92973E-5
20443.359375; 1.13105E-4
20449.218750; 1.10256E-4
20455.078125; 9.97746E-5
20460.937500; 9.80543E-5
20466.796875; 1.11927E-4
20472.656250; 1.05840E-4
20478.515625; 1.06605E-4
20484.375000; 9.14871E-5
20490.234375; 1.00707E-4
20496.093750; 1.02121E-4
20501.953125; 9.88717E-5
20507.812500; 9.58654E-5
20513.671875; 1.04187E-4
20519.531250; 9.96685E-5
20525.390625; 9.37403E-5
20531.250000; 1.03617E-4
20537.109375; 1.10754E-4
20542.968750; 1.07707E-4
20548.828125; 9.44590E-5
20554.687500; 1.07200E-4
20560.546875; 1.08061E-4
20566.406250; 1.01215E-4
20572.265625; 1.02110E-4
20578.125000; 9.73528E-5
20583.984375; 9.88068E-5
20589.843750; 9.24743E-5
20595.703125; 9.95216E-5
20601.562500; 9.91043E-5
20607.421875; 1.00124E-4
20613.281250; 1.12102E-4
20619.140625; 1.06973E-4
20625.000000; 1.02401E-4
20630.859375; 8.90249E-5
20636.718750; 9.42654E-5
20642.578125; 9.99918E-5
20648.437500; 9.94530E-5
20654.296875; 1.10137E-4
20660.156250; 1.04637E-4
20666.015625; 1.01811E-4
20671.875000; 1.00690E-4
20677.734375; 9.93450E-5
20683.593750; 9.12543E-5
20689.453125; 9.11676E-5
20695.312500; 9.52914E-5
20701.171875; 9.96025E-5
20707.031250; 1.01134E-4
20712.890625; 1.06228E-4
20718.750000; 1.03830E-4
20724.609375; 1.01146E-4
20730.468750; 1.04862E-4
20736.328125; 1.11428E-4
20742.187500; 1.04979E-4
20748.046875; 9.89258E-5
20753.906250; 1.05460E-4
20759.765625; 1.01493E-4
20765.625000; 8.13228E-5
20771.484375; 9.78194E-5
20777.343750; 9.98771E-5
20783.203125; 9.43332E-5
20789.062500; 9.03092E-5
20794.921875; 9.61939E-5
20800.781250; 9.51122E-5
20806.640625; 1.03055E-4
20812.500000; 9.63877E-5
20818.359375; 1.09191E-4
20824.218750; 1.14086E-4
20830.078125; 1.03360E-4
20835.937500; 9.69960E-5
20841.796875; 1.04585E-4
20847.656250; 1.00131E-4
20853.515625; 8.66897E-5
20859.375000; 9.63002E-5
20865.234375; 9.98626E-5
20871.093750; 9.31023E-5
20876.953125; 9.73134E-5
20882.812500; 1.02202E-4
20888.671875; 1.03844E-4
20894.531250; 1.04917E-4
20900.390625; 1.06811E-4
20906.250000; 1.11311E-4
20912.109375; 1.09722E-4
20917.968750; 1.05401E-4
20923.828125; 1.10575E-4
20929.687500; 1.11339E-4
20935.546875; 1.10122E-4
20941.406250; 1.04562E-4
20947.265625; 1.02148E-4
20953.125000; 1.00026E-4
20958.984375; 9.98229E-5
20964.843750; 9.92693E-5
20970.703125; 1.10657E-4
20976.562500; 1.10999E-4
20982.421875; 1.11702E-4
20988.281250; 9.31040E-5
20994.140625; 1.09155E-4
21000.000000; 1.16272E-4
21005.859375; 9.40507E-5
21011.718750; 9.54833E-5
21017.578125; 9.78522E-5
21023.437500; 9.89444E-5
21029.296875; 1.16139E-4
21035.156250; 1.08913E-4
21041.015625; 1.07145E-4
21046.875000; 1.06856E-4
21052.734375; 1.10003E-4
21058.593750; 1.01933E-4
21064.453125; 9.41637E-5
21070.312500; 1.02762E-4
21076.171875; 1.04386E-4
21082.031250; 1.04228E-4
21087.890625; 1.05943E-4
21093.750000; 9.85918E-5
21099.609375; 8.46041E-5
21105.468750; 9.64829E-5
21111.328125; 1.04735E-4
21117.187500; 9.54566E-5
21123.046875; 1.02715E-4
21128.906250; 9.84847E-5
21134.765625; 1.00067E-4
21140.625000; 1.03009E-4
21146.484375; 1.01997E-4
21152.343750; 1.18340E-4
21158.203125; 1.07447E-4
21164.062500; 9.62197E-5
21169.921875; 1.00778E-4
21175.781250; 9.17974E-5
21181.640625; 9.93061E-5
21187.500000; 1.09985E-4
21193.359375; 9.66150E-5
21199.218750; 1.00562E-4
21205.078125; 1.04792E-4
21210.937500; 9.39715E-5
21216.796875; 1.05190E-4
21222.656250; 1.07391E-4
21228.515625; 9.37617E-5
21234.375000; 1.00807E-4
21240.234375; 1.11109E-4
21246.093750; 1.01698E-4
21251.953125; 1.10990E-4
21257.812500; 1.09827E-4
21263.671875; 1.01993E-4
21269.531250; 9.96788E-5
21275.390625; 1.02255E-4
21281.250000; 1.06784E-4
21287.109375; 1.02838E-4
21292.968750; 1.01450E-4
21298.828125; 1.00693E-4
21304.687500; 1.02063E-4
21310.546875; 9.85829E-5
21316.406250; 9.60014E-5
21322.265625; 1.05714E-4
21328.125000; 1.04601E-4
21333.984375; 9.88323E-5
21339.843750; 1.02436E-4
21345.703125; 1.03291E-4
21351.562500; 1.10462E-4
21357.421875; 1.10186E-4
21363.281250; 1.04387E-4
21369.140625; 1.06214E-4
21375.000000; 1.05322E-4
21380.859375; 1.04278E-4
21386.718750; 1.05171E-4
21392.578125; 1.07137E-4
21398.437500; 1.05753E-4
21404.296875; 9.80327E-5
21410.156250; 8.51490E-5
21416.015625; 9.16928E-5
21421.875000; 1.06360E-4
21427.734375; 1.00300E-4
21433.593750; 9.38080E-5
21439.453125; 9.62826E-5
21445.312500; 8.95839E-5
21451.171875; 9.60692E-5
21457.031250; 8.85056E-5
21462.890625; 9.10544E-5
21468.750000; 9.70011E-5
21474.609375; 1.07799E-4
21480.468750; 1.10431E-4
21486.328125; 1.03949E-4
21492.187500; 1.02354E-4
21498.046875; 1.01620E-4
21503.906250; 1.08863E-4
21509.765625; 1.05330E-4
21515.625000; 1.02321E-4
21521.484375; 1.08363E-4
21527.343750; 1.05138E-4
21533.203125; 9.84859E-5
21539.062500; 9.67063E-5
21544.921875; 9.96865E-5
21550.781250; 1.08356E-4
21556.640625; 1.04145E-4
21562.500000; 9.87286E-5
21568.359375; 9.95631E-5
21574.218750; 1.02312E-4
21580.078125; 1.08729E-4
21585.937500; 1.15540E-4
21591.796875; 1.13908E-4
21597.656250; 1.03784E-4
21603.515625; 9.38385E-5
21609.375000; 9.72016E-5
21615.234375; 1.05303E-4
21621.093750; 1.06254E-4
21626.953125; 1.06925E-4
21632.812500; 1.07274E-4
21638.671875; 1.02369E-4
21644.531250; 1.05538E-4
21650.390625; 1.10358E-4
21656.250000; 1.08174E-4
21662.109375; 1.03687E-4
21667.968750; 1.02420E-4
21673.828125; 1.01562E-4
21679.687500; 8.85404E-5
21685.546875; 8.66277E-5
21691.406250; 8.66229E-5
21697.265625; 9.24804E-5
21703.125000; 1.11966E-4
21708.984375; 1.06191E-4
21714.843750; 9.39488E-5
21720.703125; 1.02464E-4
21726.562500; 9.96209E-5
21732.421875; 8.94445E-5
21738.281250; 9.38779E-5
21744.140625; 9.66305E-5
21750.000000; 1.00640E-4
21755.859375; 1.00517E-4
21761.718750; 9.19219E-5
21767.578125; 1.11484E-4
21773.437500; 1.09469E-4
21779.296875; 9.25536E-5
21785.156250; 8.77641E-5
21791.015625; 8.70498E-5
21796.875000; 1.03328E-4
21802.734375; 1.07663E-4
21808.593750; 1.06402E-4
21814.453125; 1.01140E-4
21820.312500; 9.26292E-5
21826.171875; 9.84819E-5
21832.031250; 9.87702E-5
21837.890625; 9.43678E-5
21843.750000; 1.06903E-4
21849.609375; 1.05561E-4
21855.468750; 1.00466E-4
21861.328125; 9.68818E-5
21867.187500; 9.62642E-5
21873.046875; 1.00608E-4
21878.906250; 1.06792E-4
21884.765625; 9.90666E-5
21890.625000; 1.04853E-4
21896.484375; 1.03225E-4
21902.343750; 9.63460E-5
21908.203125; 1.02442E-4
21914.062500; 9.65276E-5
21919.921875; 1.06624E-4
21925.781250; 1.04676E-4
21931.640625; 1.00436E-4
21937.500000; 1.05177E-4
21943.359375; 1.02392E-4
21949.218750; 9.72063E-5
21955.078125; 9.99457E-5
21960.937500; 1.07212E-4
21966.796875; 1.13657E-4
21972.656250; 1.03871E-4
21978.515625; 1.01276E-4
21984.375000; 1.03061E-4
21990.234375; 1.03826E-4
21996.093750; 9.90278E-5
22001.953125; 9.44345E-5
22007.812500; 1.14356E-4
22013.671875; 1.15498E-4
22019.531250; 9.89670E-5
22025.390625; 9.98540E-5
22031.250000; 1.05214E-4
22037.109375; 1.03666E-4
22042.968750; 1.04235E-4
22048.828125; 9.52650E-5
22054.687500; 9.27436E-5
22060.546875; 9.13990E-5
22066.406250; 9.46155E-5
22072.265625; 1.00095E-4
22078.125000; 1.02673E-4
22083.984375; 1.02158E-4
22089.843750; 1.08106E-4
22095.703125; 1.04051E-4
22101.562500; 1.06422E-4
22107.421875; 1.03845E-4
22113.281250; 1.00233E-4
22119.140625; 1.01546E-4
22125.000000; 1.08702E-4
22130.859375; 1.05159E-4
22136.718750; 9.12509E-5
22142.578125; 9.58303E-5
22148.437500; 9.63498E-5
22154.296875; 9.86660E-5
22160.156250; 1.05492E-4
22166.015625; 1.05014E-4
22171.875000; 1.10606E-4
22177.734375; 1.04658E-4
22183.593750; 1.04045E-4
22189.453125; 1.05970E-4
22195.312500; 1.07865E-4
22201.171875; 9.70164E-5
22207.031250; 9.43862E-5
22212.890625; 1.01604E-4
22218.750000; 9.66492E-5
22224.609375; 9.51573E-5
22230.468750; 9.81753E-5
22236.328125; 1.01393E-4
22242.187500; 1.02576E-4
22248.046875; 1.08813E-4
22253.906250; 1.12593E-4
22259.765625; 1.06473E-4
22265.625000; 1.05706E-4
22271.484375; 9.37263E-5
22277.343750; 9.46095E-5
22283.203125; 9.67620E-5
22289.062500; 1.01888E-4
22294.921875; 1.09543E-4
22300.781250; 9.92972E-5
22306.640625; 9.88719E-5
22312.500000; 9.46234E-5
22318.359375; 9.61650E-5
22324.218750; 1.05372E-4
22330.078125; 1.04779E-4
22335.937500; 9.92258E-5
22341.796875; 8.86484E-5
22347.656250; 8.59169E-5
22353.515625; 9.42779E-5
22359.375000; 1.10012E-4
22365.234375; 1.01092E-4
22371.093750; 9.87166E-5
22376.953125; 1.01671E-4
22382.812500; 9.92296E-5
22388.671875; 1.01825E-4
22394.531250; 9.26408E-5
22400.390625; 9.59830E-5
22406.250000; 9.74379E-5
22412.109375; 9.70676E-5
22417.968750; 9.30757E-5
22423.828125; 9.46560E-5
22429.687500; 9.15360E-5
22435.546875; 9.74222E-5
22441.406250; 8.87374E-5
22447.265625; 8.53429E-5
22453.125000; 9.03970E-5
22458.984375; 8.96139E-5
22464.843750; 8.74682E-5
22470.703125; 9.12570E-5
22476.562500; 1.02381E-4
22482.421875; 1.10564E-4
22488.281250; 1.03427E-4
22494.140625; 9.86705E-5
22500.000000; 9.39247E-5
22505.859375; 9.55537E-5
22511.718750; 1.01469E-4
22517.578125; 8.66561E-5
22523.437500; 8.89921E-5
22529.296875; 1.03147E-4
22535.156250; 8.96519E-5
22541.015625; 9.06714E-5
22546.875000; 8.82761E-5
22552.734375; 9.30766E-5
22558.593750; 9.84106E-5
22564.453125; 9.88471E-5
22570.312500; 1.03748E-4
22576.171875; 9.01721E-5
22582.031250; 9.13028E-5
22587.890625; 9.24715E-5
22593.750000; 1.04654E-4
22599.609375; 8.81418E-5
22605.468750; 9.25441E-5
22611.328125; 1.06058E-4
22617.187500; 9.87524E-5
22623.046875; 9.27962E-5
22628.906250; 9.08337E-5
22634.765625; 8.68618E-5
22640.625000; 9.70800E-5
22646.484375; 9.49974E-5
22652.343750; 9.21249E-5
22658.203125; 9.46765E-5
22664.062500; 8.86960E-5
22669.921875; 8.67114E-5
22675.781250; 9.03932E-5
22681.640625; 9.80937E-5
22687.500000; 9.12065E-5
22693.359375; 8.88392E-5
22699.218750; 8.54035E-5
22705.078125; 8.79398E-5
22710.937500; 8.82590E-5
22716.796875; 8.49134E-5
22722.656250; 8.81674E-5
22728.515625; 9.55801E-5
22734.375000; 9.32935E-5
22740.234375; 8.29692E-5
22746.093750; 8.61974E-5
22751.953125; 7.77994E-5
22757.812500; 8.19978E-5
22763.671875; 8.96424E-5
22769.531250; 1.00076E-4
22775.390625; 1.00004E-4
22781.250000; 9.16906E-5
22787.109375; 8.48882E-5
22792.968750; 8.23875E-5
22798.828125; 8.40051E-5
22804.687500; 8.82926E-5
22810.546875; 8.84489E-5
22816.406250; 8.74882E-5
22822.265625; 8.15817E-5
22828.125000; 7.78296E-5
22833.984375; 8.48501E-5
22839.843750; 9.02772E-5
22845.703125; 9.83473E-5
22851.562500; 9.22055E-5
22857.421875; 8.56269E-5
22863.281250; 8.52319E-5
22869.140625; 7.62756E-5
22875.000000; 7.66053E-5
22880.859375; 7.45429E-5
22886.718750; 7.98305E-5
22892.578125; 7.96337E-5
22898.437500; 8.11900E-5
22904.296875; 8.10123E-5
22910.156250; 8.22500E-5
22916.015625; 7.48274E-5
22921.875000; 7.75030E-5
22927.734375; 8.44581E-5
22933.593750; 8.57612E-5
22939.453125; 9.54149E-5
22945.312500; 8.89632E-5
22951.171875; 8.11245E-5
22957.031250; 8.13605E-5
22962.890625; 7.79794E-5
22968.750000; 7.91342E-5
22974.609375; 7.38109E-5
22980.468750; 6.76543E-5
22986.328125; 7.70618E-5
22992.187500; 8.52729E-5
22998.046875; 7.69904E-5
23003.906250; 7.65322E-5
23009.765625; 7.01398E-5
23015.625000; 7.69147E-5
23021.484375; 9.49586E-5
23027.343750; 8.46699E-5
23033.203125; 8.24462E-5
23039.062500; 7.40410E-5
23044.921875; 8.10521E-5
23050.781250; 8.38836E-5
23056.640625; 8.08679E-5
23062.500000; 7.52061E-5
23068.359375; 7.14306E-5
23074.218750; 7.48130E-5
23080.078125; 7.48101E-5
23085.937500; 7.45342E-5
23091.796875; 7.89217E-5
23097.656250; 7.93721E-5
23103.515625; 7.23849E-5
23109.375000; 6.79653E-5
23115.234375; 6.99295E-5
23121.093750; 7.18551E-5
23126.953125; 7.08915E-5
23132.812500; 6.22691E-5
23138.671875; 6.33997E-5
23144.531250; 6.91627E-5
23150.390625; 6.61547E-5
23156.250000; 5.94104E-5
23162.109375; 6.80467E-5
23167.968750; 6.57496E-5
23173.828125; 7.13583E-5
23179.687500; 7.34547E-5
23185.546875; 6.88525E-5
23191.406250; 6.64230E-5
23197.265625; 7.06537E-5
23203.125000; 7.11911E-5
23208.984375; 7.02048E-5
23214.843750; 7.15249E-5
23220.703125; 7.61908E-5
23226.562500; 6.48346E-5
23232.421875; 6.02118E-5
23238.281250; 7.12252E-5
23244.140625; 6.67883E-5
23250.000000; 6.54410E-5
23255.859375; 6.44159E-5
23261.718750; 6.00777E-5
23267.578125; 5.92575E-5
23273.437500; 6.72216E-5
23279.296875; 6.13241E-5
23285.156250; 6.57198E-5
23291.015625; 6.90581E-5
23296.875000; 5.87977E-5
23302.734375; 5.52825E-5
23308.593750; 5.82944E-5
23314.453125; 6.36773E-5
23320.312500; 5.75373E-5
23326.171875; 6.26855E-5
23332.031250; 6.35280E-5
23337.890625; 6.06986E-5
23343.750000; 5.78461E-5
23349.609375; 5.77221E-5
23355.468750; 6.24256E-5
23361.328125; 5.80103E-5
23367.187500; 5.53696E-5
23373.046875; 5.64264E-5
23378.906250; 5.35189E-5
23384.765625; 5.40806E-5
23390.625000; 5.66218E-5
23396.484375; 5.57700E-5
23402.343750; 5.93538E-5
23408.203125; 6.03579E-5
23414.062500; 5.84008E-5
23419.921875; 5.81000E-5
23425.781250; 5.30451E-5
23431.640625; 4.68107E-5
23437.500000; 5.18648E-5
23443.359375; 5.20806E-5
23449.218750; 5.37975E-5
23455.078125; 5.68471E-5
23460.937500; 5.73113E-5
23466.796875; 5.27161E-5
23472.656250; 5.08615E-5
23478.515625; 5.25669E-5
23484.375000; 4.69934E-5
23490.234375; 5.06078E-5
23496.093750; 4.87097E-5
23501.953125; 4.66703E-5
23507.812500; 4.29769E-5
23513.671875; 4.40473E-5
23519.531250; 4.57132E-5
23525.390625; 4.84946E-5
23531.250000; 5.29989E-5
23537.109375; 4.93409E-5
23542.968750; 5.45353E-5
23548.828125; 4.35884E-5
23554.687500; 4.58835E-5
23560.546875; 4.81069E-5
23566.406250; 4.60521E-5
23572.265625; 4.68240E-5
23578.125000; 4.51759E-5
23583.984375; 4.92666E-5
23589.843750; 5.52080E-5
23595.703125; 5.03906E-5
23601.562500; 4.85161E-5
23607.421875; 4.54673E-5
23613.281250; 4.58940E-5
23619.140625; 5.14613E-5
23625.000000; 4.34857E-5
23630.859375; 4.44990E-5
23636.718750; 4.11316E-5
23642.578125; 4.26229E-5
23648.437500; 4.53339E-5
23654.296875; 4.65877E-5
23660.156250; 4.16443E-5
23666.015625; 4.41439E-5
23671.875000; 4.55232E-5
23677.734375; 4.69171E-5
23683.593750; 4.74293E-5
23689.453125; 4.55242E-5
23695.312500; 4.47073E-5
23701.171875; 4.15243E-5
23707.031250; 3.71392E-5
23712.890625; 3.77630E-5
23718.750000; 4.14184E-5
23724.609375; 4.03047E-5
23730.468750; 4.09107E-5
23736.328125; 4.16902E-5
23742.187500; 3.67413E-5
23748.046875; 4.40314E-5
23753.906250; 4.36407E-5
23759.765625; 4.01386E-5
23765.625000; 4.07047E-5
23771.484375; 3.87655E-5
23777.343750; 4.05462E-5
23783.203125; 4.03675E-5
23789.062500; 3.93764E-5
23794.921875; 4.25999E-5
23800.781250; 4.05673E-5
23806.640625; 3.96609E-5
23812.500000; 4.02357E-5
23818.359375; 3.89393E-5
23824.218750; 3.33351E-5
23830.078125; 3.48032E-5
23835.937500; 3.45043E-5
23841.796875; 3.75783E-5
23847.656250; 3.64427E-5
23853.515625; 3.74424E-5
23859.375000; 3.88886E-5
23865.234375; 3.89501E-5
23871.093750; 4.03807E-5
23876.953125; 3.99517E-5
23882.812500; 4.11768E-5
23888.671875; 4.00100E-5
23894.531250; 3.86209E-5
23900.390625; 3.68928E-5
23906.250000; 3.87450E-5
23912.109375; 3.65703E-5
23917.968750; 3.38708E-5
23923.828125; 3.82947E-5
23929.687500; 3.96256E-5
23935.546875; 3.97323E-5
23941.406250; 4.21414E-5
23947.265625; 4.02188E-5
23953.125000; 3.92198E-5
23958.984375; 3.98306E-5
23964.843750; 3.96427E-5
23970.703125; 3.48190E-5
23976.562500; 3.52557E-5
23982.421875; 3.47250E-5
23988.281250; 3.41439E-5
23994.140625; 3.58814E-5
