* Measurement data measured by REW V5.31.3
* Source: PCM: default, no input selected, 2, volume: no control
* Format: 8192-point spectrum using Hann window and exponential averaging 0.97 
* Dated: Mar 9, 2025 1:26:57 PM
* REW Settings:
*  C-weighting compensation: Off
*  Target level: 75.0 dB
* Note: OSDEHA MU-OUTPUT; 8192-point spectrum using Hann window and exponential averaging 0.97  Input RMS 31.63 V 31.63 VC, 31.63 VA 31.63 V 22 - 22k UNW 952.7 uV >22k Distortion at 1,000.0 Hz, -10.00 dBFS: Gain: 29.67 dB THD: 0.025 % based on 21 harmonics  [0..22800 Hz] HHD: 0.0012 %  [10 .. 22] N: 0.045 %  [0..22800 Hz] N+D: 10.17 mV A THD+N: 0.051 %  [0..22800 Hz] SNR: 67.0 dB ENOB: 12.8 bits 2nd harmonic 0.025 % 142 deg 3rd harmonic 0.0033 % -54 deg 4th harmonic 0.0023 % 145 deg 5th harmonic 0.00035 % -21 deg 6th harmonic 0.00034 % 20 deg 7th harmonic 0.00036 % -87 deg 8th harmonic 0.00033 % 146 deg 9th harmonic 0.00034 % 3 deg 
* Measurement: OSDEHA MU-OUT 31.6V
* Smoothing: None
* Frequency Step: 5.859375 Hz
* Start Frequency: 5.859375 Hz
*
* Freq(Hz); V(V)
5.859375; 2.32038E-4
11.718750; 2.57887E-4
17.578125; 2.19546E-4
23.437500; 1.85131E-4
29.296875; 1.67128E-4
35.156250; 1.74655E-4
41.015625; 1.72089E-4
46.875000; 3.28209E-4
52.734375; 3.49517E-4
58.593750; 1.79921E-4
64.453125; 1.66879E-4
70.312500; 1.52839E-4
76.171875; 1.60912E-4
82.031250; 1.75161E-4
87.890625; 2.09748E-4
93.750000; 5.79486E-3
99.609375; 1.29386E-2
105.468750; 7.20292E-3
111.328125; 2.42114E-4
117.187500; 1.57284E-4
123.046875; 1.53375E-4
128.906250; 1.46668E-4
134.765625; 1.33233E-4
140.625000; 1.47328E-4
146.484375; 1.62922E-4
152.343750; 1.69194E-4
158.203125; 1.53232E-4
164.062500; 1.43902E-4
169.921875; 1.42888E-4
175.781250; 1.37347E-4
181.640625; 1.40403E-4
187.500000; 1.43631E-4
193.359375; 5.64785E-4
199.218750; 1.37225E-3
205.078125; 8.61246E-4
210.937500; 1.44702E-4
216.796875; 1.35680E-4
222.656250; 1.35224E-4
228.515625; 1.40628E-4
234.375000; 1.37811E-4
240.234375; 1.37297E-4
246.093750; 1.43493E-4
251.953125; 1.38186E-4
257.812500; 1.39874E-4
263.671875; 1.39393E-4
269.531250; 1.20302E-4
275.390625; 1.26022E-4
281.250000; 1.31947E-4
287.109375; 1.40754E-4
292.968750; 1.64549E-4
298.828125; 3.01009E-4
304.687500; 2.26400E-4
310.546875; 1.28065E-4
316.406250; 1.22192E-4
322.265625; 1.13212E-4
328.125000; 1.14901E-4
333.984375; 1.17368E-4
339.843750; 1.10493E-4
345.703125; 1.18965E-4
351.562500; 1.33793E-4
357.421875; 1.25779E-4
363.281250; 1.21853E-4
369.140625; 1.33297E-4
375.000000; 1.26327E-4
380.859375; 1.19930E-4
386.718750; 1.19122E-4
392.578125; 1.36401E-4
398.437500; 2.60264E-4
404.296875; 2.28176E-4
410.156250; 1.34596E-4
416.015625; 1.15308E-4
421.875000; 1.22371E-4
427.734375; 1.24447E-4
433.593750; 1.19766E-4
439.453125; 1.23572E-4
445.312500; 1.37976E-4
451.171875; 1.44175E-4
457.031250; 1.24329E-4
462.890625; 1.22560E-4
468.750000; 1.17380E-4
474.609375; 1.13029E-4
480.468750; 1.21448E-4
486.328125; 1.16958E-4
492.187500; 1.08714E-4
498.046875; 1.34990E-4
503.906250; 1.32951E-4
509.765625; 1.21814E-4
515.625000; 1.24860E-4
521.484375; 1.21121E-4
527.343750; 1.06975E-4
533.203125; 1.18964E-4
539.062500; 1.09733E-4
544.921875; 1.07430E-4
550.781250; 1.04421E-4
556.640625; 1.21214E-4
562.500000; 1.20035E-4
568.359375; 1.20070E-4
574.218750; 1.31240E-4
580.078125; 1.30114E-4
585.937500; 1.25101E-4
591.796875; 1.15724E-4
597.656250; 1.33442E-4
603.515625; 1.36817E-4
609.375000; 1.52261E-4
615.234375; 1.20310E-4
621.093750; 1.24752E-4
626.953125; 1.13015E-4
632.812500; 1.20620E-4
638.671875; 1.13933E-4
644.531250; 1.18593E-4
650.390625; 1.33887E-4
656.250000; 1.23110E-4
662.109375; 1.29293E-4
667.968750; 1.21724E-4
673.828125; 1.22556E-4
679.687500; 1.13007E-4
685.546875; 1.41865E-4
691.406250; 1.35474E-4
697.265625; 1.52059E-4
703.125000; 1.33552E-4
708.984375; 1.30593E-4
714.843750; 1.41458E-4
720.703125; 1.45591E-4
726.562500; 1.53770E-4
732.421875; 1.38387E-4
738.281250; 1.49659E-4
744.140625; 1.59992E-4
750.000000; 1.63074E-4
755.859375; 1.52813E-4
761.718750; 1.60826E-4
767.578125; 1.88668E-4
773.437500; 1.87776E-4
779.296875; 1.91795E-4
785.156250; 2.05789E-4
791.015625; 2.44128E-4
796.875000; 2.22649E-4
802.734375; 2.58085E-4
808.593750; 2.87087E-4
814.453125; 2.91914E-4
820.312500; 3.23662E-4
826.171875; 3.31343E-4
832.031250; 4.08659E-4
837.890625; 4.20752E-4
843.750000; 4.73565E-4
849.609375; 5.25930E-4
855.468750; 5.95420E-4
861.328125; 6.73309E-4
867.187500; 7.62546E-4
873.046875; 8.63493E-4
878.906250; 9.93916E-4
884.765625; 1.15341E-3
890.625000; 1.35018E-3
896.484375; 1.59786E-3
902.343750; 1.88782E-3
908.203125; 2.28113E-3
914.062500; 2.76843E-3
919.921875; 3.44505E-3
925.781250; 4.32269E-3
931.640625; 5.53022E-3
937.500000; 7.25262E-3
943.359375; 9.76024E-3
949.218750; 1.35675E-2
955.078125; 1.96842E-2
960.937500; 3.01132E-2
966.796875; 4.94614E-2
972.656250; 8.99219E-2
978.515625; 1.91105E-1
984.375000; 5.35059E-1
990.234375; 2.94288E0
996.093750; 2.35431E1
1001.953125; 2.94288E1
1007.812500; 8.40823E0
1013.671875; 8.40840E-1
1019.531250; 2.58710E-1
1025.390625; 1.13178E-1
1031.250000; 5.95838E-2
1037.109375; 3.51947E-2
1042.968750; 2.25368E-2
1048.828125; 1.52852E-2
1054.687500; 1.08471E-2
1060.546875; 7.98550E-3
1066.406250; 6.02909E-3
1072.265625; 4.67931E-3
1078.125000; 3.71223E-3
1083.984375; 2.96776E-3
1089.843750; 2.43864E-3
1095.703125; 2.02228E-3
1101.562500; 1.65787E-3
1107.421875; 1.44454E-3
1113.281250; 1.20416E-3
1119.140625; 1.05623E-3
1125.000000; 8.98366E-4
1130.859375; 7.99375E-4
1136.718750; 6.90809E-4
1142.578125; 6.22321E-4
1148.437500; 5.49333E-4
1154.296875; 4.87642E-4
1160.156250; 4.46051E-4
1166.015625; 3.80532E-4
1171.875000; 3.70546E-4
1177.734375; 3.38568E-4
1183.593750; 3.06176E-4
1189.453125; 2.90204E-4
1195.312500; 2.72197E-4
1201.171875; 2.31962E-4
1207.031250; 2.27055E-4
1212.890625; 2.14054E-4
1218.750000; 2.07994E-4
1224.609375; 1.89353E-4
1230.468750; 1.77057E-4
1236.328125; 1.81783E-4
1242.187500; 1.65699E-4
1248.046875; 1.71594E-4
1253.906250; 1.49504E-4
1259.765625; 1.61321E-4
1265.625000; 1.41089E-4
1271.484375; 1.28815E-4
1277.343750; 1.39715E-4
1283.203125; 1.35043E-4
1289.062500; 1.48891E-4
1294.921875; 1.23563E-4
1300.781250; 1.19599E-4
1306.640625; 1.29844E-4
1312.500000; 1.32191E-4
1318.359375; 1.27941E-4
1324.218750; 1.21855E-4
1330.078125; 1.18065E-4
1335.937500; 1.08493E-4
1341.796875; 1.14118E-4
1347.656250; 1.21281E-4
1353.515625; 1.20360E-4
1359.375000; 1.12642E-4
1365.234375; 1.13764E-4
1371.093750; 1.19903E-4
1376.953125; 1.28644E-4
1382.812500; 1.09633E-4
1388.671875; 1.08686E-4
1394.531250; 1.14869E-4
1400.390625; 1.07926E-4
1406.250000; 1.17319E-4
1412.109375; 1.24898E-4
1417.968750; 1.14496E-4
1423.828125; 1.10485E-4
1429.687500; 1.07490E-4
1435.546875; 1.04433E-4
1441.406250; 1.03545E-4
1447.265625; 1.04757E-4
1453.125000; 1.09213E-4
1458.984375; 1.19137E-4
1464.843750; 1.10480E-4
1470.703125; 1.01911E-4
1476.562500; 1.03994E-4
1482.421875; 9.98301E-5
1488.281250; 1.08075E-4
1494.140625; 1.14474E-4
1500.000000; 1.09282E-4
1505.859375; 1.10564E-4
1511.718750; 1.08397E-4
1517.578125; 1.17959E-4
1523.437500; 1.13129E-4
1529.296875; 1.19812E-4
1535.156250; 1.19477E-4
1541.015625; 1.22331E-4
1546.875000; 1.33581E-4
1552.734375; 1.31556E-4
1558.593750; 1.10568E-4
1564.453125; 9.90233E-5
1570.312500; 9.98196E-5
1576.171875; 1.10101E-4
1582.031250; 1.10809E-4
1587.890625; 1.05355E-4
1593.750000; 1.07393E-4
1599.609375; 1.21818E-4
1605.468750; 1.19206E-4
1611.328125; 1.06052E-4
1617.187500; 1.08237E-4
1623.046875; 1.01450E-4
1628.906250; 1.02950E-4
1634.765625; 1.00198E-4
1640.625000; 1.08983E-4
1646.484375; 1.01005E-4
1652.343750; 9.78182E-5
1658.203125; 9.76981E-5
1664.062500; 1.04001E-4
1669.921875; 1.05412E-4
1675.781250; 1.10604E-4
1681.640625; 1.12920E-4
1687.500000; 1.09513E-4
1693.359375; 1.06484E-4
1699.218750; 1.00169E-4
1705.078125; 1.08730E-4
1710.937500; 1.07296E-4
1716.796875; 1.02715E-4
1722.656250; 1.13793E-4
1728.515625; 1.17571E-4
1734.375000; 1.09027E-4
1740.234375; 1.25094E-4
1746.093750; 1.16968E-4
1751.953125; 1.00475E-4
1757.812500; 1.00965E-4
1763.671875; 1.11311E-4
1769.531250; 1.12603E-4
1775.390625; 9.89529E-5
1781.250000; 1.12090E-4
1787.109375; 1.15504E-4
1792.968750; 1.15741E-4
1798.828125; 1.14401E-4
1804.687500; 1.15213E-4
1810.546875; 1.13987E-4
1816.406250; 1.03223E-4
1822.265625; 1.19809E-4
1828.125000; 1.15673E-4
1833.984375; 1.10580E-4
1839.843750; 1.06430E-4
1845.703125; 1.02140E-4
1851.562500; 9.76361E-5
1857.421875; 1.00411E-4
1863.281250; 1.06139E-4
1869.140625; 1.19577E-4
1875.000000; 1.21632E-4
1880.859375; 1.20771E-4
1886.718750; 1.02948E-4
1892.578125; 1.07908E-4
1898.437500; 1.07519E-4
1904.296875; 1.10155E-4
1910.156250; 1.10666E-4
1916.015625; 1.14659E-4
1921.875000; 1.11375E-4
1927.734375; 1.08971E-4
1933.593750; 1.06543E-4
1939.453125; 1.08398E-4
1945.312500; 1.15709E-4
1951.171875; 1.19434E-4
1957.031250; 1.11340E-4
1962.890625; 1.15008E-4
1968.750000; 1.25794E-4
1974.609375; 1.07575E-4
1980.468750; 1.32562E-4
1986.328125; 2.17411E-4
1992.187500; 2.12506E-3
1998.046875; 7.36160E-3
2003.906250; 5.88538E-3
2009.765625; 7.38330E-4
2015.625000; 1.79431E-4
2021.484375; 1.17855E-4
2027.343750; 1.11709E-4
2033.203125; 1.14286E-4
2039.062500; 1.17189E-4
2044.921875; 1.10753E-4
2050.781250; 1.21148E-4
2056.640625; 1.18905E-4
2062.500000; 1.10382E-4
2068.359375; 1.15319E-4
2074.218750; 1.14098E-4
2080.078125; 1.04040E-4
2085.937500; 1.00282E-4
2091.796875; 1.07162E-4
2097.656250; 1.07118E-4
2103.515625; 1.24152E-4
2109.375000; 1.23287E-4
2115.234375; 1.12762E-4
2121.093750; 9.97940E-5
2126.953125; 1.09670E-4
2132.812500; 1.15687E-4
2138.671875; 1.06146E-4
2144.531250; 1.05438E-4
2150.390625; 1.07331E-4
2156.250000; 1.08780E-4
2162.109375; 1.11749E-4
2167.968750; 1.16353E-4
2173.828125; 1.22337E-4
2179.687500; 1.08685E-4
2185.546875; 1.17160E-4
2191.406250; 1.13096E-4
2197.265625; 1.08746E-4
2203.125000; 1.08480E-4
2208.984375; 1.10943E-4
2214.843750; 1.01743E-4
2220.703125; 1.04157E-4
2226.562500; 9.88513E-5
2232.421875; 1.15608E-4
2238.281250; 1.12431E-4
2244.140625; 1.04967E-4
2250.000000; 1.04689E-4
2255.859375; 1.17930E-4
2261.718750; 1.15023E-4
2267.578125; 1.03442E-4
2273.437500; 1.09815E-4
2279.296875; 1.12847E-4
2285.156250; 1.16105E-4
2291.015625; 1.15064E-4
2296.875000; 1.06882E-4
2302.734375; 1.05652E-4
2308.593750; 9.57764E-5
2314.453125; 1.08626E-4
2320.312500; 1.09698E-4
2326.171875; 1.04537E-4
2332.031250; 1.04073E-4
2337.890625; 1.07801E-4
2343.750000; 1.18659E-4
2349.609375; 1.17235E-4
2355.468750; 1.09011E-4
2361.328125; 1.08274E-4
2367.187500; 1.10730E-4
2373.046875; 1.04811E-4
2378.906250; 1.13537E-4
2384.765625; 1.05965E-4
2390.625000; 1.06142E-4
2396.484375; 1.08586E-4
2402.343750; 1.11197E-4
2408.203125; 1.18748E-4
2414.062500; 1.12886E-4
2419.921875; 1.13653E-4
2425.781250; 1.10885E-4
2431.640625; 1.13456E-4
2437.500000; 1.12533E-4
2443.359375; 1.02114E-4
2449.218750; 1.02261E-4
2455.078125; 1.04875E-4
2460.937500; 1.06906E-4
2466.796875; 1.08970E-4
2472.656250; 1.11728E-4
2478.515625; 1.12623E-4
2484.375000; 1.17323E-4
2490.234375; 1.01396E-4
2496.093750; 1.01624E-4
2501.953125; 1.15449E-4
2507.812500; 1.17393E-4
2513.671875; 1.13418E-4
2519.531250; 1.07279E-4
2525.390625; 1.09385E-4
2531.250000; 1.05613E-4
2537.109375; 1.09733E-4
2542.968750; 1.20038E-4
2548.828125; 1.12154E-4
2554.687500; 1.12541E-4
2560.546875; 1.14409E-4
2566.406250; 1.09664E-4
2572.265625; 1.20675E-4
2578.125000; 1.13688E-4
2583.984375; 1.11360E-4
2589.843750; 1.02955E-4
2595.703125; 9.77164E-5
2601.562500; 9.92167E-5
2607.421875; 1.06273E-4
2613.281250; 1.16850E-4
2619.140625; 1.15077E-4
2625.000000; 1.05965E-4
2630.859375; 1.11020E-4
2636.718750; 1.08380E-4
2642.578125; 1.12581E-4
2648.437500; 1.02335E-4
2654.296875; 1.02066E-4
2660.156250; 1.03549E-4
2666.015625; 1.01061E-4
2671.875000; 1.09595E-4
2677.734375; 1.11077E-4
2683.593750; 1.14199E-4
2689.453125; 1.15168E-4
2695.312500; 1.09290E-4
2701.171875; 9.81179E-5
2707.031250; 1.05855E-4
2712.890625; 1.15675E-4
2718.750000; 1.11691E-4
2724.609375; 1.16031E-4
2730.468750; 1.11775E-4
2736.328125; 1.09793E-4
2742.187500; 1.22375E-4
2748.046875; 1.18575E-4
2753.906250; 1.15838E-4
2759.765625; 1.17238E-4
2765.625000; 1.15021E-4
2771.484375; 1.03909E-4
2777.343750; 1.06208E-4
2783.203125; 1.07329E-4
2789.062500; 1.03474E-4
2794.921875; 1.01855E-4
2800.781250; 9.48319E-5
2806.640625; 1.09957E-4
2812.500000; 1.07764E-4
2818.359375; 1.03216E-4
2824.218750; 1.03748E-4
2830.078125; 1.03192E-4
2835.937500; 1.11932E-4
2841.796875; 1.13321E-4
2847.656250; 1.08280E-4
2853.515625; 1.04309E-4
2859.375000; 1.11447E-4
2865.234375; 1.09787E-4
2871.093750; 1.11748E-4
2876.953125; 1.13193E-4
2882.812500; 1.01264E-4
2888.671875; 1.06640E-4
2894.531250; 1.12924E-4
2900.390625; 1.11475E-4
2906.250000; 9.98048E-5
2912.109375; 1.06648E-4
2917.968750; 1.18751E-4
2923.828125; 1.21263E-4
2929.687500; 1.18879E-4
2935.546875; 1.17739E-4
2941.406250; 1.08352E-4
2947.265625; 1.13053E-4
2953.125000; 1.14602E-4
2958.984375; 1.03402E-4
2964.843750; 1.06632E-4
2970.703125; 1.10842E-4
2976.562500; 1.13193E-4
2982.421875; 1.05548E-4
2988.281250; 1.08319E-4
2994.140625; 5.22405E-4
3000.000000; 1.04032E-3
3005.859375; 5.27531E-4
3011.718750; 1.03368E-4
3017.578125; 9.48192E-5
3023.437500; 1.01043E-4
3029.296875; 1.12727E-4
3035.156250; 1.09127E-4
3041.015625; 9.87233E-5
3046.875000; 1.07977E-4
3052.734375; 1.11627E-4
3058.593750; 1.05057E-4
3064.453125; 1.02818E-4
3070.312500; 9.83004E-5
3076.171875; 8.91805E-5
3082.031250; 1.01982E-4
3087.890625; 1.01986E-4
3093.750000; 1.16462E-4
3099.609375; 1.11592E-4
3105.468750; 1.00421E-4
3111.328125; 1.10361E-4
3117.187500; 1.07761E-4
3123.046875; 1.06476E-4
3128.906250; 1.06230E-4
3134.765625; 1.06287E-4
3140.625000; 1.10986E-4
3146.484375; 1.13951E-4
3152.343750; 1.06174E-4
3158.203125; 1.14722E-4
3164.062500; 1.14090E-4
3169.921875; 1.06688E-4
3175.781250; 1.06595E-4
3181.640625; 1.00963E-4
3187.500000; 1.08200E-4
3193.359375; 1.08848E-4
3199.218750; 1.05226E-4
3205.078125; 1.14447E-4
3210.937500; 1.19397E-4
3216.796875; 1.17542E-4
3222.656250; 1.16098E-4
3228.515625; 1.14677E-4
3234.375000; 1.12611E-4
3240.234375; 1.17945E-4
3246.093750; 1.20019E-4
3251.953125; 1.14981E-4
3257.812500; 1.11979E-4
3263.671875; 1.11091E-4
3269.531250; 1.04013E-4
3275.390625; 1.02299E-4
3281.250000; 1.08189E-4
3287.109375; 1.02270E-4
3292.968750; 1.06890E-4
3298.828125; 1.08920E-4
3304.687500; 1.10467E-4
3310.546875; 1.06559E-4
3316.406250; 1.07901E-4
3322.265625; 1.11839E-4
3328.125000; 1.12153E-4
3333.984375; 1.12147E-4
3339.843750; 1.21680E-4
3345.703125; 1.12372E-4
3351.562500; 1.14642E-4
3357.421875; 1.14672E-4
3363.281250; 1.04442E-4
3369.140625; 1.02812E-4
3375.000000; 1.06923E-4
3380.859375; 1.02317E-4
3386.718750; 9.42497E-5
3392.578125; 8.79696E-5
3398.437500; 1.02586E-4
3404.296875; 1.02624E-4
3410.156250; 1.01168E-4
3416.015625; 1.08135E-4
3421.875000; 1.05063E-4
3427.734375; 1.14000E-4
3433.593750; 1.04712E-4
3439.453125; 9.91854E-5
3445.312500; 1.01143E-4
3451.171875; 9.67598E-5
3457.031250; 9.93411E-5
3462.890625; 1.08716E-4
3468.750000; 1.04241E-4
3474.609375; 1.13304E-4
3480.468750; 1.25481E-4
3486.328125; 1.08776E-4
3492.187500; 1.18502E-4
3498.046875; 1.40208E-4
3503.906250; 1.20025E-4
3509.765625; 1.09935E-4
3515.625000; 1.06250E-4
3521.484375; 1.10759E-4
3527.343750; 1.12773E-4
3533.203125; 1.05061E-4
3539.062500; 1.06607E-4
3544.921875; 1.14639E-4
3550.781250; 1.02595E-4
3556.640625; 1.06109E-4
3562.500000; 9.77514E-5
3568.359375; 9.74740E-5
3574.218750; 1.01149E-4
3580.078125; 1.02097E-4
3585.937500; 1.04126E-4
3591.796875; 1.07554E-4
3597.656250; 1.03975E-4
3603.515625; 1.04651E-4
3609.375000; 1.06767E-4
3615.234375; 1.07106E-4
3621.093750; 1.07705E-4
3626.953125; 1.08701E-4
3632.812500; 1.04741E-4
3638.671875; 1.03319E-4
3644.531250; 9.79282E-5
3650.390625; 9.54653E-5
3656.250000; 1.12695E-4
3662.109375; 1.17404E-4
3667.968750; 1.09763E-4
3673.828125; 1.11570E-4
3679.687500; 1.09371E-4
3685.546875; 1.09137E-4
3691.406250; 1.12769E-4
3697.265625; 1.03541E-4
3703.125000; 1.00776E-4
3708.984375; 1.08972E-4
3714.843750; 1.06579E-4
3720.703125; 1.08178E-4
3726.562500; 1.06847E-4
3732.421875; 1.08060E-4
3738.281250; 1.08867E-4
3744.140625; 1.00547E-4
3750.000000; 1.05595E-4
3755.859375; 1.00866E-4
3761.718750; 1.20389E-4
3767.578125; 1.14422E-4
3773.437500; 1.00969E-4
3779.296875; 9.85408E-5
3785.156250; 9.71375E-5
3791.015625; 1.11884E-4
3796.875000; 1.02933E-4
3802.734375; 1.06232E-4
3808.593750; 1.15372E-4
3814.453125; 1.10612E-4
3820.312500; 1.06855E-4
3826.171875; 1.14343E-4
3832.031250; 1.12083E-4
3837.890625; 1.10010E-4
3843.750000; 1.08194E-4
3849.609375; 1.03879E-4
3855.468750; 1.09042E-4
3861.328125; 1.12943E-4
3867.187500; 1.19066E-4
3873.046875; 1.19470E-4
3878.906250; 1.13101E-4
3884.765625; 1.20814E-4
3890.625000; 1.17362E-4
3896.484375; 1.00445E-4
3902.343750; 1.01417E-4
3908.203125; 1.09334E-4
3914.062500; 1.01333E-4
3919.921875; 1.08101E-4
3925.781250; 1.05552E-4
3931.640625; 1.06637E-4
3937.500000; 1.15439E-4
3943.359375; 1.05462E-4
3949.218750; 1.04456E-4
3955.078125; 1.08483E-4
3960.937500; 9.75529E-5
3966.796875; 9.49359E-5
3972.656250; 1.03460E-4
3978.515625; 1.12694E-4
3984.375000; 1.15546E-4
3990.234375; 1.23274E-4
3996.093750; 5.23472E-4
4001.953125; 6.46852E-4
4007.812500; 2.13787E-4
4013.671875; 9.91905E-5
4019.531250; 1.00646E-4
4025.390625; 1.03449E-4
4031.250000; 1.02166E-4
4037.109375; 1.11176E-4
4042.968750; 1.11443E-4
4048.828125; 1.03741E-4
4054.687500; 1.15439E-4
4060.546875; 1.16322E-4
4066.406250; 1.11384E-4
4072.265625; 1.11973E-4
4078.125000; 1.16142E-4
4083.984375; 1.09249E-4
4089.843750; 1.18922E-4
4095.703125; 1.07778E-4
4101.562500; 1.01045E-4
4107.421875; 1.02766E-4
4113.281250; 1.02950E-4
4119.140625; 1.05749E-4
4125.000000; 9.69037E-5
4130.859375; 1.05825E-4
4136.718750; 1.11277E-4
4142.578125; 1.08936E-4
4148.437500; 1.12965E-4
4154.296875; 1.06557E-4
4160.156250; 1.08054E-4
4166.015625; 1.03662E-4
4171.875000; 1.02891E-4
4177.734375; 1.10430E-4
4183.593750; 1.02173E-4
4189.453125; 1.06786E-4
4195.312500; 1.10588E-4
4201.171875; 1.07324E-4
4207.031250; 1.09779E-4
4212.890625; 1.06009E-4
4218.750000; 9.63903E-5
4224.609375; 1.04675E-4
4230.468750; 1.10419E-4
4236.328125; 1.05499E-4
4242.187500; 1.14961E-4
4248.046875; 1.18375E-4
4253.906250; 1.04823E-4
4259.765625; 1.08578E-4
4265.625000; 1.13234E-4
4271.484375; 1.20715E-4
4277.343750; 1.04681E-4
4283.203125; 1.04564E-4
4289.062500; 1.01111E-4
4294.921875; 9.17664E-5
4300.781250; 1.02950E-4
4306.640625; 1.04310E-4
4312.500000; 9.94473E-5
4318.359375; 1.04246E-4
4324.218750; 9.84812E-5
4330.078125; 1.03099E-4
4335.937500; 9.57066E-5
4341.796875; 9.78450E-5
4347.656250; 1.11032E-4
4353.515625; 1.20931E-4
4359.375000; 1.13801E-4
4365.234375; 1.08740E-4
4371.093750; 1.09168E-4
4376.953125; 1.09673E-4
4382.812500; 1.08342E-4
4388.671875; 1.08799E-4
4394.531250; 1.00205E-4
4400.390625; 1.13053E-4
4406.250000; 1.12886E-4
4412.109375; 1.02399E-4
4417.968750; 1.01627E-4
4423.828125; 1.05027E-4
4429.687500; 1.01974E-4
4435.546875; 1.04672E-4
4441.406250; 1.04030E-4
4447.265625; 1.14256E-4
4453.125000; 1.14181E-4
4458.984375; 1.15352E-4
4464.843750; 1.07793E-4
4470.703125; 1.07208E-4
4476.562500; 1.09060E-4
4482.421875; 1.26745E-4
4488.281250; 1.21073E-4
4494.140625; 1.19460E-4
4500.000000; 1.01472E-4
4505.859375; 1.04407E-4
4511.718750; 1.11150E-4
4517.578125; 1.22584E-4
4523.437500; 1.09665E-4
4529.296875; 1.12266E-4
4535.156250; 1.03574E-4
4541.015625; 1.06763E-4
4546.875000; 1.06598E-4
4552.734375; 9.82898E-5
4558.593750; 9.64315E-5
4564.453125; 9.79964E-5
4570.312500; 1.04452E-4
4576.171875; 1.03488E-4
4582.031250; 9.46732E-5
4587.890625; 1.03465E-4
4593.750000; 1.13227E-4
4599.609375; 1.07652E-4
4605.468750; 1.04702E-4
4611.328125; 1.06049E-4
4617.187500; 1.21489E-4
4623.046875; 1.18179E-4
4628.906250; 1.09718E-4
4634.765625; 1.14848E-4
4640.625000; 1.09339E-4
4646.484375; 9.52033E-5
4652.343750; 1.02527E-4
4658.203125; 1.09290E-4
4664.062500; 1.18205E-4
4669.921875; 1.09919E-4
4675.781250; 1.08863E-4
4681.640625; 1.25987E-4
4687.500000; 1.15934E-4
4693.359375; 1.01173E-4
4699.218750; 1.10356E-4
4705.078125; 1.09086E-4
4710.937500; 1.07667E-4
4716.796875; 1.00974E-4
4722.656250; 9.55591E-5
4728.515625; 9.64962E-5
4734.375000; 1.11444E-4
4740.234375; 1.11814E-4
4746.093750; 1.09017E-4
4751.953125; 1.12271E-4
4757.812500; 1.06592E-4
4763.671875; 1.06183E-4
4769.531250; 1.04553E-4
4775.390625; 1.07387E-4
4781.250000; 1.11894E-4
4787.109375; 1.15431E-4
4792.968750; 1.15346E-4
4798.828125; 1.07174E-4
4804.687500; 1.05204E-4
4810.546875; 1.00392E-4
4816.406250; 1.05268E-4
4822.265625; 1.10412E-4
4828.125000; 1.02307E-4
4833.984375; 1.09331E-4
4839.843750; 1.02750E-4
4845.703125; 1.05990E-4
4851.562500; 1.19658E-4
4857.421875; 1.19330E-4
4863.281250; 1.00118E-4
4869.140625; 1.07540E-4
4875.000000; 1.18583E-4
4880.859375; 1.23691E-4
4886.718750; 1.26126E-4
4892.578125; 1.13963E-4
4898.437500; 1.08857E-4
4904.296875; 1.15739E-4
4910.156250; 1.03183E-4
4916.015625; 1.10157E-4
4921.875000; 1.05686E-4
4927.734375; 1.12295E-4
4933.593750; 1.08292E-4
4939.453125; 1.15008E-4
4945.312500; 1.18972E-4
4951.171875; 9.64061E-5
4957.031250; 9.21744E-5
4962.890625; 9.83510E-5
4968.750000; 1.06693E-4
4974.609375; 1.09729E-4
4980.468750; 1.03300E-4
4986.328125; 1.11906E-4
4992.187500; 1.17866E-4
4998.046875; 1.16066E-4
5003.906250; 1.08566E-4
5009.765625; 1.00209E-4
5015.625000; 1.04541E-4
5021.484375; 1.10479E-4
5027.343750; 1.09564E-4
5033.203125; 1.06732E-4
5039.062500; 1.03031E-4
5044.921875; 1.05726E-4
5050.781250; 9.99750E-5
5056.640625; 1.00475E-4
5062.500000; 1.01407E-4
5068.359375; 1.08450E-4
5074.218750; 1.15721E-4
5080.078125; 1.07334E-4
5085.937500; 1.01521E-4
5091.796875; 9.20720E-5
5097.656250; 9.84430E-5
5103.515625; 1.01839E-4
5109.375000; 1.08934E-4
5115.234375; 1.02873E-4
5121.093750; 1.02799E-4
5126.953125; 1.08848E-4
5132.812500; 1.14126E-4
5138.671875; 9.98925E-5
5144.531250; 1.01394E-4
5150.390625; 1.01169E-4
5156.250000; 1.00699E-4
5162.109375; 1.04846E-4
5167.968750; 1.09560E-4
5173.828125; 1.08094E-4
5179.687500; 1.14949E-4
5185.546875; 1.13955E-4
5191.406250; 1.17097E-4
5197.265625; 1.11028E-4
5203.125000; 1.02335E-4
5208.984375; 1.03777E-4
5214.843750; 1.22202E-4
5220.703125; 1.19172E-4
5226.562500; 1.09588E-4
5232.421875; 1.04561E-4
5238.281250; 1.03621E-4
5244.140625; 1.07597E-4
5250.000000; 1.15020E-4
5255.859375; 1.15285E-4
5261.718750; 1.19194E-4
5267.578125; 1.10555E-4
5273.437500; 1.03721E-4
5279.296875; 1.05483E-4
5285.156250; 1.05792E-4
5291.015625; 1.03399E-4
5296.875000; 1.11343E-4
5302.734375; 1.01906E-4
5308.593750; 9.71449E-5
5314.453125; 1.00954E-4
5320.312500; 1.00234E-4
5326.171875; 1.18566E-4
5332.031250; 1.18800E-4
5337.890625; 1.05380E-4
5343.750000; 9.87844E-5
5349.609375; 9.61780E-5
5355.468750; 1.11975E-4
5361.328125; 1.25561E-4
5367.187500; 1.20901E-4
5373.046875; 1.24216E-4
5378.906250; 1.14625E-4
5384.765625; 1.11627E-4
5390.625000; 1.13502E-4
5396.484375; 1.02381E-4
5402.343750; 1.04949E-4
5408.203125; 1.03601E-4
5414.062500; 1.17137E-4
5419.921875; 1.14246E-4
5425.781250; 9.56409E-5
5431.640625; 1.05933E-4
5437.500000; 1.13457E-4
5443.359375; 1.23962E-4
5449.218750; 1.18084E-4
5455.078125; 1.07761E-4
5460.937500; 1.13973E-4
5466.796875; 1.21317E-4
5472.656250; 1.08976E-4
5478.515625; 1.10160E-4
5484.375000; 1.04945E-4
5490.234375; 1.07613E-4
5496.093750; 1.23086E-4
5501.953125; 1.08253E-4
5507.812500; 1.07735E-4
5513.671875; 1.10796E-4
5519.531250; 1.13168E-4
5525.390625; 1.05252E-4
5531.250000; 1.13830E-4
5537.109375; 1.11130E-4
5542.968750; 1.03949E-4
5548.828125; 1.02235E-4
5554.687500; 1.02569E-4
5560.546875; 1.00303E-4
5566.406250; 1.00691E-4
5572.265625; 1.05239E-4
5578.125000; 1.10336E-4
5583.984375; 1.08936E-4
5589.843750; 1.03331E-4
5595.703125; 1.15809E-4
5601.562500; 1.18033E-4
5607.421875; 1.11420E-4
5613.281250; 1.13327E-4
5619.140625; 1.19642E-4
5625.000000; 1.26215E-4
5630.859375; 1.27524E-4
5636.718750; 1.08360E-4
5642.578125; 1.05879E-4
5648.437500; 1.05129E-4
5654.296875; 1.02648E-4
5660.156250; 1.06669E-4
5666.015625; 1.11859E-4
5671.875000; 1.15090E-4
5677.734375; 1.09901E-4
5683.593750; 1.16921E-4
5689.453125; 1.18936E-4
5695.312500; 9.94875E-5
5701.171875; 1.04346E-4
5707.031250; 1.06523E-4
5712.890625; 1.05608E-4
5718.750000; 1.10160E-4
5724.609375; 1.08311E-4
5730.468750; 1.08081E-4
5736.328125; 1.20972E-4
5742.187500; 1.10546E-4
5748.046875; 1.06307E-4
5753.906250; 1.08025E-4
5759.765625; 1.08813E-4
5765.625000; 1.07895E-4
5771.484375; 1.13894E-4
5777.343750; 1.15189E-4
5783.203125; 1.06721E-4
5789.062500; 1.09979E-4
5794.921875; 1.20048E-4
5800.781250; 1.07187E-4
5806.640625; 1.10505E-4
5812.500000; 1.15565E-4
5818.359375; 1.15020E-4
5824.218750; 1.06643E-4
5830.078125; 1.17181E-4
5835.937500; 1.16757E-4
5841.796875; 1.13010E-4
5847.656250; 1.09599E-4
5853.515625; 9.62432E-5
5859.375000; 1.02120E-4
5865.234375; 1.11050E-4
5871.093750; 1.07338E-4
5876.953125; 1.10938E-4
5882.812500; 1.12319E-4
5888.671875; 1.11700E-4
5894.531250; 1.00425E-4
5900.390625; 1.02535E-4
5906.250000; 1.06190E-4
5912.109375; 1.12248E-4
5917.968750; 1.11686E-4
5923.828125; 1.12708E-4
5929.687500; 1.10394E-4
5935.546875; 1.03356E-4
5941.406250; 1.09900E-4
5947.265625; 1.15127E-4
5953.125000; 1.11428E-4
5958.984375; 1.05606E-4
5964.843750; 1.06688E-4
5970.703125; 1.15423E-4
5976.562500; 1.02822E-4
5982.421875; 9.82175E-5
5988.281250; 1.09550E-4
5994.140625; 1.09836E-4
6000.000000; 1.14303E-4
6005.859375; 1.03134E-4
6011.718750; 1.03992E-4
6017.578125; 1.14959E-4
6023.437500; 1.15348E-4
6029.296875; 1.09816E-4
6035.156250; 1.08202E-4
6041.015625; 1.11998E-4
6046.875000; 1.06938E-4
6052.734375; 1.06994E-4
6058.593750; 1.10312E-4
6064.453125; 1.12912E-4
6070.312500; 1.18394E-4
6076.171875; 1.06305E-4
6082.031250; 1.05589E-4
6087.890625; 1.04691E-4
6093.750000; 1.07597E-4
6099.609375; 1.08317E-4
6105.468750; 1.02642E-4
6111.328125; 1.09934E-4
6117.187500; 1.13933E-4
6123.046875; 1.11395E-4
6128.906250; 1.04658E-4
6134.765625; 1.01979E-4
6140.625000; 1.09031E-4
6146.484375; 1.11795E-4
6152.343750; 1.04449E-4
6158.203125; 1.02338E-4
6164.062500; 1.11381E-4
6169.921875; 1.11274E-4
6175.781250; 1.11303E-4
6181.640625; 1.07339E-4
6187.500000; 1.00691E-4
6193.359375; 1.06597E-4
6199.218750; 1.14360E-4
6205.078125; 1.15629E-4
6210.937500; 1.15699E-4
6216.796875; 1.11871E-4
6222.656250; 1.12090E-4
6228.515625; 1.12133E-4
6234.375000; 1.10631E-4
6240.234375; 1.04012E-4
6246.093750; 1.02664E-4
6251.953125; 1.04393E-4
6257.812500; 1.08464E-4
6263.671875; 1.07102E-4
6269.531250; 1.02712E-4
6275.390625; 1.04409E-4
6281.250000; 1.12690E-4
6287.109375; 1.07784E-4
6292.968750; 1.08870E-4
6298.828125; 1.07602E-4
6304.687500; 1.09159E-4
6310.546875; 1.05252E-4
6316.406250; 1.08738E-4
6322.265625; 1.12248E-4
6328.125000; 1.10950E-4
6333.984375; 9.77959E-5
6339.843750; 1.05576E-4
6345.703125; 1.14912E-4
6351.562500; 1.18029E-4
6357.421875; 1.13665E-4
6363.281250; 1.08365E-4
6369.140625; 1.12797E-4
6375.000000; 1.08645E-4
6380.859375; 1.01277E-4
6386.718750; 9.93531E-5
6392.578125; 1.05497E-4
6398.437500; 1.00917E-4
6404.296875; 1.12129E-4
6410.156250; 1.21506E-4
6416.015625; 1.16943E-4
6421.875000; 1.20933E-4
6427.734375; 1.08435E-4
6433.593750; 1.06172E-4
6439.453125; 1.12649E-4
6445.312500; 1.12907E-4
6451.171875; 1.10345E-4
6457.031250; 1.12798E-4
6462.890625; 1.29857E-4
6468.750000; 1.11420E-4
6474.609375; 1.05027E-4
6480.468750; 1.09018E-4
6486.328125; 1.08488E-4
6492.187500; 1.13671E-4
6498.046875; 1.11000E-4
6503.906250; 1.09845E-4
6509.765625; 1.13606E-4
6515.625000; 1.10851E-4
6521.484375; 1.09562E-4
6527.343750; 1.05216E-4
6533.203125; 1.08437E-4
6539.062500; 1.11311E-4
6544.921875; 1.08910E-4
6550.781250; 9.44818E-5
6556.640625; 1.03559E-4
6562.500000; 1.06657E-4
6568.359375; 1.05995E-4
6574.218750; 1.04108E-4
6580.078125; 1.08659E-4
6585.937500; 1.12611E-4
6591.796875; 1.12186E-4
6597.656250; 1.11056E-4
6603.515625; 1.11316E-4
6609.375000; 1.17841E-4
6615.234375; 1.14404E-4
6621.093750; 1.29885E-4
6626.953125; 1.12531E-4
6632.812500; 1.03909E-4
6638.671875; 9.78591E-5
6644.531250; 9.79950E-5
6650.390625; 9.50473E-5
6656.250000; 1.06488E-4
6662.109375; 1.08719E-4
6667.968750; 1.09998E-4
6673.828125; 1.11139E-4
6679.687500; 1.03606E-4
6685.546875; 1.00540E-4
6691.406250; 1.02015E-4
6697.265625; 1.03638E-4
6703.125000; 1.05350E-4
6708.984375; 1.15310E-4
6714.843750; 1.11378E-4
6720.703125; 1.09708E-4
6726.562500; 1.02549E-4
6732.421875; 1.08145E-4
6738.281250; 1.06541E-4
6744.140625; 1.10544E-4
6750.000000; 1.08013E-4
6755.859375; 1.05519E-4
6761.718750; 1.01665E-4
6767.578125; 9.60439E-5
6773.437500; 9.79902E-5
6779.296875; 1.13771E-4
6785.156250; 1.13847E-4
6791.015625; 1.11122E-4
6796.875000; 1.12590E-4
6802.734375; 1.10411E-4
6808.593750; 1.04255E-4
6814.453125; 1.04305E-4
6820.312500; 1.01199E-4
6826.171875; 1.02041E-4
6832.031250; 1.13859E-4
6837.890625; 1.15425E-4
6843.750000; 1.18958E-4
6849.609375; 1.07690E-4
6855.468750; 9.97354E-5
6861.328125; 1.00609E-4
6867.187500; 9.43850E-5
6873.046875; 1.01832E-4
6878.906250; 9.83799E-5
6884.765625; 1.03692E-4
6890.625000; 1.19243E-4
6896.484375; 1.07283E-4
6902.343750; 1.06581E-4
6908.203125; 1.13313E-4
6914.062500; 1.09209E-4
6919.921875; 1.15529E-4
6925.781250; 1.14784E-4
6931.640625; 1.05091E-4
6937.500000; 1.15869E-4
6943.359375; 1.21817E-4
6949.218750; 1.04532E-4
6955.078125; 9.44867E-5
6960.937500; 9.66577E-5
6966.796875; 1.05870E-4
6972.656250; 1.02573E-4
6978.515625; 9.98747E-5
6984.375000; 1.02735E-4
6990.234375; 1.13511E-4
6996.093750; 1.34330E-4
7001.953125; 1.19500E-4
7007.812500; 1.02836E-4
7013.671875; 1.04480E-4
7019.531250; 1.06906E-4
7025.390625; 1.02920E-4
7031.250000; 1.06903E-4
7037.109375; 1.09336E-4
7042.968750; 1.06984E-4
7048.828125; 9.88748E-5
7054.687500; 9.46712E-5
7060.546875; 9.95917E-5
7066.406250; 1.00453E-4
7072.265625; 1.00714E-4
7078.125000; 1.00834E-4
7083.984375; 1.04261E-4
7089.843750; 1.10641E-4
7095.703125; 1.07381E-4
7101.562500; 1.03294E-4
7107.421875; 1.08090E-4
7113.281250; 1.02063E-4
7119.140625; 1.08130E-4
7125.000000; 1.18107E-4
7130.859375; 1.12843E-4
7136.718750; 1.03054E-4
7142.578125; 1.03727E-4
7148.437500; 1.04887E-4
7154.296875; 1.11457E-4
7160.156250; 1.14384E-4
7166.015625; 1.17649E-4
7171.875000; 1.18802E-4
7177.734375; 1.08275E-4
7183.593750; 1.14572E-4
7189.453125; 1.11027E-4
7195.312500; 9.30431E-5
7201.171875; 1.07887E-4
7207.031250; 1.15505E-4
7212.890625; 1.02891E-4
7218.750000; 9.51201E-5
7224.609375; 1.08800E-4
7230.468750; 1.13497E-4
7236.328125; 1.06703E-4
7242.187500; 1.03500E-4
7248.046875; 1.17401E-4
7253.906250; 1.18104E-4
7259.765625; 1.17389E-4
7265.625000; 1.00504E-4
7271.484375; 1.07124E-4
7277.343750; 1.00634E-4
7283.203125; 9.72225E-5
7289.062500; 1.02847E-4
7294.921875; 1.07582E-4
7300.781250; 1.15039E-4
7306.640625; 1.21259E-4
7312.500000; 1.27888E-4
7318.359375; 1.20749E-4
7324.218750; 1.03170E-4
7330.078125; 1.05045E-4
7335.937500; 1.09362E-4
7341.796875; 1.01972E-4
7347.656250; 1.04749E-4
7353.515625; 1.06042E-4
7359.375000; 1.20835E-4
7365.234375; 1.22050E-4
7371.093750; 1.00370E-4
7376.953125; 1.00742E-4
7382.812500; 1.03893E-4
7388.671875; 9.98089E-5
7394.531250; 1.02261E-4
7400.390625; 1.03707E-4
7406.250000; 1.13021E-4
7412.109375; 1.01995E-4
7417.968750; 1.06780E-4
7423.828125; 1.06790E-4
7429.687500; 1.03803E-4
7435.546875; 1.10373E-4
7441.406250; 1.04409E-4
7447.265625; 1.02745E-4
7453.125000; 1.05117E-4
7458.984375; 9.61107E-5
7464.843750; 9.91851E-5
7470.703125; 1.05979E-4
7476.562500; 1.09062E-4
7482.421875; 1.16539E-4
7488.281250; 1.04007E-4
7494.140625; 1.07560E-4
7500.000000; 9.78660E-5
7505.859375; 1.06891E-4
7511.718750; 1.05300E-4
7517.578125; 9.76939E-5
7523.437500; 1.06783E-4
7529.296875; 1.09213E-4
7535.156250; 1.04790E-4
7541.015625; 1.02659E-4
7546.875000; 1.01408E-4
7552.734375; 1.00470E-4
7558.593750; 1.08127E-4
7564.453125; 9.85668E-5
7570.312500; 1.08863E-4
7576.171875; 1.10608E-4
7582.031250; 1.03232E-4
7587.890625; 9.77474E-5
7593.750000; 1.10210E-4
7599.609375; 1.08989E-4
7605.468750; 1.01963E-4
7611.328125; 9.92738E-5
7617.187500; 1.03953E-4
7623.046875; 1.02960E-4
7628.906250; 1.03159E-4
7634.765625; 1.01747E-4
7640.625000; 1.05261E-4
7646.484375; 1.12532E-4
7652.343750; 1.19818E-4
7658.203125; 1.09191E-4
7664.062500; 1.06941E-4
7669.921875; 9.69888E-5
7675.781250; 1.00029E-4
7681.640625; 1.03889E-4
7687.500000; 1.03442E-4
7693.359375; 1.03673E-4
7699.218750; 9.24227E-5
7705.078125; 1.04037E-4
7710.937500; 1.13826E-4
7716.796875; 1.11161E-4
7722.656250; 1.08922E-4
7728.515625; 1.08547E-4
7734.375000; 1.09589E-4
7740.234375; 1.05713E-4
7746.093750; 1.10328E-4
7751.953125; 1.18399E-4
7757.812500; 1.20515E-4
7763.671875; 1.16177E-4
7769.531250; 1.06357E-4
7775.390625; 1.11145E-4
7781.250000; 1.28982E-4
7787.109375; 1.19569E-4
7792.968750; 1.06320E-4
7798.828125; 9.54511E-5
7804.687500; 1.06598E-4
7810.546875; 1.08518E-4
7816.406250; 1.00034E-4
7822.265625; 1.00028E-4
7828.125000; 1.03768E-4
7833.984375; 1.03719E-4
7839.843750; 9.95342E-5
7845.703125; 1.09814E-4
7851.562500; 1.14055E-4
7857.421875; 1.20099E-4
7863.281250; 1.06877E-4
7869.140625; 1.10469E-4
7875.000000; 1.08082E-4
7880.859375; 1.07779E-4
7886.718750; 1.06581E-4
7892.578125; 1.03993E-4
7898.437500; 1.10557E-4
7904.296875; 1.07314E-4
7910.156250; 1.02398E-4
7916.015625; 1.01203E-4
7921.875000; 9.93202E-5
7927.734375; 1.06472E-4
7933.593750; 1.21208E-4
7939.453125; 1.10140E-4
7945.312500; 9.35447E-5
7951.171875; 1.04319E-4
7957.031250; 1.04274E-4
7962.890625; 1.03556E-4
7968.750000; 1.06452E-4
7974.609375; 1.06416E-4
7980.468750; 9.91995E-5
7986.328125; 9.46575E-5
7992.187500; 1.03592E-4
7998.046875; 1.16496E-4
8003.906250; 1.14052E-4
8009.765625; 9.96151E-5
8015.625000; 9.66125E-5
8021.484375; 1.02778E-4
8027.343750; 9.63042E-5
8033.203125; 1.00842E-4
8039.062500; 1.08106E-4
8044.921875; 1.05730E-4
8050.781250; 1.14191E-4
8056.640625; 1.10199E-4
8062.500000; 1.03670E-4
8068.359375; 1.01616E-4
8074.218750; 1.03514E-4
8080.078125; 9.22523E-5
8085.937500; 1.00758E-4
8091.796875; 1.10790E-4
8097.656250; 1.20903E-4
8103.515625; 1.24086E-4
8109.375000; 1.14717E-4
8115.234375; 1.22437E-4
8121.093750; 1.03453E-4
8126.953125; 1.03568E-4
8132.812500; 1.08118E-4
8138.671875; 1.09028E-4
8144.531250; 1.04756E-4
8150.390625; 1.05320E-4
8156.250000; 1.04621E-4
8162.109375; 1.16916E-4
8167.968750; 1.09465E-4
8173.828125; 1.12405E-4
8179.687500; 1.20435E-4
8185.546875; 1.17938E-4
8191.406250; 1.05041E-4
8197.265625; 9.83980E-5
8203.125000; 1.11098E-4
8208.984375; 1.14545E-4
8214.843750; 1.14893E-4
8220.703125; 1.09409E-4
8226.562500; 1.06374E-4
8232.421875; 1.09061E-4
8238.281250; 1.11352E-4
8244.140625; 1.13252E-4
8250.000000; 9.07988E-5
8255.859375; 1.10680E-4
8261.718750; 1.19206E-4
8267.578125; 1.19927E-4
8273.437500; 1.12213E-4
8279.296875; 1.02868E-4
8285.156250; 1.00969E-4
8291.015625; 1.00117E-4
8296.875000; 9.99735E-5
8302.734375; 1.04071E-4
8308.593750; 1.04475E-4
8314.453125; 9.93115E-5
8320.312500; 1.00034E-4
8326.171875; 1.07793E-4
8332.031250; 1.11677E-4
8337.890625; 1.11638E-4
8343.750000; 1.00201E-4
8349.609375; 9.55357E-5
8355.468750; 1.02085E-4
8361.328125; 1.06735E-4
8367.187500; 1.06890E-4
8373.046875; 1.11346E-4
8378.906250; 1.00485E-4
8384.765625; 1.07328E-4
8390.625000; 1.15714E-4
8396.484375; 1.12131E-4
8402.343750; 1.14653E-4
8408.203125; 1.03038E-4
8414.062500; 1.05658E-4
8419.921875; 1.15304E-4
8425.781250; 1.11094E-4
8431.640625; 9.92771E-5
8437.500000; 1.10107E-4
8443.359375; 1.07807E-4
8449.218750; 1.02621E-4
8455.078125; 1.12607E-4
8460.937500; 1.13473E-4
8466.796875; 1.14863E-4
8472.656250; 1.29822E-4
8478.515625; 1.28815E-4
8484.375000; 1.10487E-4
8490.234375; 1.02665E-4
8496.093750; 1.05624E-4
8501.953125; 9.53137E-5
8507.812500; 1.02931E-4
8513.671875; 1.06238E-4
8519.531250; 1.02303E-4
8525.390625; 1.07577E-4
8531.250000; 1.07367E-4
8537.109375; 1.15217E-4
8542.968750; 1.14384E-4
8548.828125; 1.10204E-4
8554.687500; 9.86184E-5
8560.546875; 1.03933E-4
8566.406250; 1.10085E-4
8572.265625; 1.15598E-4
8578.125000; 1.09168E-4
8583.984375; 1.01952E-4
8589.843750; 1.16603E-4
8595.703125; 1.20504E-4
8601.562500; 1.05646E-4
8607.421875; 1.04503E-4
8613.281250; 1.22937E-4
8619.140625; 1.25943E-4
8625.000000; 1.21404E-4
8630.859375; 1.11486E-4
8636.718750; 1.03620E-4
8642.578125; 1.06875E-4
8648.437500; 9.63609E-5
8654.296875; 9.24363E-5
8660.156250; 1.07856E-4
8666.015625; 1.08119E-4
8671.875000; 9.06576E-5
8677.734375; 1.00102E-4
8683.593750; 1.03768E-4
8689.453125; 1.02811E-4
8695.312500; 1.11787E-4
8701.171875; 1.01058E-4
8707.031250; 9.80627E-5
8712.890625; 1.00257E-4
8718.750000; 1.09938E-4
8724.609375; 9.99662E-5
8730.468750; 1.01484E-4
8736.328125; 1.09845E-4
8742.187500; 1.05834E-4
8748.046875; 1.16036E-4
8753.906250; 1.12112E-4
8759.765625; 1.02663E-4
8765.625000; 1.08868E-4
8771.484375; 1.09530E-4
8777.343750; 1.04028E-4
8783.203125; 1.13026E-4
8789.062500; 1.03779E-4
8794.921875; 1.02624E-4
8800.781250; 1.09328E-4
8806.640625; 1.12517E-4
8812.500000; 1.06046E-4
8818.359375; 1.06175E-4
8824.218750; 9.90211E-5
8830.078125; 1.00112E-4
8835.937500; 1.14058E-4
8841.796875; 1.10195E-4
8847.656250; 1.03906E-4
8853.515625; 1.04518E-4
8859.375000; 1.07322E-4
8865.234375; 1.15685E-4
8871.093750; 1.14729E-4
8876.953125; 1.15959E-4
8882.812500; 1.20229E-4
8888.671875; 1.13340E-4
8894.531250; 1.12122E-4
8900.390625; 1.07409E-4
8906.250000; 1.07861E-4
8912.109375; 1.08794E-4
8917.968750; 1.08824E-4
8923.828125; 1.03062E-4
8929.687500; 1.07513E-4
8935.546875; 1.12227E-4
8941.406250; 1.18426E-4
8947.265625; 1.25804E-4
8953.125000; 1.16764E-4
8958.984375; 1.02812E-4
8964.843750; 1.09285E-4
8970.703125; 1.10330E-4
8976.562500; 1.14394E-4
8982.421875; 1.10920E-4
8988.281250; 9.78750E-5
8994.140625; 9.60413E-5
9000.000000; 1.16563E-4
9005.859375; 1.11131E-4
9011.718750; 1.04839E-4
9017.578125; 1.09607E-4
9023.437500; 1.08389E-4
9029.296875; 1.09152E-4
9035.156250; 1.10040E-4
9041.015625; 1.08002E-4
9046.875000; 1.23083E-4
9052.734375; 1.15137E-4
9058.593750; 9.59760E-5
9064.453125; 1.03388E-4
9070.312500; 1.09353E-4
9076.171875; 1.09780E-4
9082.031250; 1.11040E-4
9087.890625; 1.02247E-4
9093.750000; 1.03534E-4
9099.609375; 9.77058E-5
9105.468750; 1.02770E-4
9111.328125; 1.01118E-4
9117.187500; 1.09252E-4
9123.046875; 1.15378E-4
9128.906250; 1.08999E-4
9134.765625; 1.08701E-4
9140.625000; 1.15879E-4
9146.484375; 1.04514E-4
9152.343750; 9.63211E-5
9158.203125; 1.07255E-4
9164.062500; 1.12732E-4
9169.921875; 1.02725E-4
9175.781250; 9.93787E-5
9181.640625; 1.06645E-4
9187.500000; 1.04778E-4
9193.359375; 1.11275E-4
9199.218750; 1.11225E-4
9205.078125; 1.12700E-4
9210.937500; 1.15414E-4
9216.796875; 1.04984E-4
9222.656250; 1.03943E-4
9228.515625; 9.92074E-5
9234.375000; 1.08220E-4
9240.234375; 9.52043E-5
9246.093750; 1.03036E-4
9251.953125; 1.09730E-4
9257.812500; 1.09894E-4
9263.671875; 1.11131E-4
9269.531250; 1.16121E-4
9275.390625; 1.13484E-4
9281.250000; 1.09073E-4
9287.109375; 1.01944E-4
9292.968750; 1.01283E-4
9298.828125; 1.05166E-4
9304.687500; 1.15058E-4
9310.546875; 1.04285E-4
9316.406250; 1.05910E-4
9322.265625; 1.25366E-4
9328.125000; 1.22289E-4
9333.984375; 1.14214E-4
9339.843750; 1.18157E-4
9345.703125; 1.16038E-4
9351.562500; 1.09450E-4
9357.421875; 9.34706E-5
9363.281250; 9.55258E-5
9369.140625; 1.08216E-4
9375.000000; 1.04235E-4
9380.859375; 1.16858E-4
9386.718750; 1.11601E-4
9392.578125; 1.02115E-4
9398.437500; 9.80789E-5
9404.296875; 9.84842E-5
9410.156250; 1.11213E-4
9416.015625; 1.05399E-4
9421.875000; 9.68691E-5
9427.734375; 9.79842E-5
9433.593750; 1.03581E-4
9439.453125; 1.11163E-4
9445.312500; 1.06707E-4
9451.171875; 1.08837E-4
9457.031250; 1.14489E-4
9462.890625; 1.10651E-4
9468.750000; 1.07016E-4
9474.609375; 1.08943E-4
9480.468750; 1.05243E-4
9486.328125; 1.05167E-4
9492.187500; 1.09634E-4
9498.046875; 1.18441E-4
9503.906250; 1.22710E-4
9509.765625; 1.09983E-4
9515.625000; 1.02393E-4
9521.484375; 1.05128E-4
9527.343750; 1.14690E-4
9533.203125; 1.02945E-4
9539.062500; 9.60557E-5
9544.921875; 1.05456E-4
9550.781250; 1.10955E-4
9556.640625; 1.04647E-4
9562.500000; 1.09202E-4
9568.359375; 1.09634E-4
9574.218750; 1.07621E-4
9580.078125; 1.08110E-4
9585.937500; 1.14329E-4
9591.796875; 1.08369E-4
9597.656250; 1.01312E-4
9603.515625; 1.00170E-4
9609.375000; 1.16436E-4
9615.234375; 1.07206E-4
9621.093750; 1.03044E-4
9626.953125; 1.00706E-4
9632.812500; 1.10640E-4
9638.671875; 1.12432E-4
9644.531250; 9.99620E-5
9650.390625; 9.70574E-5
9656.250000; 1.05006E-4
9662.109375; 1.17572E-4
9667.968750; 1.06866E-4
9673.828125; 1.02331E-4
9679.687500; 9.94022E-5
9685.546875; 1.09006E-4
9691.406250; 1.14168E-4
9697.265625; 1.15033E-4
9703.125000; 1.14753E-4
9708.984375; 1.14084E-4
9714.843750; 1.10970E-4
9720.703125; 1.03746E-4
9726.562500; 1.05977E-4
9732.421875; 1.16621E-4
9738.281250; 1.16278E-4
9744.140625; 1.01290E-4
9750.000000; 1.03345E-4
9755.859375; 9.58505E-5
9761.718750; 9.53242E-5
9767.578125; 1.02470E-4
9773.437500; 1.14109E-4
9779.296875; 1.00465E-4
9785.156250; 9.97921E-5
9791.015625; 1.19889E-4
9796.875000; 1.08026E-4
9802.734375; 1.05317E-4
9808.593750; 1.02501E-4
9814.453125; 1.03151E-4
9820.312500; 1.05289E-4
9826.171875; 9.61136E-5
9832.031250; 9.25152E-5
9837.890625; 1.03024E-4
9843.750000; 1.12758E-4
9849.609375; 1.05599E-4
9855.468750; 1.00802E-4
9861.328125; 1.01789E-4
9867.187500; 1.07846E-4
9873.046875; 1.17388E-4
9878.906250; 1.08568E-4
9884.765625; 9.83503E-5
9890.625000; 1.03664E-4
9896.484375; 1.05403E-4
9902.343750; 1.08374E-4
9908.203125; 9.79367E-5
9914.062500; 9.71118E-5
9919.921875; 1.09895E-4
9925.781250; 1.08261E-4
9931.640625; 1.12517E-4
9937.500000; 1.05676E-4
9943.359375; 1.15793E-4
9949.218750; 1.09185E-4
9955.078125; 1.04783E-4
9960.937500; 1.00588E-4
9966.796875; 9.98307E-5
9972.656250; 1.00589E-4
9978.515625; 1.09536E-4
9984.375000; 1.20188E-4
9990.234375; 1.20175E-4
9996.093750; 1.08589E-4
10001.953125; 1.23626E-4
10007.812500; 1.11724E-4
10013.671875; 1.04181E-4
10019.531250; 1.11091E-4
10025.390625; 1.04961E-4
10031.250000; 1.07789E-4
10037.109375; 1.13820E-4
10042.968750; 1.10108E-4
10048.828125; 1.18046E-4
10054.687500; 1.12012E-4
10060.546875; 1.09796E-4
10066.406250; 1.06373E-4
10072.265625; 1.03765E-4
10078.125000; 1.05092E-4
10083.984375; 1.05575E-4
10089.843750; 1.04032E-4
10095.703125; 1.07241E-4
10101.562500; 1.06227E-4
10107.421875; 9.88078E-5
10113.281250; 9.76647E-5
10119.140625; 1.05140E-4
10125.000000; 1.00078E-4
10130.859375; 1.11439E-4
10136.718750; 1.22980E-4
10142.578125; 1.08457E-4
10148.437500; 1.08120E-4
10154.296875; 1.11814E-4
10160.156250; 1.19090E-4
10166.015625; 1.09604E-4
10171.875000; 1.04282E-4
10177.734375; 1.14036E-4
10183.593750; 1.09827E-4
10189.453125; 1.05348E-4
10195.312500; 1.10268E-4
10201.171875; 1.07079E-4
10207.031250; 1.08878E-4
10212.890625; 1.04928E-4
10218.750000; 9.84336E-5
10224.609375; 9.90124E-5
10230.468750; 9.92406E-5
10236.328125; 1.05044E-4
10242.187500; 1.07999E-4
10248.046875; 1.18343E-4
10253.906250; 1.07498E-4
10259.765625; 1.01629E-4
10265.625000; 1.01757E-4
10271.484375; 9.81254E-5
10277.343750; 9.70142E-5
10283.203125; 9.65978E-5
10289.062500; 1.03505E-4
10294.921875; 1.08177E-4
10300.781250; 1.05993E-4
10306.640625; 1.08540E-4
10312.500000; 1.04861E-4
10318.359375; 1.09619E-4
10324.218750; 1.17214E-4
10330.078125; 1.03933E-4
10335.937500; 9.23045E-5
10341.796875; 1.05691E-4
10347.656250; 1.13125E-4
10353.515625; 9.79846E-5
10359.375000; 1.00940E-4
10365.234375; 1.06997E-4
10371.093750; 1.04739E-4
10376.953125; 1.02272E-4
10382.812500; 1.11502E-4
10388.671875; 1.10940E-4
10394.531250; 1.05093E-4
10400.390625; 1.01204E-4
10406.250000; 1.06671E-4
10412.109375; 1.07936E-4
10417.968750; 1.06357E-4
10423.828125; 1.03046E-4
10429.687500; 1.04782E-4
10435.546875; 1.09384E-4
10441.406250; 1.11917E-4
10447.265625; 1.13369E-4
10453.125000; 9.84666E-5
10458.984375; 9.51493E-5
10464.843750; 9.89085E-5
10470.703125; 9.77909E-5
10476.562500; 9.66271E-5
10482.421875; 1.09400E-4
10488.281250; 1.14893E-4
10494.140625; 1.09991E-4
10500.000000; 1.18144E-4
10505.859375; 1.07486E-4
10511.718750; 1.02060E-4
10517.578125; 1.17873E-4
10523.437500; 1.08363E-4
10529.296875; 1.05742E-4
10535.156250; 1.13161E-4
10541.015625; 1.05947E-4
10546.875000; 9.61991E-5
10552.734375; 1.05999E-4
10558.593750; 1.20766E-4
10564.453125; 1.15339E-4
10570.312500; 1.19303E-4
10576.171875; 1.12779E-4
10582.031250; 1.09730E-4
10587.890625; 1.05022E-4
10593.750000; 9.90220E-5
10599.609375; 9.52365E-5
10605.468750; 9.84105E-5
10611.328125; 1.02440E-4
10617.187500; 9.88846E-5
10623.046875; 1.00902E-4
10628.906250; 1.10528E-4
10634.765625; 1.02465E-4
10640.625000; 9.97368E-5
10646.484375; 1.02120E-4
10652.343750; 1.12871E-4
10658.203125; 1.22898E-4
10664.062500; 1.15509E-4
10669.921875; 1.05986E-4
10675.781250; 1.01550E-4
10681.640625; 1.08915E-4
10687.500000; 1.11129E-4
10693.359375; 9.84286E-5
10699.218750; 1.09534E-4
10705.078125; 1.12489E-4
10710.937500; 9.99775E-5
10716.796875; 1.05669E-4
10722.656250; 9.93420E-5
10728.515625; 1.04889E-4
10734.375000; 1.13299E-4
10740.234375; 1.11933E-4
10746.093750; 1.05658E-4
10751.953125; 1.03347E-4
10757.812500; 1.05325E-4
10763.671875; 1.15172E-4
10769.531250; 1.05306E-4
10775.390625; 9.43213E-5
10781.250000; 1.00050E-4
10787.109375; 1.00175E-4
10792.968750; 1.02988E-4
10798.828125; 1.01283E-4
10804.687500; 1.06082E-4
10810.546875; 1.02042E-4
10816.406250; 1.09042E-4
10822.265625; 1.12246E-4
10828.125000; 1.02289E-4
10833.984375; 1.08376E-4
10839.843750; 1.05115E-4
10845.703125; 1.17795E-4
10851.562500; 1.06351E-4
10857.421875; 9.74658E-5
10863.281250; 9.68002E-5
10869.140625; 1.07880E-4
10875.000000; 1.14971E-4
10880.859375; 1.09994E-4
10886.718750; 1.10389E-4
10892.578125; 1.18313E-4
10898.437500; 1.07115E-4
10904.296875; 1.01940E-4
10910.156250; 1.06475E-4
10916.015625; 1.11038E-4
10921.875000; 1.01167E-4
10927.734375; 1.04852E-4
10933.593750; 1.12121E-4
10939.453125; 1.12268E-4
10945.312500; 9.96931E-5
10951.171875; 1.08031E-4
10957.031250; 1.13134E-4
10962.890625; 1.01934E-4
10968.750000; 1.14837E-4
10974.609375; 1.11939E-4
10980.468750; 1.03210E-4
10986.328125; 1.10563E-4
10992.187500; 1.01667E-4
10998.046875; 1.03949E-4
11003.906250; 1.05400E-4
11009.765625; 9.93111E-5
11015.625000; 9.70558E-5
11021.484375; 9.28660E-5
11027.343750; 9.69160E-5
11033.203125; 1.06736E-4
11039.062500; 1.05153E-4
11044.921875; 1.09533E-4
11050.781250; 1.23223E-4
11056.640625; 1.27821E-4
11062.500000; 1.19133E-4
11068.359375; 1.10149E-4
11074.218750; 1.04310E-4
11080.078125; 1.05611E-4
11085.937500; 1.05616E-4
11091.796875; 1.07649E-4
11097.656250; 9.61495E-5
11103.515625; 9.70945E-5
11109.375000; 1.02883E-4
11115.234375; 1.10703E-4
11121.093750; 1.10836E-4
11126.953125; 1.04784E-4
11132.812500; 1.00318E-4
11138.671875; 1.04785E-4
11144.531250; 1.00161E-4
11150.390625; 1.10927E-4
11156.250000; 1.17556E-4
11162.109375; 1.06967E-4
11167.968750; 1.11578E-4
11173.828125; 1.13999E-4
11179.687500; 1.05972E-4
11185.546875; 1.07092E-4
11191.406250; 1.01378E-4
11197.265625; 9.96237E-5
11203.125000; 1.06542E-4
11208.984375; 1.00671E-4
11214.843750; 1.11981E-4
11220.703125; 1.11840E-4
11226.562500; 1.16733E-4
11232.421875; 9.95704E-5
11238.281250; 1.06565E-4
11244.140625; 1.16945E-4
11250.000000; 1.17363E-4
11255.859375; 1.15104E-4
11261.718750; 1.14025E-4
11267.578125; 1.07444E-4
11273.437500; 1.02833E-4
11279.296875; 1.02765E-4
11285.156250; 1.07977E-4
11291.015625; 1.15677E-4
11296.875000; 1.12950E-4
11302.734375; 1.06348E-4
11308.593750; 1.15142E-4
11314.453125; 1.15028E-4
11320.312500; 1.02346E-4
11326.171875; 1.07146E-4
11332.031250; 1.16469E-4
11337.890625; 1.09619E-4
11343.750000; 1.03558E-4
11349.609375; 9.70681E-5
11355.468750; 8.30801E-5
11361.328125; 1.08582E-4
11367.187500; 1.13313E-4
11373.046875; 1.05362E-4
11378.906250; 1.09421E-4
11384.765625; 1.15448E-4
11390.625000; 1.14237E-4
11396.484375; 1.14492E-4
11402.343750; 1.09577E-4
11408.203125; 1.03882E-4
11414.062500; 1.08722E-4
11419.921875; 1.09486E-4
11425.781250; 1.13611E-4
11431.640625; 1.15961E-4
11437.500000; 1.09985E-4
11443.359375; 1.08779E-4
11449.218750; 1.06261E-4
11455.078125; 1.06332E-4
11460.937500; 1.06050E-4
11466.796875; 1.14778E-4
11472.656250; 9.57079E-5
11478.515625; 1.05524E-4
11484.375000; 1.04213E-4
11490.234375; 8.84978E-5
11496.093750; 9.63537E-5
11501.953125; 1.08594E-4
11507.812500; 1.07525E-4
11513.671875; 1.11599E-4
11519.531250; 1.10884E-4
11525.390625; 9.91134E-5
11531.250000; 9.63798E-5
11537.109375; 9.62404E-5
11542.968750; 1.01041E-4
11548.828125; 1.05821E-4
11554.687500; 1.08735E-4
11560.546875; 1.04724E-4
11566.406250; 1.02901E-4
11572.265625; 1.10701E-4
11578.125000; 1.14089E-4
11583.984375; 1.10809E-4
11589.843750; 1.14868E-4
11595.703125; 1.08465E-4
11601.562500; 1.06148E-4
11607.421875; 9.64098E-5
11613.281250; 1.04966E-4
11619.140625; 1.12162E-4
11625.000000; 9.74763E-5
11630.859375; 8.81722E-5
11636.718750; 1.03550E-4
11642.578125; 1.14889E-4
11648.437500; 1.14550E-4
11654.296875; 1.07458E-4
11660.156250; 1.13219E-4
11666.015625; 1.11322E-4
11671.875000; 1.11601E-4
11677.734375; 1.03118E-4
11683.593750; 1.11177E-4
11689.453125; 1.03347E-4
11695.312500; 1.05009E-4
11701.171875; 1.03092E-4
11707.031250; 1.03524E-4
11712.890625; 1.10046E-4
11718.750000; 1.04761E-4
11724.609375; 9.95606E-5
11730.468750; 1.00157E-4
11736.328125; 1.01548E-4
11742.187500; 1.04067E-4
11748.046875; 9.70170E-5
11753.906250; 9.54331E-5
11759.765625; 1.07562E-4
11765.625000; 1.05599E-4
11771.484375; 9.54755E-5
11777.343750; 1.04412E-4
11783.203125; 1.01737E-4
11789.062500; 1.05179E-4
11794.921875; 1.11591E-4
11800.781250; 1.22255E-4
11806.640625; 1.17136E-4
11812.500000; 1.09858E-4
11818.359375; 1.07722E-4
11824.218750; 1.13598E-4
11830.078125; 1.11906E-4
11835.937500; 1.07264E-4
11841.796875; 1.14798E-4
11847.656250; 1.07837E-4
11853.515625; 1.10657E-4
11859.375000; 1.08225E-4
11865.234375; 9.99406E-5
11871.093750; 1.09123E-4
11876.953125; 1.06890E-4
11882.812500; 1.12722E-4
11888.671875; 1.19788E-4
11894.531250; 1.17998E-4
11900.390625; 1.16222E-4
11906.250000; 1.17623E-4
11912.109375; 1.02535E-4
11917.968750; 9.95422E-5
11923.828125; 1.01495E-4
11929.687500; 1.12876E-4
11935.546875; 1.12857E-4
11941.406250; 1.22734E-4
11947.265625; 1.18345E-4
11953.125000; 1.03115E-4
11958.984375; 1.04186E-4
11964.843750; 1.09704E-4
11970.703125; 1.01531E-4
11976.562500; 1.04963E-4
11982.421875; 1.04514E-4
11988.281250; 1.08528E-4
11994.140625; 1.16573E-4
12000.000000; 1.27187E-4
12005.859375; 1.08623E-4
12011.718750; 9.69289E-5
12017.578125; 1.03333E-4
12023.437500; 9.49962E-5
12029.296875; 1.10580E-4
12035.156250; 1.17564E-4
12041.015625; 1.08637E-4
12046.875000; 1.14736E-4
12052.734375; 1.12203E-4
12058.593750; 9.76664E-5
12064.453125; 1.01260E-4
12070.312500; 9.50056E-5
12076.171875; 1.01290E-4
12082.031250; 1.06360E-4
12087.890625; 1.01048E-4
12093.750000; 9.89719E-5
12099.609375; 9.89007E-5
12105.468750; 1.12432E-4
12111.328125; 1.13681E-4
12117.187500; 1.07102E-4
12123.046875; 1.06440E-4
12128.906250; 1.10072E-4
12134.765625; 1.06473E-4
12140.625000; 1.09002E-4
12146.484375; 1.12345E-4
12152.343750; 1.17632E-4
12158.203125; 1.16778E-4
12164.062500; 1.11226E-4
12169.921875; 9.10860E-5
12175.781250; 1.07675E-4
12181.640625; 1.10204E-4
12187.500000; 1.02626E-4
12193.359375; 9.70957E-5
12199.218750; 1.01796E-4
12205.078125; 1.02796E-4
12210.937500; 1.05225E-4
12216.796875; 1.00723E-4
12222.656250; 9.80694E-5
12228.515625; 1.05171E-4
12234.375000; 1.13770E-4
12240.234375; 1.09641E-4
12246.093750; 9.98327E-5
12251.953125; 1.01240E-4
12257.812500; 1.03329E-4
12263.671875; 1.07595E-4
12269.531250; 9.52582E-5
12275.390625; 9.92271E-5
12281.250000; 1.14543E-4
12287.109375; 1.13026E-4
12292.968750; 9.84445E-5
12298.828125; 1.06542E-4
12304.687500; 1.08410E-4
12310.546875; 1.08439E-4
12316.406250; 1.10935E-4
12322.265625; 1.08088E-4
12328.125000; 1.02323E-4
12333.984375; 9.60814E-5
12339.843750; 1.02398E-4
12345.703125; 1.04679E-4
12351.562500; 1.05177E-4
12357.421875; 1.18055E-4
12363.281250; 1.14750E-4
12369.140625; 9.68597E-5
12375.000000; 9.98522E-5
12380.859375; 1.03746E-4
12386.718750; 1.09034E-4
12392.578125; 1.07706E-4
12398.437500; 1.01787E-4
12404.296875; 1.04183E-4
12410.156250; 9.84691E-5
12416.015625; 1.00634E-4
12421.875000; 1.06329E-4
12427.734375; 1.13817E-4
12433.593750; 1.13946E-4
12439.453125; 1.04564E-4
12445.312500; 1.05208E-4
12451.171875; 1.08110E-4
12457.031250; 1.10582E-4
12462.890625; 1.07039E-4
12468.750000; 9.66988E-5
12474.609375; 9.56054E-5
12480.468750; 1.02880E-4
12486.328125; 1.03967E-4
12492.187500; 1.08625E-4
12498.046875; 1.17428E-4
12503.906250; 1.16453E-4
12509.765625; 1.06638E-4
12515.625000; 1.09161E-4
12521.484375; 1.13179E-4
12527.343750; 1.09268E-4
12533.203125; 1.16240E-4
12539.062500; 1.14502E-4
12544.921875; 1.15090E-4
12550.781250; 1.01868E-4
12556.640625; 9.70848E-5
12562.500000; 9.61789E-5
12568.359375; 9.79910E-5
12574.218750; 9.62694E-5
12580.078125; 1.03637E-4
12585.937500; 1.16959E-4
12591.796875; 1.21209E-4
12597.656250; 1.14382E-4
12603.515625; 1.16319E-4
12609.375000; 1.19807E-4
12615.234375; 1.10666E-4
12621.093750; 1.00626E-4
12626.953125; 1.07288E-4
12632.812500; 1.02664E-4
12638.671875; 1.04688E-4
12644.531250; 1.16627E-4
12650.390625; 1.15952E-4
12656.250000; 1.11844E-4
12662.109375; 1.08996E-4
12667.968750; 1.05217E-4
12673.828125; 1.04856E-4
12679.687500; 1.09206E-4
12685.546875; 1.12175E-4
12691.406250; 9.57093E-5
12697.265625; 1.15047E-4
12703.125000; 1.17315E-4
12708.984375; 1.18414E-4
12714.843750; 1.09691E-4
12720.703125; 1.03243E-4
12726.562500; 1.04822E-4
12732.421875; 1.05459E-4
12738.281250; 1.00278E-4
12744.140625; 9.37340E-5
12750.000000; 9.19939E-5
12755.859375; 9.56301E-5
12761.718750; 1.02758E-4
12767.578125; 1.12776E-4
12773.437500; 1.08476E-4
12779.296875; 9.89889E-5
12785.156250; 9.08063E-5
12791.015625; 1.01922E-4
12796.875000; 1.09831E-4
12802.734375; 1.13742E-4
12808.593750; 1.05229E-4
12814.453125; 1.05299E-4
12820.312500; 1.05795E-4
12826.171875; 1.04217E-4
12832.031250; 1.01089E-4
12837.890625; 1.14177E-4
12843.750000; 1.13670E-4
12849.609375; 1.05829E-4
12855.468750; 9.75684E-5
12861.328125; 1.09865E-4
12867.187500; 1.12068E-4
12873.046875; 1.08304E-4
12878.906250; 1.10824E-4
12884.765625; 1.01217E-4
12890.625000; 9.99202E-5
12896.484375; 1.04277E-4
12902.343750; 1.11835E-4
12908.203125; 1.14797E-4
12914.062500; 1.01550E-4
12919.921875; 9.99852E-5
12925.781250; 1.09740E-4
12931.640625; 1.02231E-4
12937.500000; 1.08132E-4
12943.359375; 1.17600E-4
12949.218750; 1.05032E-4
12955.078125; 1.02353E-4
12960.937500; 1.01741E-4
12966.796875; 1.05109E-4
12972.656250; 1.01332E-4
12978.515625; 1.03792E-4
12984.375000; 9.89572E-5
12990.234375; 1.11168E-4
12996.093750; 1.15502E-4
13001.953125; 1.08147E-4
13007.812500; 9.72288E-5
13013.671875; 1.03617E-4
13019.531250; 1.06815E-4
13025.390625; 1.10083E-4
13031.250000; 1.06015E-4
13037.109375; 1.07480E-4
13042.968750; 9.04396E-5
13048.828125; 1.01804E-4
13054.687500; 1.00872E-4
13060.546875; 1.10789E-4
13066.406250; 9.72819E-5
13072.265625; 9.85124E-5
13078.125000; 1.04067E-4
13083.984375; 1.08401E-4
13089.843750; 9.87914E-5
13095.703125; 1.02448E-4
13101.562500; 1.05954E-4
13107.421875; 1.11580E-4
13113.281250; 1.07342E-4
13119.140625; 1.07025E-4
13125.000000; 1.06098E-4
13130.859375; 1.17895E-4
13136.718750; 1.12139E-4
13142.578125; 1.15247E-4
13148.437500; 1.17895E-4
13154.296875; 1.11656E-4
13160.156250; 1.07003E-4
13166.015625; 1.08236E-4
13171.875000; 1.11114E-4
13177.734375; 1.13039E-4
13183.593750; 1.05719E-4
13189.453125; 1.02197E-4
13195.312500; 1.02169E-4
13201.171875; 1.04018E-4
13207.031250; 1.09489E-4
13212.890625; 1.07744E-4
13218.750000; 1.13286E-4
13224.609375; 1.22307E-4
13230.468750; 1.11558E-4
13236.328125; 9.70328E-5
13242.187500; 1.01214E-4
13248.046875; 1.01924E-4
13253.906250; 1.03553E-4
13259.765625; 1.12388E-4
13265.625000; 1.06050E-4
13271.484375; 1.06011E-4
13277.343750; 1.10885E-4
13283.203125; 1.18925E-4
13289.062500; 1.07230E-4
13294.921875; 1.15018E-4
13300.781250; 1.14510E-4
13306.640625; 1.01190E-4
13312.500000; 1.11967E-4
13318.359375; 1.06333E-4
13324.218750; 9.75282E-5
13330.078125; 1.10947E-4
13335.937500; 1.11758E-4
13341.796875; 1.12426E-4
13347.656250; 1.20200E-4
13353.515625; 1.18906E-4
13359.375000; 1.07745E-4
13365.234375; 1.10654E-4
13371.093750; 1.10408E-4
13376.953125; 1.04629E-4
13382.812500; 9.96125E-5
13388.671875; 1.08108E-4
13394.531250; 1.02134E-4
13400.390625; 1.07928E-4
13406.250000; 1.14758E-4
13412.109375; 1.08670E-4
13417.968750; 1.07593E-4
13423.828125; 1.01382E-4
13429.687500; 9.85278E-5
13435.546875; 9.63972E-5
13441.406250; 1.07719E-4
13447.265625; 1.00119E-4
13453.125000; 1.01164E-4
13458.984375; 1.09449E-4
13464.843750; 1.07293E-4
13470.703125; 1.07235E-4
13476.562500; 1.01049E-4
13482.421875; 9.72187E-5
13488.281250; 1.01627E-4
13494.140625; 1.10146E-4
13500.000000; 9.88572E-5
13505.859375; 1.11489E-4
13511.718750; 1.08248E-4
13517.578125; 1.01322E-4
13523.437500; 1.08039E-4
13529.296875; 1.08630E-4
13535.156250; 1.18629E-4
13541.015625; 9.83023E-5
13546.875000; 1.02194E-4
13552.734375; 1.05081E-4
13558.593750; 1.02867E-4
13564.453125; 9.59788E-5
13570.312500; 1.03911E-4
13576.171875; 1.06429E-4
13582.031250; 9.65765E-5
13587.890625; 1.08609E-4
13593.750000; 1.11868E-4
13599.609375; 1.07573E-4
13605.468750; 9.61730E-5
13611.328125; 9.95036E-5
13617.187500; 9.73287E-5
13623.046875; 9.68423E-5
13628.906250; 1.08120E-4
13634.765625; 1.14019E-4
13640.625000; 1.08356E-4
13646.484375; 1.04407E-4
13652.343750; 1.04905E-4
13658.203125; 1.07657E-4
13664.062500; 1.05807E-4
13669.921875; 1.03963E-4
13675.781250; 1.06978E-4
13681.640625; 1.15636E-4
13687.500000; 1.14721E-4
13693.359375; 1.00932E-4
13699.218750; 1.07478E-4
13705.078125; 1.02603E-4
13710.937500; 1.04368E-4
13716.796875; 1.08206E-4
13722.656250; 1.02710E-4
13728.515625; 9.61339E-5
13734.375000; 9.30083E-5
13740.234375; 9.81574E-5
13746.093750; 1.10278E-4
13751.953125; 1.01917E-4
13757.812500; 7.87863E-5
13763.671875; 9.91497E-5
13769.531250; 1.16807E-4
13775.390625; 1.16739E-4
13781.250000; 1.07099E-4
13787.109375; 1.15932E-4
13792.968750; 1.06047E-4
13798.828125; 1.08967E-4
13804.687500; 1.08803E-4
13810.546875; 1.03950E-4
13816.406250; 1.04371E-4
13822.265625; 1.03419E-4
13828.125000; 9.94545E-5
13833.984375; 9.92900E-5
13839.843750; 1.13497E-4
13845.703125; 1.08158E-4
13851.562500; 9.80437E-5
13857.421875; 1.03361E-4
13863.281250; 1.02721E-4
13869.140625; 9.44894E-5
13875.000000; 1.03021E-4
13880.859375; 9.85737E-5
13886.718750; 9.91970E-5
13892.578125; 1.06677E-4
13898.437500; 1.04410E-4
13904.296875; 1.08393E-4
13910.156250; 9.73418E-5
13916.015625; 1.02651E-4
13921.875000; 1.06242E-4
13927.734375; 1.05868E-4
13933.593750; 1.00613E-4
13939.453125; 1.00300E-4
13945.312500; 1.08989E-4
13951.171875; 1.19004E-4
13957.031250; 1.12243E-4
13962.890625; 1.11911E-4
13968.750000; 1.08431E-4
13974.609375; 1.07902E-4
13980.468750; 1.11288E-4
13986.328125; 1.07546E-4
13992.187500; 1.18471E-4
13998.046875; 1.16098E-4
14003.906250; 1.02125E-4
14009.765625; 9.72736E-5
14015.625000; 9.31603E-5
14021.484375; 1.01678E-4
14027.343750; 1.06132E-4
14033.203125; 1.07111E-4
14039.062500; 1.11239E-4
14044.921875; 1.09075E-4
14050.781250; 1.00216E-4
14056.640625; 9.52781E-5
14062.500000; 9.61766E-5
14068.359375; 9.78071E-5
14074.218750; 1.15237E-4
14080.078125; 1.21722E-4
14085.937500; 1.07396E-4
14091.796875; 9.42873E-5
14097.656250; 1.01455E-4
14103.515625; 1.09979E-4
14109.375000; 1.16912E-4
14115.234375; 1.15115E-4
14121.093750; 1.16857E-4
14126.953125; 1.07028E-4
14132.812500; 1.09823E-4
14138.671875; 1.11943E-4
14144.531250; 1.05673E-4
14150.390625; 1.04241E-4
14156.250000; 9.74252E-5
14162.109375; 9.78212E-5
14167.968750; 1.09052E-4
14173.828125; 1.15869E-4
14179.687500; 1.14058E-4
14185.546875; 1.04591E-4
14191.406250; 1.14194E-4
14197.265625; 9.93963E-5
14203.125000; 9.59191E-5
14208.984375; 1.06473E-4
14214.843750; 1.12275E-4
14220.703125; 1.11391E-4
14226.562500; 1.12595E-4
14232.421875; 1.12539E-4
14238.281250; 1.03304E-4
14244.140625; 1.03466E-4
14250.000000; 1.01578E-4
14255.859375; 1.10134E-4
14261.718750; 1.16805E-4
14267.578125; 1.14156E-4
14273.437500; 1.03225E-4
14279.296875; 1.07886E-4
14285.156250; 1.11619E-4
14291.015625; 1.01125E-4
14296.875000; 9.83406E-5
14302.734375; 1.16753E-4
14308.593750; 1.20474E-4
14314.453125; 1.15277E-4
14320.312500; 1.05686E-4
14326.171875; 9.79916E-5
14332.031250; 1.05766E-4
14337.890625; 1.09591E-4
14343.750000; 9.74813E-5
14349.609375; 1.03079E-4
14355.468750; 1.03707E-4
14361.328125; 1.03341E-4
14367.187500; 9.81377E-5
14373.046875; 1.05393E-4
14378.906250; 1.02714E-4
14384.765625; 1.06101E-4
14390.625000; 1.02487E-4
14396.484375; 1.13134E-4
14402.343750; 1.15107E-4
14408.203125; 1.16802E-4
14414.062500; 1.05045E-4
14419.921875; 1.04079E-4
14425.781250; 1.03573E-4
14431.640625; 1.03770E-4
14437.500000; 1.02979E-4
14443.359375; 1.10440E-4
14449.218750; 1.04053E-4
14455.078125; 1.04874E-4
14460.937500; 1.06230E-4
14466.796875; 1.13487E-4
14472.656250; 1.03670E-4
14478.515625; 9.46580E-5
14484.375000; 9.39612E-5
14490.234375; 9.80401E-5
14496.093750; 9.76490E-5
14501.953125; 9.88699E-5
14507.812500; 1.00863E-4
14513.671875; 1.07025E-4
14519.531250; 1.17827E-4
14525.390625; 1.28129E-4
14531.250000; 1.14053E-4
14537.109375; 1.16836E-4
14542.968750; 1.06776E-4
14548.828125; 1.05448E-4
14554.687500; 9.82058E-5
14560.546875; 9.84943E-5
14566.406250; 1.08554E-4
14572.265625; 1.14683E-4
14578.125000; 1.10067E-4
14583.984375; 1.02103E-4
14589.843750; 1.02081E-4
14595.703125; 1.03645E-4
14601.562500; 1.08298E-4
14607.421875; 1.07468E-4
14613.281250; 1.09070E-4
14619.140625; 9.99378E-5
14625.000000; 9.72113E-5
14630.859375; 1.10021E-4
14636.718750; 1.03043E-4
14642.578125; 9.41307E-5
14648.437500; 9.67170E-5
14654.296875; 9.49327E-5
14660.156250; 1.03939E-4
14666.015625; 1.15860E-4
14671.875000; 1.00811E-4
14677.734375; 1.05878E-4
14683.593750; 1.07045E-4
14689.453125; 1.01487E-4
14695.312500; 1.07268E-4
14701.171875; 9.94081E-5
14707.031250; 9.72067E-5
14712.890625; 1.00925E-4
14718.750000; 1.04768E-4
14724.609375; 1.05730E-4
14730.468750; 1.03807E-4
14736.328125; 9.90839E-5
14742.187500; 1.04185E-4
14748.046875; 1.05082E-4
14753.906250; 1.02656E-4
14759.765625; 1.14334E-4
14765.625000; 1.17611E-4
14771.484375; 1.07452E-4
14777.343750; 1.03042E-4
14783.203125; 1.11829E-4
14789.062500; 1.13074E-4
14794.921875; 1.11538E-4
14800.781250; 1.05760E-4
14806.640625; 1.00426E-4
14812.500000; 1.04920E-4
14818.359375; 9.78851E-5
14824.218750; 1.09582E-4
14830.078125; 1.19671E-4
14835.937500; 1.05128E-4
14841.796875; 1.05294E-4
14847.656250; 1.09102E-4
14853.515625; 1.12915E-4
14859.375000; 1.07910E-4
14865.234375; 9.64728E-5
14871.093750; 1.04146E-4
14876.953125; 1.00010E-4
14882.812500; 9.69164E-5
14888.671875; 1.00695E-4
14894.531250; 9.60552E-5
14900.390625; 9.59305E-5
14906.250000; 1.09120E-4
14912.109375; 1.15862E-4
14917.968750; 1.15777E-4
14923.828125; 1.23694E-4
14929.687500; 1.14766E-4
14935.546875; 9.92893E-5
14941.406250; 1.04919E-4
14947.265625; 1.12915E-4
14953.125000; 1.09388E-4
14958.984375; 1.09309E-4
14964.843750; 1.08528E-4
14970.703125; 1.07097E-4
14976.562500; 1.10156E-4
14982.421875; 1.08220E-4
14988.281250; 1.03993E-4
14994.140625; 1.01289E-4
15000.000000; 9.99088E-5
15005.859375; 9.63897E-5
15011.718750; 1.09375E-4
15017.578125; 1.09367E-4
15023.437500; 1.03519E-4
15029.296875; 1.05278E-4
15035.156250; 1.01451E-4
15041.015625; 9.95231E-5
15046.875000; 1.05407E-4
15052.734375; 1.08633E-4
15058.593750; 1.08210E-4
15064.453125; 1.10522E-4
15070.312500; 1.08143E-4
15076.171875; 1.04897E-4
15082.031250; 1.03597E-4
15087.890625; 1.02691E-4
15093.750000; 1.03444E-4
15099.609375; 1.13991E-4
15105.468750; 1.13875E-4
15111.328125; 1.04879E-4
15117.187500; 1.01084E-4
15123.046875; 9.45782E-5
15128.906250; 1.05040E-4
15134.765625; 1.06813E-4
15140.625000; 1.04137E-4
15146.484375; 1.01520E-4
15152.343750; 1.09842E-4
15158.203125; 1.08784E-4
15164.062500; 1.00924E-4
15169.921875; 1.06235E-4
15175.781250; 1.08184E-4
15181.640625; 1.12841E-4
15187.500000; 1.03553E-4
15193.359375; 9.50079E-5
15199.218750; 1.00753E-4
15205.078125; 1.03508E-4
15210.937500; 9.65394E-5
15216.796875; 8.98399E-5
15222.656250; 1.02469E-4
15228.515625; 1.12225E-4
15234.375000; 1.05009E-4
15240.234375; 9.81067E-5
15246.093750; 9.48459E-5
15251.953125; 1.02775E-4
15257.812500; 9.55636E-5
15263.671875; 1.00102E-4
15269.531250; 1.09146E-4
15275.390625; 1.13146E-4
15281.250000; 1.03537E-4
15287.109375; 1.05348E-4
15292.968750; 9.85961E-5
15298.828125; 9.15895E-5
15304.687500; 1.10416E-4
15310.546875; 1.10375E-4
15316.406250; 1.11601E-4
15322.265625; 9.77208E-5
15328.125000; 1.02247E-4
15333.984375; 1.11287E-4
15339.843750; 1.03693E-4
15345.703125; 1.03210E-4
15351.562500; 1.07924E-4
15357.421875; 1.04796E-4
15363.281250; 9.30974E-5
15369.140625; 9.61791E-5
15375.000000; 1.05015E-4
15380.859375; 1.06640E-4
15386.718750; 1.06530E-4
15392.578125; 1.01115E-4
15398.437500; 1.05018E-4
15404.296875; 1.09646E-4
15410.156250; 1.07042E-4
15416.015625; 1.11516E-4
15421.875000; 1.07858E-4
15427.734375; 1.08261E-4
15433.593750; 9.65950E-5
15439.453125; 9.80348E-5
15445.312500; 9.37454E-5
15451.171875; 9.46306E-5
15457.031250; 1.01215E-4
15462.890625; 1.01012E-4
15468.750000; 1.12345E-4
15474.609375; 1.10883E-4
15480.468750; 1.12088E-4
15486.328125; 1.12190E-4
15492.187500; 1.07607E-4
15498.046875; 1.00339E-4
15503.906250; 1.05238E-4
15509.765625; 1.08316E-4
15515.625000; 1.02549E-4
15521.484375; 1.08337E-4
15527.343750; 1.04371E-4
15533.203125; 1.02390E-4
15539.062500; 1.01425E-4
15544.921875; 1.05031E-4
15550.781250; 1.01214E-4
15556.640625; 1.01318E-4
15562.500000; 1.08995E-4
15568.359375; 1.04799E-4
15574.218750; 1.11313E-4
15580.078125; 1.10359E-4
15585.937500; 1.02437E-4
15591.796875; 9.55266E-5
15597.656250; 1.10542E-4
15603.515625; 1.10896E-4
15609.375000; 9.55093E-5
15615.234375; 1.03613E-4
15621.093750; 1.03228E-4
15626.953125; 9.59196E-5
15632.812500; 1.02877E-4
15638.671875; 1.05426E-4
15644.531250; 1.04173E-4
15650.390625; 1.03693E-4
15656.250000; 9.95926E-5
15662.109375; 1.02838E-4
15667.968750; 1.02722E-4
15673.828125; 1.03575E-4
15679.687500; 1.10498E-4
15685.546875; 1.00434E-4
15691.406250; 1.00888E-4
15697.265625; 1.08153E-4
15703.125000; 1.21224E-4
15708.984375; 1.13127E-4
15714.843750; 1.05716E-4
15720.703125; 1.19381E-4
15726.562500; 1.16217E-4
15732.421875; 1.09885E-4
15738.281250; 1.01066E-4
15744.140625; 9.18929E-5
15750.000000; 1.03958E-4
15755.859375; 1.09987E-4
15761.718750; 1.04132E-4
15767.578125; 1.09213E-4
15773.437500; 1.18433E-4
15779.296875; 1.08507E-4
15785.156250; 1.00669E-4
15791.015625; 1.03411E-4
15796.875000; 1.06820E-4
15802.734375; 1.05548E-4
15808.593750; 1.06386E-4
15814.453125; 9.61214E-5
15820.312500; 9.31906E-5
15826.171875; 1.03435E-4
15832.031250; 1.11872E-4
15837.890625; 1.15965E-4
15843.750000; 1.01634E-4
15849.609375; 9.91156E-5
15855.468750; 1.00023E-4
15861.328125; 1.00444E-4
15867.187500; 1.01860E-4
15873.046875; 1.13101E-4
15878.906250; 1.15247E-4
15884.765625; 1.11750E-4
15890.625000; 1.07116E-4
15896.484375; 1.05471E-4
15902.343750; 1.01726E-4
15908.203125; 1.01721E-4
15914.062500; 1.01623E-4
15919.921875; 1.01492E-4
15925.781250; 1.00451E-4
15931.640625; 9.94966E-5
15937.500000; 1.05275E-4
15943.359375; 1.00107E-4
15949.218750; 9.66311E-5
15955.078125; 1.12401E-4
15960.937500; 1.05079E-4
15966.796875; 1.02110E-4
15972.656250; 9.54191E-5
15978.515625; 9.74570E-5
15984.375000; 1.09951E-4
15990.234375; 1.14484E-4
15996.093750; 1.16020E-4
16001.953125; 1.14644E-4
16007.812500; 1.14170E-4
16013.671875; 1.03156E-4
16019.531250; 1.02292E-4
16025.390625; 1.01575E-4
16031.250000; 1.05767E-4
16037.109375; 1.18275E-4
16042.968750; 1.14236E-4
16048.828125; 1.14674E-4
16054.687500; 1.08782E-4
16060.546875; 1.06597E-4
16066.406250; 1.06593E-4
16072.265625; 8.76838E-5
16078.125000; 9.04963E-5
16083.984375; 1.06251E-4
16089.843750; 1.13936E-4
16095.703125; 1.02634E-4
16101.562500; 1.02327E-4
16107.421875; 1.00173E-4
16113.281250; 1.01881E-4
16119.140625; 1.04732E-4
16125.000000; 9.99745E-5
16130.859375; 1.00526E-4
16136.718750; 1.10039E-4
16142.578125; 1.07887E-4
16148.437500; 1.01213E-4
16154.296875; 9.97814E-5
16160.156250; 1.10913E-4
16166.015625; 9.84543E-5
16171.875000; 1.02922E-4
16177.734375; 1.04969E-4
16183.593750; 1.09881E-4
16189.453125; 1.12365E-4
16195.312500; 1.06332E-4
16201.171875; 1.06174E-4
16207.031250; 1.06763E-4
16212.890625; 1.04636E-4
16218.750000; 1.01853E-4
16224.609375; 1.05722E-4
16230.468750; 1.05628E-4
16236.328125; 1.04900E-4
16242.187500; 1.02036E-4
16248.046875; 1.05801E-4
16253.906250; 1.03286E-4
16259.765625; 1.02736E-4
16265.625000; 9.68173E-5
16271.484375; 1.01919E-4
16277.343750; 1.11736E-4
16283.203125; 1.11583E-4
16289.062500; 1.06383E-4
16294.921875; 1.00266E-4
16300.781250; 1.07045E-4
16306.640625; 1.10118E-4
16312.500000; 1.12124E-4
16318.359375; 1.08232E-4
16324.218750; 1.18523E-4
16330.078125; 1.12284E-4
16335.937500; 1.05207E-4
16341.796875; 1.06641E-4
16347.656250; 1.07637E-4
16353.515625; 1.05193E-4
16359.375000; 1.03735E-4
16365.234375; 1.06322E-4
16371.093750; 1.20018E-4
16376.953125; 1.06008E-4
16382.812500; 9.34523E-5
16388.671875; 8.98942E-5
16394.531250; 9.42707E-5
16400.390625; 8.97255E-5
16406.250000; 9.43665E-5
16412.109375; 8.71985E-5
16417.968750; 9.63381E-5
16423.828125; 1.02839E-4
16429.687500; 1.06651E-4
16435.546875; 1.03525E-4
16441.406250; 1.03691E-4
16447.265625; 1.13446E-4
16453.125000; 1.07200E-4
16458.984375; 1.06935E-4
16464.843750; 9.45754E-5
16470.703125; 1.08199E-4
16476.562500; 1.25557E-4
16482.421875; 1.19330E-4
16488.281250; 1.21918E-4
16494.140625; 1.00547E-4
16500.000000; 9.68050E-5
16505.859375; 1.00867E-4
16511.718750; 1.04367E-4
16517.578125; 1.13862E-4
16523.437500; 1.09482E-4
16529.296875; 9.51635E-5
16535.156250; 9.45561E-5
16541.015625; 9.64194E-5
16546.875000; 1.04771E-4
16552.734375; 1.14873E-4
16558.593750; 1.22640E-4
16564.453125; 1.14028E-4
16570.312500; 1.08409E-4
16576.171875; 1.13706E-4
16582.031250; 1.09040E-4
16587.890625; 9.85644E-5
16593.750000; 1.01431E-4
16599.609375; 9.94038E-5
16605.468750; 9.18326E-5
16611.328125; 9.72060E-5
16617.187500; 1.13129E-4
16623.046875; 1.11659E-4
16628.906250; 9.59671E-5
16634.765625; 1.05412E-4
16640.625000; 1.05582E-4
16646.484375; 1.01324E-4
16652.343750; 1.05262E-4
16658.203125; 1.06063E-4
16664.062500; 1.10791E-4
16669.921875; 1.03421E-4
16675.781250; 9.81268E-5
16681.640625; 1.09842E-4
16687.500000; 1.00989E-4
16693.359375; 9.79042E-5
16699.218750; 1.03024E-4
16705.078125; 1.04846E-4
16710.937500; 1.08703E-4
16716.796875; 1.10661E-4
16722.656250; 1.03061E-4
16728.515625; 1.11277E-4
16734.375000; 1.00097E-4
16740.234375; 9.93746E-5
16746.093750; 9.81458E-5
16751.953125; 1.02825E-4
16757.812500; 1.05219E-4
16763.671875; 1.04509E-4
16769.531250; 1.18293E-4
16775.390625; 1.03452E-4
16781.250000; 9.43365E-5
16787.109375; 1.08164E-4
16792.968750; 1.06880E-4
16798.828125; 1.06029E-4
16804.687500; 1.05910E-4
16810.546875; 1.19189E-4
16816.406250; 1.09748E-4
16822.265625; 1.08916E-4
16828.125000; 1.14779E-4
16833.984375; 1.01023E-4
16839.843750; 1.02918E-4
16845.703125; 1.02974E-4
16851.562500; 1.09073E-4
16857.421875; 1.09736E-4
16863.281250; 1.07041E-4
16869.140625; 9.71337E-5
16875.000000; 1.06255E-4
16880.859375; 1.01806E-4
16886.718750; 9.98240E-5
16892.578125; 1.04659E-4
16898.437500; 1.10432E-4
16904.296875; 1.05322E-4
16910.156250; 9.95742E-5
16916.015625; 9.36169E-5
16921.875000; 1.01586E-4
16927.734375; 1.07495E-4
16933.593750; 1.04165E-4
16939.453125; 1.02453E-4
16945.312500; 1.07595E-4
16951.171875; 1.00226E-4
16957.031250; 1.04025E-4
16962.890625; 1.18515E-4
16968.750000; 1.21517E-4
16974.609375; 1.04417E-4
16980.468750; 9.85002E-5
16986.328125; 1.08173E-4
16992.187500; 1.19112E-4
16998.046875; 1.18690E-4
17003.906250; 1.05111E-4
17009.765625; 1.05029E-4
17015.625000; 1.06477E-4
17021.484375; 1.04599E-4
17027.343750; 1.05439E-4
17033.203125; 1.07625E-4
17039.062500; 1.05947E-4
17044.921875; 1.17551E-4
17050.781250; 1.17261E-4
17056.640625; 1.00312E-4
17062.500000; 1.09049E-4
17068.359375; 1.16738E-4
17074.218750; 9.62014E-5
17080.078125; 9.96262E-5
17085.937500; 1.07308E-4
17091.796875; 1.11569E-4
17097.656250; 1.03149E-4
17103.515625; 9.50779E-5
17109.375000; 9.71026E-5
17115.234375; 9.91852E-5
17121.093750; 9.78810E-5
17126.953125; 9.99533E-5
17132.812500; 1.04753E-4
17138.671875; 9.72788E-5
17144.531250; 1.04675E-4
17150.390625; 1.06526E-4
17156.250000; 1.03857E-4
17162.109375; 1.08871E-4
17167.968750; 1.00269E-4
17173.828125; 9.68628E-5
17179.687500; 9.38907E-5
17185.546875; 9.39000E-5
17191.406250; 1.00158E-4
17197.265625; 1.08983E-4
17203.125000; 1.10577E-4
17208.984375; 1.20872E-4
17214.843750; 1.21574E-4
17220.703125; 1.17380E-4
17226.562500; 1.02995E-4
17232.421875; 1.09426E-4
17238.281250; 1.15082E-4
17244.140625; 9.65287E-5
17250.000000; 1.00615E-4
17255.859375; 1.21662E-4
17261.718750; 1.06709E-4
17267.578125; 1.04899E-4
17273.437500; 1.07594E-4
17279.296875; 9.78218E-5
17285.156250; 1.03952E-4
17291.015625; 1.00263E-4
17296.875000; 9.52965E-5
17302.734375; 9.63299E-5
17308.593750; 1.04735E-4
17314.453125; 1.09255E-4
17320.312500; 1.08603E-4
17326.171875; 1.13432E-4
17332.031250; 1.06156E-4
17337.890625; 1.05943E-4
17343.750000; 1.06869E-4
17349.609375; 9.89806E-5
17355.468750; 9.62414E-5
17361.328125; 9.82493E-5
17367.187500; 1.07224E-4
17373.046875; 1.06390E-4
17378.906250; 9.71302E-5
17384.765625; 9.79454E-5
17390.625000; 9.85179E-5
17396.484375; 9.85672E-5
17402.343750; 1.16641E-4
17408.203125; 1.17171E-4
17414.062500; 1.05591E-4
17419.921875; 1.03070E-4
17425.781250; 1.07432E-4
17431.640625; 1.05264E-4
17437.500000; 9.57585E-5
17443.359375; 9.65395E-5
17449.218750; 9.41670E-5
17455.078125; 9.59292E-5
17460.937500; 1.00185E-4
17466.796875; 1.07107E-4
17472.656250; 1.08753E-4
17478.515625; 1.11178E-4
17484.375000; 1.08953E-4
17490.234375; 1.04917E-4
17496.093750; 9.24564E-5
17501.953125; 1.09836E-4
17507.812500; 1.08870E-4
17513.671875; 1.01576E-4
17519.531250; 1.00408E-4
17525.390625; 1.00826E-4
17531.250000; 1.07196E-4
17537.109375; 1.00510E-4
17542.968750; 1.07364E-4
17548.828125; 9.94017E-5
17554.687500; 1.05335E-4
17560.546875; 9.80401E-5
17566.406250; 1.01336E-4
17572.265625; 1.10571E-4
17578.125000; 1.02085E-4
17583.984375; 9.97584E-5
17589.843750; 1.03365E-4
17595.703125; 1.10413E-4
17601.562500; 9.94525E-5
17607.421875; 9.99109E-5
17613.281250; 9.66432E-5
17619.140625; 1.01684E-4
17625.000000; 8.99697E-5
17630.859375; 1.07087E-4
17636.718750; 1.09297E-4
17642.578125; 1.05294E-4
17648.437500; 1.11480E-4
17654.296875; 1.05203E-4
17660.156250; 9.78897E-5
17666.015625; 9.63075E-5
17671.875000; 1.08087E-4
17677.734375; 1.04346E-4
17683.593750; 1.16739E-4
17689.453125; 1.10260E-4
17695.312500; 1.04386E-4
17701.171875; 1.05793E-4
17707.031250; 1.06906E-4
17712.890625; 1.12186E-4
17718.750000; 1.02952E-4
17724.609375; 9.89369E-5
17730.468750; 9.33621E-5
17736.328125; 1.01131E-4
17742.187500; 1.12679E-4
17748.046875; 1.07438E-4
17753.906250; 1.03098E-4
17759.765625; 1.04234E-4
17765.625000; 1.11095E-4
17771.484375; 1.07870E-4
17777.343750; 1.05037E-4
17783.203125; 1.14685E-4
17789.062500; 1.11031E-4
17794.921875; 9.51036E-5
17800.781250; 9.66062E-5
17806.640625; 1.11474E-4
17812.500000; 1.06687E-4
17818.359375; 1.08142E-4
17824.218750; 1.13331E-4
17830.078125; 1.07581E-4
17835.937500; 1.01747E-4
17841.796875; 1.03992E-4
17847.656250; 1.09955E-4
17853.515625; 1.01220E-4
17859.375000; 9.64021E-5
17865.234375; 9.89597E-5
17871.093750; 1.00983E-4
17876.953125; 9.50395E-5
17882.812500; 1.00531E-4
17888.671875; 1.00516E-4
17894.531250; 9.49411E-5
17900.390625; 9.17235E-5
17906.250000; 9.89877E-5
17912.109375; 9.92180E-5
17917.968750; 1.03869E-4
17923.828125; 9.96546E-5
17929.687500; 1.02736E-4
17935.546875; 9.99180E-5
17941.406250; 9.82478E-5
17947.265625; 1.10217E-4
17953.125000; 1.05957E-4
17958.984375; 8.88182E-5
17964.843750; 9.56635E-5
17970.703125; 1.13046E-4
17976.562500; 1.06377E-4
17982.421875; 1.00407E-4
17988.281250; 1.08175E-4
17994.140625; 1.06825E-4
18000.000000; 1.15267E-4
18005.859375; 1.01580E-4
18011.718750; 9.37901E-5
18017.578125; 1.03820E-4
18023.437500; 1.09984E-4
18029.296875; 1.04563E-4
18035.156250; 1.07579E-4
18041.015625; 1.07521E-4
18046.875000; 1.05213E-4
18052.734375; 1.09269E-4
18058.593750; 1.12246E-4
18064.453125; 9.64841E-5
18070.312500; 9.92676E-5
18076.171875; 1.05799E-4
18082.031250; 1.07636E-4
18087.890625; 1.01243E-4
18093.750000; 9.87654E-5
18099.609375; 9.88561E-5
18105.468750; 1.01785E-4
18111.328125; 1.02955E-4
18117.187500; 9.90163E-5
18123.046875; 9.03923E-5
18128.906250; 1.09464E-4
18134.765625; 1.06671E-4
18140.625000; 1.00583E-4
18146.484375; 1.09642E-4
18152.343750; 1.10682E-4
18158.203125; 1.08302E-4
18164.062500; 9.73430E-5
18169.921875; 1.05691E-4
18175.781250; 1.05854E-4
18181.640625; 1.07547E-4
18187.500000; 1.15508E-4
18193.359375; 1.16327E-4
18199.218750; 1.07318E-4
18205.078125; 1.05763E-4
18210.937500; 9.42377E-5
18216.796875; 9.91012E-5
18222.656250; 1.06434E-4
18228.515625; 1.08535E-4
18234.375000; 1.05216E-4
18240.234375; 1.03278E-4
18246.093750; 1.05921E-4
18251.953125; 1.12325E-4
18257.812500; 1.04656E-4
18263.671875; 1.01258E-4
18269.531250; 1.00022E-4
18275.390625; 9.06046E-5
18281.250000; 1.02357E-4
18287.109375; 9.83742E-5
18292.968750; 1.06714E-4
18298.828125; 1.16884E-4
18304.687500; 1.00839E-4
18310.546875; 1.06968E-4
18316.406250; 1.15023E-4
18322.265625; 1.14764E-4
18328.125000; 1.01046E-4
18333.984375; 1.00283E-4
18339.843750; 1.02246E-4
18345.703125; 1.03164E-4
18351.562500; 1.08696E-4
18357.421875; 1.06839E-4
18363.281250; 1.03609E-4
18369.140625; 9.63297E-5
18375.000000; 1.02984E-4
18380.859375; 1.03940E-4
18386.718750; 9.82463E-5
18392.578125; 1.03124E-4
18398.437500; 1.08571E-4
18404.296875; 1.14710E-4
18410.156250; 1.01271E-4
18416.015625; 9.86718E-5
18421.875000; 1.07763E-4
18427.734375; 1.08010E-4
18433.593750; 1.08271E-4
18439.453125; 9.26132E-5
18445.312500; 1.13241E-4
18451.171875; 1.17322E-4
18457.031250; 1.09185E-4
18462.890625; 1.02963E-4
18468.750000; 9.81960E-5
18474.609375; 9.96638E-5
18480.468750; 1.02919E-4
18486.328125; 1.01956E-4
18492.187500; 1.00930E-4
18498.046875; 9.84514E-5
18503.906250; 9.62031E-5
18509.765625; 9.69952E-5
18515.625000; 1.02631E-4
18521.484375; 1.22548E-4
18527.343750; 1.13578E-4
18533.203125; 1.04707E-4
18539.062500; 1.14368E-4
18544.921875; 1.15935E-4
18550.781250; 1.09421E-4
18556.640625; 1.20709E-4
18562.500000; 1.07855E-4
18568.359375; 9.86588E-5
18574.218750; 9.28182E-5
18580.078125; 9.84495E-5
18585.937500; 1.08135E-4
18591.796875; 1.11439E-4
18597.656250; 1.07842E-4
18603.515625; 1.12888E-4
18609.375000; 1.10241E-4
18615.234375; 1.06856E-4
18621.093750; 1.06358E-4
18626.953125; 9.38014E-5
18632.812500; 9.47753E-5
18638.671875; 9.85167E-5
18644.531250; 8.80921E-5
18650.390625; 1.06231E-4
18656.250000; 1.08838E-4
18662.109375; 1.08680E-4
18667.968750; 1.06649E-4
18673.828125; 1.21492E-4
18679.687500; 1.19293E-4
18685.546875; 1.05603E-4
18691.406250; 1.00042E-4
18697.265625; 9.71341E-5
18703.125000; 9.27754E-5
18708.984375; 9.37091E-5
18714.843750; 9.55823E-5
18720.703125; 1.03455E-4
18726.562500; 1.11681E-4
18732.421875; 1.13751E-4
18738.281250; 1.07205E-4
18744.140625; 1.07700E-4
18750.000000; 9.67607E-5
18755.859375; 1.00443E-4
18761.718750; 9.78934E-5
18767.578125; 1.08487E-4
18773.437500; 1.13521E-4
18779.296875; 1.09641E-4
18785.156250; 1.05323E-4
18791.015625; 9.18721E-5
18796.875000; 9.98157E-5
18802.734375; 1.01856E-4
18808.593750; 1.01783E-4
18814.453125; 1.00400E-4
18820.312500; 9.10460E-5
18826.171875; 1.01896E-4
18832.031250; 9.75656E-5
18837.890625; 1.06709E-4
18843.750000; 1.10616E-4
18849.609375; 1.04185E-4
18855.468750; 1.07114E-4
18861.328125; 1.04945E-4
18867.187500; 1.13677E-4
18873.046875; 1.16338E-4
18878.906250; 9.86669E-5
18884.765625; 9.61630E-5
18890.625000; 1.03189E-4
18896.484375; 1.14179E-4
18902.343750; 1.10464E-4
18908.203125; 9.99392E-5
18914.062500; 1.05336E-4
18919.921875; 1.06582E-4
18925.781250; 9.91374E-5
18931.640625; 1.02498E-4
18937.500000; 1.12744E-4
18943.359375; 1.05072E-4
18949.218750; 9.54368E-5
18955.078125; 9.54126E-5
18960.937500; 1.04416E-4
18966.796875; 1.01990E-4
18972.656250; 1.00831E-4
18978.515625; 9.76421E-5
18984.375000; 1.08016E-4
18990.234375; 1.07153E-4
18996.093750; 1.03610E-4
19001.953125; 1.06683E-4
19007.812500; 1.00969E-4
19013.671875; 1.02763E-4
19019.531250; 1.04882E-4
19025.390625; 1.12203E-4
19031.250000; 1.13555E-4
19037.109375; 9.32122E-5
19042.968750; 1.09826E-4
19048.828125; 1.18904E-4
19054.687500; 1.10089E-4
19060.546875; 9.86034E-5
19066.406250; 9.95411E-5
19072.265625; 9.73326E-5
19078.125000; 9.72800E-5
19083.984375; 9.10603E-5
19089.843750; 1.02482E-4
19095.703125; 1.16840E-4
19101.562500; 1.14293E-4
19107.421875; 1.18352E-4
19113.281250; 1.08111E-4
19119.140625; 1.08813E-4
19125.000000; 9.87114E-5
19130.859375; 9.88713E-5
19136.718750; 1.10963E-4
19142.578125; 1.09269E-4
19148.437500; 1.20629E-4
19154.296875; 1.08706E-4
19160.156250; 1.10193E-4
19166.015625; 1.17965E-4
19171.875000; 1.12899E-4
19177.734375; 1.10698E-4
19183.593750; 1.01520E-4
19189.453125; 1.02613E-4
19195.312500; 1.06014E-4
19201.171875; 1.03945E-4
19207.031250; 9.88218E-5
19212.890625; 1.07279E-4
19218.750000; 1.02236E-4
19224.609375; 1.02390E-4
19230.468750; 1.03570E-4
19236.328125; 1.06739E-4
19242.187500; 9.70935E-5
19248.046875; 1.01207E-4
19253.906250; 1.08148E-4
19259.765625; 1.06739E-4
19265.625000; 1.05486E-4
19271.484375; 1.08058E-4
19277.343750; 1.01664E-4
19283.203125; 1.08418E-4
19289.062500; 1.13035E-4
19294.921875; 1.06804E-4
19300.781250; 9.99922E-5
19306.640625; 1.04919E-4
19312.500000; 1.13912E-4
19318.359375; 1.00647E-4
19324.218750; 9.68075E-5
19330.078125; 1.06039E-4
19335.937500; 1.07186E-4
19341.796875; 9.85055E-5
19347.656250; 1.05862E-4
19353.515625; 1.11736E-4
19359.375000; 9.62733E-5
19365.234375; 1.00573E-4
19371.093750; 1.01228E-4
19376.953125; 1.01660E-4
19382.812500; 9.99409E-5
19388.671875; 1.05473E-4
19394.531250; 1.07728E-4
19400.390625; 1.05409E-4
19406.250000; 1.11531E-4
19412.109375; 1.11621E-4
19417.968750; 1.02356E-4
19423.828125; 1.15223E-4
19429.687500; 1.13829E-4
19435.546875; 1.11542E-4
19441.406250; 1.09763E-4
19447.265625; 1.01791E-4
19453.125000; 1.09012E-4
19458.984375; 1.05339E-4
19464.843750; 1.00538E-4
19470.703125; 9.94866E-5
19476.562500; 1.02869E-4
19482.421875; 1.07710E-4
19488.281250; 9.49827E-5
19494.140625; 9.73838E-5
19500.000000; 1.05544E-4
19505.859375; 1.04847E-4
19511.718750; 1.02736E-4
19517.578125; 1.05857E-4
19523.437500; 1.20566E-4
19529.296875; 1.07314E-4
19535.156250; 1.05072E-4
19541.015625; 1.07532E-4
19546.875000; 1.02486E-4
19552.734375; 1.01816E-4
19558.593750; 9.99176E-5
19564.453125; 1.05838E-4
19570.312500; 1.09843E-4
19576.171875; 1.12772E-4
19582.031250; 1.04849E-4
19587.890625; 9.80240E-5
19593.750000; 9.94884E-5
19599.609375; 1.05382E-4
19605.468750; 1.03620E-4
19611.328125; 1.05560E-4
19617.187500; 9.80570E-5
19623.046875; 1.01394E-4
19628.906250; 1.03141E-4
19634.765625; 9.53274E-5
19640.625000; 1.05387E-4
19646.484375; 1.02886E-4
19652.343750; 1.07209E-4
19658.203125; 1.09799E-4
19664.062500; 1.13781E-4
19669.921875; 1.08025E-4
19675.781250; 9.87067E-5
19681.640625; 9.81201E-5
19687.500000; 1.06995E-4
19693.359375; 1.02141E-4
19699.218750; 1.12425E-4
19705.078125; 1.09422E-4
19710.937500; 1.03324E-4
19716.796875; 1.04584E-4
19722.656250; 1.16769E-4
19728.515625; 1.14680E-4
19734.375000; 1.08062E-4
19740.234375; 1.06501E-4
19746.093750; 9.78899E-5
19751.953125; 1.09549E-4
19757.812500; 1.07638E-4
19763.671875; 1.05655E-4
19769.531250; 1.06890E-4
19775.390625; 9.63739E-5
19781.250000; 1.02049E-4
19787.109375; 1.06997E-4
19792.968750; 1.02965E-4
19798.828125; 1.02172E-4
19804.687500; 9.63200E-5
19810.546875; 9.56906E-5
19816.406250; 1.05195E-4
19822.265625; 1.11442E-4
19828.125000; 9.66983E-5
19833.984375; 9.72793E-5
19839.843750; 1.13017E-4
19845.703125; 1.14721E-4
19851.562500; 1.05777E-4
19857.421875; 1.00781E-4
19863.281250; 9.70837E-5
19869.140625; 9.93340E-5
19875.000000; 9.52028E-5
19880.859375; 9.96160E-5
19886.718750; 1.03489E-4
19892.578125; 9.15880E-5
19898.437500; 8.28345E-5
19904.296875; 9.57952E-5
19910.156250; 9.83125E-5
19916.015625; 1.03625E-4
19921.875000; 1.03505E-4
19927.734375; 1.11877E-4
19933.593750; 1.11471E-4
19939.453125; 1.16821E-4
19945.312500; 1.20918E-4
19951.171875; 1.03406E-4
19957.031250; 1.09630E-4
19962.890625; 1.15205E-4
19968.750000; 1.00982E-4
19974.609375; 1.08001E-4
19980.468750; 1.09015E-4
19986.328125; 9.83989E-5
19992.187500; 1.01932E-4
19998.046875; 1.05900E-4
20003.906250; 9.93017E-5
20009.765625; 9.75326E-5
20015.625000; 1.09626E-4
20021.484375; 1.08521E-4
20027.343750; 1.01183E-4
20033.203125; 1.07799E-4
20039.062500; 1.17102E-4
20044.921875; 1.10398E-4
20050.781250; 1.15227E-4
20056.640625; 1.09836E-4
20062.500000; 1.03385E-4
20068.359375; 1.03797E-4
20074.218750; 1.04762E-4
20080.078125; 1.12069E-4
20085.937500; 1.10661E-4
20091.796875; 1.12927E-4
20097.656250; 1.04953E-4
20103.515625; 1.01039E-4
20109.375000; 1.00674E-4
20115.234375; 9.99751E-5
20121.093750; 9.68691E-5
20126.953125; 1.00058E-4
20132.812500; 1.06479E-4
20138.671875; 1.09410E-4
20144.531250; 1.06073E-4
20150.390625; 8.98074E-5
20156.250000; 8.90359E-5
20162.109375; 9.79084E-5
20167.968750; 1.06306E-4
20173.828125; 1.00700E-4
20179.687500; 9.63998E-5
20185.546875; 9.56201E-5
20191.406250; 1.04266E-4
20197.265625; 1.10710E-4
20203.125000; 1.05747E-4
20208.984375; 1.04664E-4
20214.843750; 1.13548E-4
20220.703125; 1.02165E-4
20226.562500; 9.94583E-5
20232.421875; 1.02315E-4
20238.281250; 1.04121E-4
20244.140625; 1.09467E-4
20250.000000; 9.90589E-5
20255.859375; 9.74237E-5
20261.718750; 9.56399E-5
20267.578125; 9.71274E-5
20273.437500; 9.65768E-5
20279.296875; 1.10960E-4
20285.156250; 1.13365E-4
20291.015625; 1.13629E-4
20296.875000; 1.11265E-4
20302.734375; 9.18364E-5
20308.593750; 1.03173E-4
20314.453125; 1.01886E-4
20320.312500; 9.75505E-5
20326.171875; 8.82661E-5
20332.031250; 1.02636E-4
20337.890625; 1.09987E-4
20343.750000; 9.23606E-5
20349.609375; 9.87674E-5
20355.468750; 1.06410E-4
20361.328125; 1.05434E-4
20367.187500; 1.09125E-4
20373.046875; 1.12225E-4
20378.906250; 1.17720E-4
20384.765625; 1.18212E-4
20390.625000; 1.10262E-4
20396.484375; 1.00004E-4
20402.343750; 9.67204E-5
20408.203125; 1.01154E-4
20414.062500; 1.04202E-4
20419.921875; 1.08636E-4
20425.781250; 1.14696E-4
20431.640625; 1.08914E-4
20437.500000; 9.48996E-5
20443.359375; 9.61766E-5
20449.218750; 1.03184E-4
20455.078125; 1.06864E-4
20460.937500; 1.02337E-4
20466.796875; 1.12827E-4
20472.656250; 1.16033E-4
20478.515625; 1.02357E-4
20484.375000; 1.03997E-4
20490.234375; 9.87215E-5
20496.093750; 9.81667E-5
20501.953125; 1.06120E-4
20507.812500; 1.05417E-4
20513.671875; 1.05956E-4
20519.531250; 1.14902E-4
20525.390625; 1.25571E-4
20531.250000; 1.06615E-4
20537.109375; 9.85980E-5
20542.968750; 1.12993E-4
20548.828125; 1.08344E-4
20554.687500; 1.03667E-4
20560.546875; 1.08681E-4
20566.406250; 9.70446E-5
20572.265625; 8.69537E-5
20578.125000; 9.74625E-5
20583.984375; 1.01804E-4
20589.843750; 9.56572E-5
20595.703125; 1.09465E-4
20601.562500; 1.08201E-4
20607.421875; 9.72108E-5
20613.281250; 1.01978E-4
20619.140625; 1.12911E-4
20625.000000; 1.09250E-4
20630.859375; 1.02147E-4
20636.718750; 9.99262E-5
20642.578125; 1.04068E-4
20648.437500; 1.10284E-4
20654.296875; 9.52551E-5
20660.156250; 9.68614E-5
20666.015625; 1.05242E-4
20671.875000; 1.09842E-4
20677.734375; 1.04888E-4
20683.593750; 1.12067E-4
20689.453125; 1.08008E-4
20695.312500; 1.09841E-4
20701.171875; 1.02003E-4
20707.031250; 9.84201E-5
20712.890625; 9.47764E-5
20718.750000; 9.06715E-5
20724.609375; 9.94809E-5
20730.468750; 1.04578E-4
20736.328125; 9.85113E-5
20742.187500; 1.02719E-4
20748.046875; 1.04397E-4
20753.906250; 1.09567E-4
20759.765625; 1.04364E-4
20765.625000; 9.74079E-5
20771.484375; 1.08518E-4
20777.343750; 1.08153E-4
20783.203125; 1.07277E-4
20789.062500; 1.01097E-4
20794.921875; 9.63951E-5
20800.781250; 9.91896E-5
20806.640625; 9.53443E-5
20812.500000; 1.01446E-4
20818.359375; 1.03920E-4
20824.218750; 1.01598E-4
20830.078125; 1.07012E-4
20835.937500; 1.03293E-4
20841.796875; 1.05429E-4
20847.656250; 1.02364E-4
20853.515625; 1.02652E-4
20859.375000; 9.70015E-5
20865.234375; 1.04641E-4
20871.093750; 1.07031E-4
20876.953125; 1.01629E-4
20882.812500; 1.04713E-4
20888.671875; 9.26044E-5
20894.531250; 9.37642E-5
20900.390625; 1.12565E-4
20906.250000; 1.09324E-4
20912.109375; 1.01548E-4
20917.968750; 1.17159E-4
20923.828125; 1.13793E-4
20929.687500; 1.04817E-4
20935.546875; 1.03709E-4
20941.406250; 1.08452E-4
20947.265625; 1.03946E-4
20953.125000; 1.20706E-4
20958.984375; 1.14480E-4
20964.843750; 1.13298E-4
20970.703125; 1.09002E-4
20976.562500; 1.07479E-4
20982.421875; 1.04971E-4
20988.281250; 1.01579E-4
20994.140625; 1.07954E-4
21000.000000; 1.03002E-4
21005.859375; 1.01196E-4
21011.718750; 9.72587E-5
21017.578125; 1.04463E-4
21023.437500; 1.06371E-4
21029.296875; 9.73836E-5
21035.156250; 1.00603E-4
21041.015625; 9.33458E-5
21046.875000; 1.08619E-4
21052.734375; 1.18149E-4
21058.593750; 1.11020E-4
21064.453125; 9.35134E-5
21070.312500; 9.86920E-5
21076.171875; 1.01749E-4
21082.031250; 1.02905E-4
21087.890625; 9.96646E-5
21093.750000; 9.93788E-5
21099.609375; 1.04392E-4
21105.468750; 1.04998E-4
21111.328125; 9.52172E-5
21117.187500; 8.71137E-5
21123.046875; 9.67960E-5
21128.906250; 1.02613E-4
21134.765625; 9.45083E-5
21140.625000; 9.73249E-5
21146.484375; 1.05763E-4
21152.343750; 1.00595E-4
21158.203125; 1.10804E-4
21164.062500; 1.10446E-4
21169.921875; 1.09310E-4
21175.781250; 1.14353E-4
21181.640625; 1.14347E-4
21187.500000; 1.09491E-4
21193.359375; 9.88021E-5
21199.218750; 1.08203E-4
21205.078125; 1.18421E-4
21210.937500; 1.07704E-4
21216.796875; 9.98895E-5
21222.656250; 1.01969E-4
21228.515625; 1.03867E-4
21234.375000; 9.23491E-5
21240.234375; 8.51581E-5
21246.093750; 1.03213E-4
21251.953125; 1.09349E-4
21257.812500; 1.12762E-4
21263.671875; 1.09925E-4
21269.531250; 1.10452E-4
21275.390625; 1.09056E-4
21281.250000; 1.08672E-4
21287.109375; 1.05816E-4
21292.968750; 1.01479E-4
21298.828125; 1.03762E-4
21304.687500; 9.97566E-5
21310.546875; 9.76884E-5
21316.406250; 1.07636E-4
21322.265625; 1.10628E-4
21328.125000; 1.01389E-4
21333.984375; 1.13508E-4
21339.843750; 1.12026E-4
21345.703125; 1.03760E-4
21351.562500; 9.19231E-5
21357.421875; 9.02952E-5
21363.281250; 9.49737E-5
21369.140625; 1.03019E-4
21375.000000; 1.08465E-4
21380.859375; 1.04189E-4
21386.718750; 9.72121E-5
21392.578125; 1.02097E-4
21398.437500; 1.06398E-4
21404.296875; 1.23144E-4
21410.156250; 1.13209E-4
21416.015625; 1.04940E-4
21421.875000; 1.00029E-4
21427.734375; 1.05159E-4
21433.593750; 1.08956E-4
21439.453125; 1.00645E-4
21445.312500; 8.73664E-5
21451.171875; 8.63934E-5
21457.031250; 9.90258E-5
21462.890625; 9.84747E-5
21468.750000; 1.07873E-4
21474.609375; 1.09834E-4
21480.468750; 9.93962E-5
21486.328125; 9.87246E-5
21492.187500; 1.05373E-4
21498.046875; 1.09984E-4
21503.906250; 1.06790E-4
21509.765625; 1.09049E-4
21515.625000; 1.04546E-4
21521.484375; 1.10794E-4
21527.343750; 1.11425E-4
21533.203125; 1.17077E-4
21539.062500; 1.14840E-4
21544.921875; 1.05689E-4
21550.781250; 1.07359E-4
21556.640625; 1.07457E-4
21562.500000; 1.08465E-4
21568.359375; 1.09556E-4
21574.218750; 1.04328E-4
21580.078125; 1.07876E-4
21585.937500; 9.81888E-5
21591.796875; 9.43464E-5
21597.656250; 9.83215E-5
21603.515625; 1.00692E-4
21609.375000; 9.32290E-5
21615.234375; 1.15170E-4
21621.093750; 1.14656E-4
21626.953125; 1.00915E-4
21632.812500; 1.07540E-4
21638.671875; 1.08124E-4
21644.531250; 1.09674E-4
21650.390625; 1.13076E-4
21656.250000; 1.08516E-4
21662.109375; 1.04976E-4
21667.968750; 1.02687E-4
21673.828125; 1.01211E-4
21679.687500; 9.74775E-5
21685.546875; 9.19292E-5
21691.406250; 9.03317E-5
21697.265625; 9.25785E-5
21703.125000; 1.02967E-4
21708.984375; 1.11734E-4
21714.843750; 1.19808E-4
21720.703125; 1.04991E-4
21726.562500; 9.53973E-5
21732.421875; 9.58260E-5
21738.281250; 1.04324E-4
21744.140625; 1.00335E-4
21750.000000; 1.03297E-4
21755.859375; 9.54191E-5
21761.718750; 9.49071E-5
21767.578125; 1.04035E-4
21773.437500; 1.16183E-4
21779.296875; 1.10123E-4
21785.156250; 1.03547E-4
21791.015625; 1.10268E-4
21796.875000; 1.11891E-4
21802.734375; 1.03888E-4
21808.593750; 9.51722E-5
21814.453125; 9.95073E-5
21820.312500; 1.08029E-4
21826.171875; 1.04643E-4
21832.031250; 1.03893E-4
21837.890625; 1.12209E-4
21843.750000; 1.10659E-4
21849.609375; 1.02141E-4
21855.468750; 9.77445E-5
21861.328125; 1.09292E-4
21867.187500; 1.00853E-4
21873.046875; 9.41593E-5
21878.906250; 9.59020E-5
21884.765625; 9.32291E-5
21890.625000; 9.30093E-5
21896.484375; 1.03322E-4
21902.343750; 1.02944E-4
21908.203125; 1.06309E-4
21914.062500; 1.11199E-4
21919.921875; 1.13676E-4
21925.781250; 1.03782E-4
21931.640625; 9.34755E-5
21937.500000; 8.70263E-5
21943.359375; 9.06369E-5
21949.218750; 9.77316E-5
21955.078125; 1.12063E-4
21960.937500; 1.07736E-4
21966.796875; 9.69120E-5
21972.656250; 1.04848E-4
21978.515625; 1.10890E-4
21984.375000; 1.06663E-4
21990.234375; 1.06474E-4
21996.093750; 1.10865E-4
22001.953125; 1.01634E-4
22007.812500; 1.00428E-4
22013.671875; 8.98931E-5
22019.531250; 9.27965E-5
22025.390625; 9.30142E-5
22031.250000; 9.56767E-5
22037.109375; 1.07179E-4
22042.968750; 9.40287E-5
22048.828125; 9.37356E-5
22054.687500; 9.92031E-5
22060.546875; 1.00030E-4
22066.406250; 1.00800E-4
22072.265625; 9.87619E-5
22078.125000; 9.96018E-5
22083.984375; 9.40669E-5
22089.843750; 9.66184E-5
22095.703125; 9.83658E-5
22101.562500; 8.99788E-5
22107.421875; 8.91765E-5
22113.281250; 9.23972E-5
22119.140625; 8.62610E-5
22125.000000; 8.94477E-5
22130.859375; 9.80855E-5
22136.718750; 9.66400E-5
22142.578125; 9.28381E-5
22148.437500; 9.60899E-5
22154.296875; 9.06860E-5
22160.156250; 9.66857E-5
22166.015625; 1.04092E-4
22171.875000; 1.04221E-4
22177.734375; 1.02323E-4
22183.593750; 1.06815E-4
22189.453125; 1.10478E-4
22195.312500; 1.06829E-4
22201.171875; 1.00948E-4
22207.031250; 9.91049E-5
22212.890625; 1.01800E-4
22218.750000; 1.05185E-4
22224.609375; 1.10864E-4
22230.468750; 1.23431E-4
22236.328125; 1.08118E-4
22242.187500; 9.46428E-5
22248.046875; 1.08763E-4
22253.906250; 1.00273E-4
22259.765625; 9.45264E-5
22265.625000; 1.03844E-4
22271.484375; 1.10108E-4
22277.343750; 1.06652E-4
22283.203125; 9.16989E-5
22289.062500; 9.35969E-5
22294.921875; 9.47099E-5
22300.781250; 9.25730E-5
22306.640625; 1.04147E-4
22312.500000; 1.08290E-4
22318.359375; 9.81734E-5
22324.218750; 9.82250E-5
22330.078125; 1.02968E-4
22335.937500; 1.02187E-4
22341.796875; 9.92034E-5
22347.656250; 1.05022E-4
22353.515625; 1.12223E-4
22359.375000; 9.50256E-5
22365.234375; 9.53217E-5
22371.093750; 1.05250E-4
22376.953125; 9.42644E-5
22382.812500; 8.93736E-5
22388.671875; 9.53221E-5
22394.531250; 9.93204E-5
22400.390625; 9.42633E-5
22406.250000; 1.00370E-4
22412.109375; 1.06589E-4
22417.968750; 1.02332E-4
22423.828125; 9.87427E-5
22429.687500; 1.10336E-4
22435.546875; 1.07064E-4
22441.406250; 9.57686E-5
22447.265625; 8.99147E-5
22453.125000; 9.43597E-5
22458.984375; 9.96836E-5
22464.843750; 9.71084E-5
22470.703125; 9.84947E-5
22476.562500; 1.02921E-4
22482.421875; 1.04470E-4
22488.281250; 1.04462E-4
22494.140625; 9.40191E-5
22500.000000; 9.86729E-5
22505.859375; 9.70655E-5
22511.718750; 8.68284E-5
22517.578125; 9.07488E-5
22523.437500; 9.72396E-5
22529.296875; 9.85915E-5
22535.156250; 9.91222E-5
22541.015625; 9.48016E-5
22546.875000; 8.92680E-5
22552.734375; 1.01673E-4
22558.593750; 1.03055E-4
22564.453125; 1.00063E-4
22570.312500; 1.00848E-4
22576.171875; 1.03921E-4
22582.031250; 9.00331E-5
22587.890625; 8.45565E-5
22593.750000; 8.67080E-5
22599.609375; 9.04148E-5
22605.468750; 9.95710E-5
22611.328125; 9.11529E-5
22617.187500; 8.65585E-5
22623.046875; 9.07559E-5
22628.906250; 9.38745E-5
22634.765625; 8.35620E-5
22640.625000; 8.60615E-5
22646.484375; 9.04571E-5
22652.343750; 1.03559E-4
22658.203125; 8.71890E-5
22664.062500; 8.55584E-5
22669.921875; 9.41110E-5
22675.781250; 1.01814E-4
22681.640625; 9.65637E-5
22687.500000; 8.83548E-5
22693.359375; 9.76625E-5
22699.218750; 8.90594E-5
22705.078125; 8.68294E-5
22710.937500; 8.31905E-5
22716.796875; 8.61028E-5
22722.656250; 9.12722E-5
22728.515625; 8.94294E-5
22734.375000; 8.75446E-5
22740.234375; 8.62258E-5
22746.093750; 8.58811E-5
22751.953125; 8.68022E-5
22757.812500; 9.05720E-5
22763.671875; 7.75280E-5
22769.531250; 8.27198E-5
22775.390625; 8.56969E-5
22781.250000; 8.63051E-5
22787.109375; 8.04940E-5
22792.968750; 8.13140E-5
22798.828125; 8.01470E-5
22804.687500; 7.97198E-5
22810.546875; 7.91956E-5
22816.406250; 8.09968E-5
22822.265625; 8.75123E-5
22828.125000; 9.41350E-5
22833.984375; 8.54739E-5
22839.843750; 7.88168E-5
22845.703125; 8.53243E-5
22851.562500; 8.73290E-5
22857.421875; 7.41629E-5
22863.281250; 8.26973E-5
22869.140625; 8.51331E-5
22875.000000; 8.52617E-5
22880.859375; 9.27901E-5
22886.718750; 8.37589E-5
22892.578125; 8.37195E-5
22898.437500; 8.10154E-5
22904.296875; 8.15667E-5
22910.156250; 8.35834E-5
22916.015625; 8.26576E-5
22921.875000; 7.89821E-5
22927.734375; 7.93700E-5
22933.593750; 7.57832E-5
22939.453125; 7.86045E-5
22945.312500; 7.78539E-5
22951.171875; 7.64597E-5
22957.031250; 7.83181E-5
22962.890625; 7.42367E-5
22968.750000; 7.70926E-5
22974.609375; 8.89960E-5
22980.468750; 8.59293E-5
22986.328125; 8.60226E-5
22992.187500; 8.46901E-5
22998.046875; 8.60236E-5
23003.906250; 8.63760E-5
23009.765625; 7.89798E-5
23015.625000; 7.60876E-5
23021.484375; 7.46032E-5
23027.343750; 7.71113E-5
23033.203125; 7.40810E-5
23039.062500; 7.62055E-5
23044.921875; 7.14040E-5
23050.781250; 7.85479E-5
23056.640625; 8.00938E-5
23062.500000; 7.65028E-5
23068.359375; 7.21191E-5
23074.218750; 7.98298E-5
23080.078125; 8.06468E-5
23085.937500; 7.37225E-5
23091.796875; 6.48833E-5
23097.656250; 7.76061E-5
23103.515625; 7.98767E-5
23109.375000; 7.42041E-5
23115.234375; 7.41594E-5
23121.093750; 7.31562E-5
23126.953125; 6.96235E-5
23132.812500; 6.59961E-5
23138.671875; 8.33157E-5
23144.531250; 7.74582E-5
23150.390625; 6.30602E-5
23156.250000; 6.93618E-5
23162.109375; 6.99525E-5
23167.968750; 7.37710E-5
23173.828125; 7.76106E-5
23179.687500; 7.35275E-5
23185.546875; 7.14271E-5
23191.406250; 7.07194E-5
23197.265625; 7.05348E-5
23203.125000; 6.95183E-5
23208.984375; 7.15874E-5
23214.843750; 6.99191E-5
23220.703125; 6.89668E-5
23226.562500; 6.63948E-5
23232.421875; 6.41416E-5
23238.281250; 7.21423E-5
23244.140625; 6.54134E-5
23250.000000; 6.62706E-5
23255.859375; 7.02205E-5
23261.718750; 6.82065E-5
23267.578125; 6.52055E-5
23273.437500; 6.01578E-5
23279.296875; 5.42601E-5
23285.156250; 5.45400E-5
23291.015625; 5.65323E-5
23296.875000; 5.89725E-5
23302.734375; 6.03215E-5
23308.593750; 6.00688E-5
23314.453125; 5.89497E-5
23320.312500; 6.59296E-5
23326.171875; 6.41195E-5
23332.031250; 5.77178E-5
23337.890625; 5.47214E-5
23343.750000; 5.35260E-5
23349.609375; 5.25648E-5
23355.468750; 5.54186E-5
23361.328125; 6.26654E-5
23367.187500; 6.34398E-5
23373.046875; 6.46118E-5
23378.906250; 6.15620E-5
23384.765625; 5.53905E-5
23390.625000; 5.58944E-5
23396.484375; 5.75394E-5
23402.343750; 5.69702E-5
23408.203125; 5.25238E-5
23414.062500; 6.04830E-5
23419.921875; 5.86650E-5
23425.781250; 5.65251E-5
23431.640625; 5.31631E-5
23437.500000; 5.70850E-5
23443.359375; 5.40991E-5
23449.218750; 5.24992E-5
23455.078125; 5.34247E-5
23460.937500; 4.95068E-5
23466.796875; 5.24582E-5
23472.656250; 5.95909E-5
23478.515625; 5.84183E-5
23484.375000; 5.40730E-5
23490.234375; 4.93632E-5
23496.093750; 4.75269E-5
23501.953125; 4.40216E-5
23507.812500; 4.52253E-5
23513.671875; 5.77873E-5
23519.531250; 7.13917E-5
23525.390625; 7.27092E-5
23531.250000; 5.01222E-5
23537.109375; 5.15051E-5
23542.968750; 5.42623E-5
23548.828125; 5.13282E-5
23554.687500; 4.29962E-5
23560.546875; 4.60272E-5
23566.406250; 5.40106E-5
23572.265625; 5.04953E-5
23578.125000; 4.54163E-5
23583.984375; 4.74591E-5
23589.843750; 4.65945E-5
23595.703125; 4.66327E-5
23601.562500; 4.54419E-5
23607.421875; 4.58746E-5
23613.281250; 4.84411E-5
23619.140625; 4.47990E-5
23625.000000; 4.12790E-5
23630.859375; 4.35435E-5
23636.718750; 4.73432E-5
23642.578125; 4.45755E-5
23648.437500; 4.49928E-5
23654.296875; 4.34321E-5
23660.156250; 4.25317E-5
23666.015625; 4.20241E-5
23671.875000; 3.97312E-5
23677.734375; 4.32943E-5
23683.593750; 4.10858E-5
23689.453125; 4.41858E-5
23695.312500; 4.30793E-5
23701.171875; 4.40009E-5
23707.031250; 4.23114E-5
23712.890625; 4.15995E-5
23718.750000; 3.78542E-5
23724.609375; 4.16108E-5
23730.468750; 4.49678E-5
23736.328125; 4.11430E-5
23742.187500; 4.30902E-5
23748.046875; 4.28503E-5
23753.906250; 3.79833E-5
23759.765625; 4.05201E-5
23765.625000; 3.83134E-5
23771.484375; 3.86120E-5
23777.343750; 3.70595E-5
23783.203125; 3.77588E-5
23789.062500; 3.57214E-5
23794.921875; 4.03032E-5
23800.781250; 4.59660E-5
23806.640625; 4.00803E-5
23812.500000; 3.73109E-5
23818.359375; 3.69836E-5
23824.218750; 3.42089E-5
23830.078125; 3.42099E-5
23835.937500; 3.38467E-5
23841.796875; 3.55047E-5
23847.656250; 3.61013E-5
23853.515625; 3.63155E-5
23859.375000; 3.97452E-5
23865.234375; 3.68988E-5
23871.093750; 3.49913E-5
23876.953125; 3.82203E-5
23882.812500; 3.77547E-5
23888.671875; 3.89554E-5
23894.531250; 3.68457E-5
23900.390625; 3.77699E-5
23906.250000; 3.84177E-5
23912.109375; 3.77167E-5
23917.968750; 3.69792E-5
23923.828125; 3.65743E-5
23929.687500; 3.18303E-5
23935.546875; 3.38632E-5
23941.406250; 3.41722E-5
23947.265625; 3.93130E-5
23953.125000; 4.40016E-5
23958.984375; 4.07095E-5
23964.843750; 3.29671E-5
23970.703125; 3.29306E-5
23976.562500; 3.76465E-5
23982.421875; 3.58588E-5
23988.281250; 3.66889E-5
23994.140625; 3.95314E-5
