* Measurement data measured by REW V5.31.3
* Source: PCM: default, no input selected, 2, volume: no control
* Format: 8192-point spectrum using Hann window and exponential averaging 0.97 
* Dated: Mar 9, 2025 1:08:17 PM
* REW Settings:
*  C-weighting compensation: Off
*  Target level: 75.0 dB
* Note: OSDEHA MU-OUTPUT; 8192-point spectrum using Hann window and exponential averaging 0.97  Input RMS 10.00 V 10.00 VC, 10.00 VA 10.00 V 22 - 22k UNW 959.7 uV >22k Distortion at 1,000.0 Hz, -20.00 dBFS: Gain: 29.68 dB THD: 0.014 % based on 21 harmonics  [0..22800 Hz] HHD: 0.0038 %  [10 .. 22] N: 0.14 %  [0..22800 Hz] N+D: 4.650 mV A THD+N: 0.14 %  [0..22800 Hz] SNR: 57.0 dB ENOB: 13.0 bits 2nd harmonic 0.013 % 143 deg 3rd harmonic 0.0013 % 44 deg 4th harmonic 0.0012 % -117 deg 5th harmonic 0.0011 % 100 deg 6th harmonic 0.0011 % 107 deg 7th harmonic 0.0011 % -10 deg 8th harmonic 0.0011 % -49 deg 9th harmonic 0.0011 % -31 deg 
* Measurement: OSDEHA MU-OUT 10V
* Smoothing: None
* Frequency Step: 5.859375 Hz
* Start Frequency: 5.859375 Hz
*
* Freq(Hz); V(V)
5.859375; 3.67004E-4
11.718750; 3.72969E-4
17.578125; 2.88047E-4
23.437500; 2.64795E-4
29.296875; 2.20884E-4
35.156250; 2.23211E-4
41.015625; 2.33757E-4
46.875000; 3.59681E-4
52.734375; 3.70479E-4
58.593750; 2.06244E-4
64.453125; 1.83711E-4
70.312500; 1.83788E-4
76.171875; 1.86211E-4
82.031250; 2.05564E-4
87.890625; 2.33310E-4
93.750000; 5.77530E-3
99.609375; 1.28342E-2
105.468750; 7.10698E-3
111.328125; 2.47299E-4
117.187500; 1.63614E-4
123.046875; 1.57624E-4
128.906250; 1.51608E-4
134.765625; 1.67141E-4
140.625000; 1.68532E-4
146.484375; 1.70514E-4
152.343750; 1.62632E-4
158.203125; 1.53189E-4
164.062500; 1.63358E-4
169.921875; 1.68723E-4
175.781250; 1.48705E-4
181.640625; 1.49040E-4
187.500000; 1.45199E-4
193.359375; 5.72405E-4
199.218750; 1.34049E-3
205.078125; 8.29118E-4
210.937500; 1.53777E-4
216.796875; 1.35942E-4
222.656250; 1.33793E-4
228.515625; 1.36518E-4
234.375000; 1.28382E-4
240.234375; 1.40346E-4
246.093750; 1.61841E-4
251.953125; 1.62584E-4
257.812500; 1.49051E-4
263.671875; 1.44230E-4
269.531250; 1.26408E-4
275.390625; 1.28400E-4
281.250000; 1.46227E-4
287.109375; 1.32397E-4
292.968750; 1.84348E-4
298.828125; 3.81122E-4
304.687500; 2.95186E-4
310.546875; 1.53657E-4
316.406250; 1.50467E-4
322.265625; 1.34223E-4
328.125000; 1.21659E-4
333.984375; 1.22490E-4
339.843750; 1.28656E-4
345.703125; 1.37828E-4
351.562500; 1.48583E-4
357.421875; 1.33304E-4
363.281250; 1.25145E-4
369.140625; 1.29356E-4
375.000000; 1.21958E-4
380.859375; 1.28592E-4
386.718750; 1.32682E-4
392.578125; 1.49454E-4
398.437500; 2.82968E-4
404.296875; 2.36309E-4
410.156250; 1.49807E-4
416.015625; 1.42980E-4
421.875000; 1.24659E-4
427.734375; 1.25674E-4
433.593750; 1.31394E-4
439.453125; 1.15037E-4
445.312500; 1.23376E-4
451.171875; 1.31035E-4
457.031250; 1.28375E-4
462.890625; 1.30371E-4
468.750000; 1.33201E-4
474.609375; 1.42133E-4
480.468750; 1.29549E-4
486.328125; 1.21203E-4
492.187500; 1.22299E-4
498.046875; 1.38654E-4
503.906250; 1.32378E-4
509.765625; 1.21038E-4
515.625000; 1.09561E-4
521.484375; 1.17593E-4
527.343750; 1.22058E-4
533.203125; 1.23486E-4
539.062500; 1.18567E-4
544.921875; 1.25531E-4
550.781250; 1.33424E-4
556.640625; 1.26228E-4
562.500000; 1.36338E-4
568.359375; 1.38396E-4
574.218750; 1.25808E-4
580.078125; 1.20716E-4
585.937500; 1.25774E-4
591.796875; 1.21222E-4
597.656250; 1.18969E-4
603.515625; 1.33614E-4
609.375000; 1.37692E-4
615.234375; 1.27432E-4
621.093750; 1.16996E-4
626.953125; 1.21164E-4
632.812500; 1.28789E-4
638.671875; 1.33175E-4
644.531250; 1.36004E-4
650.390625; 1.43773E-4
656.250000; 1.26152E-4
662.109375; 1.11507E-4
667.968750; 1.16920E-4
673.828125; 1.25821E-4
679.687500; 1.21646E-4
685.546875; 1.22987E-4
691.406250; 1.26170E-4
697.265625; 1.31628E-4
703.125000; 1.33783E-4
708.984375; 1.21610E-4
714.843750; 1.27207E-4
720.703125; 1.24467E-4
726.562500; 1.22194E-4
732.421875; 1.27099E-4
738.281250; 1.12224E-4
744.140625; 1.15800E-4
750.000000; 1.32868E-4
755.859375; 1.26944E-4
761.718750; 1.31222E-4
767.578125; 1.27920E-4
773.437500; 1.26931E-4
779.296875; 1.37045E-4
785.156250; 1.34930E-4
791.015625; 1.35477E-4
796.875000; 1.35220E-4
802.734375; 1.47051E-4
808.593750; 1.55335E-4
814.453125; 1.46552E-4
820.312500; 1.59057E-4
826.171875; 1.64003E-4
832.031250; 1.80808E-4
837.890625; 1.82071E-4
843.750000; 1.95554E-4
849.609375; 2.07570E-4
855.468750; 2.12990E-4
861.328125; 2.20025E-4
867.187500; 2.79596E-4
873.046875; 2.95086E-4
878.906250; 3.40052E-4
884.765625; 3.87326E-4
890.625000; 4.35029E-4
896.484375; 5.12048E-4
902.343750; 6.13695E-4
908.203125; 7.36170E-4
914.062500; 8.90623E-4
919.921875; 1.07935E-3
925.781250; 1.38133E-3
931.640625; 1.75804E-3
937.500000; 2.28127E-3
943.359375; 3.10107E-3
949.218750; 4.28156E-3
955.078125; 6.24380E-3
960.937500; 9.50284E-3
966.796875; 1.56479E-2
972.656250; 2.84316E-2
978.515625; 6.04320E-2
984.375000; 1.69206E-1
990.234375; 9.30587E-1
996.093750; 7.44478E0
1001.953125; 9.30598E0
1007.812500; 2.65885E0
1013.671875; 2.65882E-1
1019.531250; 8.18264E-2
1025.390625; 3.57634E-2
1031.250000; 1.88510E-2
1037.109375; 1.11433E-2
1042.968750; 7.11974E-3
1048.828125; 4.83773E-3
1054.687500; 3.41933E-3
1060.546875; 2.53809E-3
1066.406250; 1.91397E-3
1072.265625; 1.47292E-3
1078.125000; 1.18019E-3
1083.984375; 9.66064E-4
1089.843750; 7.65376E-4
1095.703125; 6.39812E-4
1101.562500; 5.57436E-4
1107.421875; 4.62911E-4
1113.281250; 3.99919E-4
1119.140625; 3.52771E-4
1125.000000; 3.09486E-4
1130.859375; 2.60681E-4
1136.718750; 2.69491E-4
1142.578125; 2.12112E-4
1148.437500; 2.19406E-4
1154.296875; 1.83502E-4
1160.156250; 1.88989E-4
1166.015625; 1.74967E-4
1171.875000; 1.54769E-4
1177.734375; 1.57144E-4
1183.593750; 1.34352E-4
1189.453125; 1.62642E-4
1195.312500; 1.34729E-4
1201.171875; 1.38549E-4
1207.031250; 1.24588E-4
1212.890625; 1.28280E-4
1218.750000; 1.31311E-4
1224.609375; 1.37384E-4
1230.468750; 1.14920E-4
1236.328125; 1.27419E-4
1242.187500; 1.29754E-4
1248.046875; 1.32976E-4
1253.906250; 1.20296E-4
1259.765625; 1.21780E-4
1265.625000; 1.01322E-4
1271.484375; 1.09397E-4
1277.343750; 1.11907E-4
1283.203125; 1.10894E-4
1289.062500; 1.17292E-4
1294.921875; 1.18698E-4
1300.781250; 1.14976E-4
1306.640625; 1.16179E-4
1312.500000; 1.19075E-4
1318.359375; 1.26131E-4
1324.218750; 1.32399E-4
1330.078125; 1.23655E-4
1335.937500; 1.09238E-4
1341.796875; 1.17467E-4
1347.656250; 1.38331E-4
1353.515625; 1.27057E-4
1359.375000; 1.27543E-4
1365.234375; 1.27443E-4
1371.093750; 1.30091E-4
1376.953125; 1.25641E-4
1382.812500; 1.13888E-4
1388.671875; 1.14170E-4
1394.531250; 1.25644E-4
1400.390625; 1.14860E-4
1406.250000; 1.12111E-4
1412.109375; 1.21910E-4
1417.968750; 1.22613E-4
1423.828125; 1.19575E-4
1429.687500; 1.05982E-4
1435.546875; 1.09545E-4
1441.406250; 1.22812E-4
1447.265625; 1.31199E-4
1453.125000; 1.24280E-4
1458.984375; 1.17396E-4
1464.843750; 1.18924E-4
1470.703125; 1.22745E-4
1476.562500; 1.19606E-4
1482.421875; 1.15358E-4
1488.281250; 1.21420E-4
1494.140625; 1.14114E-4
1500.000000; 1.23659E-4
1505.859375; 1.25637E-4
1511.718750; 1.28097E-4
1517.578125; 1.19263E-4
1523.437500; 1.10899E-4
1529.296875; 9.90606E-5
1535.156250; 1.06854E-4
1541.015625; 1.15567E-4
1546.875000; 1.12824E-4
1552.734375; 1.13626E-4
1558.593750; 1.06581E-4
1564.453125; 1.21706E-4
1570.312500; 1.18251E-4
1576.171875; 1.12565E-4
1582.031250; 1.19892E-4
1587.890625; 1.16760E-4
1593.750000; 1.13896E-4
1599.609375; 1.14803E-4
1605.468750; 1.09843E-4
1611.328125; 1.12800E-4
1617.187500; 1.02492E-4
1623.046875; 1.13073E-4
1628.906250; 1.25382E-4
1634.765625; 1.16956E-4
1640.625000; 1.16441E-4
1646.484375; 1.22961E-4
1652.343750; 1.23610E-4
1658.203125; 1.13565E-4
1664.062500; 1.03715E-4
1669.921875; 1.16900E-4
1675.781250; 1.15780E-4
1681.640625; 1.28381E-4
1687.500000; 1.34003E-4
1693.359375; 9.93431E-5
1699.218750; 9.27061E-5
1705.078125; 1.07208E-4
1710.937500; 9.89455E-5
1716.796875; 1.15873E-4
1722.656250; 1.08894E-4
1728.515625; 1.08181E-4
1734.375000; 1.24801E-4
1740.234375; 1.19225E-4
1746.093750; 1.04566E-4
1751.953125; 1.06697E-4
1757.812500; 1.23691E-4
1763.671875; 1.15632E-4
1769.531250; 1.06257E-4
1775.390625; 1.06600E-4
1781.250000; 1.13354E-4
1787.109375; 1.10187E-4
1792.968750; 1.17563E-4
1798.828125; 1.21540E-4
1804.687500; 1.08076E-4
1810.546875; 1.10406E-4
1816.406250; 1.12457E-4
1822.265625; 1.09209E-4
1828.125000; 1.18984E-4
1833.984375; 1.14439E-4
1839.843750; 1.18212E-4
1845.703125; 1.23272E-4
1851.562500; 1.28184E-4
1857.421875; 1.21541E-4
1863.281250; 1.23227E-4
1869.140625; 1.24373E-4
1875.000000; 1.17965E-4
1880.859375; 1.21488E-4
1886.718750; 1.12291E-4
1892.578125; 1.08591E-4
1898.437500; 1.14550E-4
1904.296875; 1.05013E-4
1910.156250; 1.02024E-4
1916.015625; 1.11165E-4
1921.875000; 1.30545E-4
1927.734375; 1.21818E-4
1933.593750; 1.03128E-4
1939.453125; 1.03325E-4
1945.312500; 1.08515E-4
1951.171875; 1.08021E-4
1957.031250; 1.16018E-4
1962.890625; 1.25230E-4
1968.750000; 1.19951E-4
1974.609375; 1.20314E-4
1980.468750; 1.15584E-4
1986.328125; 1.17022E-4
1992.187500; 3.52110E-4
1998.046875; 1.18220E-3
2003.906250; 9.52011E-4
2009.765625; 1.72481E-4
2015.625000; 1.09862E-4
2021.484375; 1.08121E-4
2027.343750; 1.22116E-4
2033.203125; 1.20129E-4
2039.062500; 1.17730E-4
2044.921875; 1.14188E-4
2050.781250; 1.18844E-4
2056.640625; 1.16019E-4
2062.500000; 1.27441E-4
2068.359375; 1.18102E-4
2074.218750; 1.13982E-4
2080.078125; 1.17961E-4
2085.937500; 1.28109E-4
2091.796875; 1.15787E-4
2097.656250; 1.10098E-4
2103.515625; 1.15806E-4
2109.375000; 1.28554E-4
2115.234375; 1.17223E-4
2121.093750; 1.12764E-4
2126.953125; 1.12377E-4
2132.812500; 1.14319E-4
2138.671875; 1.15099E-4
2144.531250; 1.23961E-4
2150.390625; 1.30702E-4
2156.250000; 1.30982E-4
2162.109375; 1.25742E-4
2167.968750; 1.14424E-4
2173.828125; 1.12496E-4
2179.687500; 1.13225E-4
2185.546875; 1.16364E-4
2191.406250; 1.16404E-4
2197.265625; 1.07244E-4
2203.125000; 1.07990E-4
2208.984375; 1.19924E-4
2214.843750; 1.21017E-4
2220.703125; 1.21736E-4
2226.562500; 1.18571E-4
2232.421875; 1.10141E-4
2238.281250; 1.05299E-4
2244.140625; 1.08895E-4
2250.000000; 1.09366E-4
2255.859375; 1.08502E-4
2261.718750; 1.03461E-4
2267.578125; 1.13505E-4
2273.437500; 1.14970E-4
2279.296875; 1.19960E-4
2285.156250; 1.23596E-4
2291.015625; 1.05301E-4
2296.875000; 1.13624E-4
2302.734375; 1.10501E-4
2308.593750; 1.19431E-4
2314.453125; 1.15401E-4
2320.312500; 1.11258E-4
2326.171875; 1.04061E-4
2332.031250; 9.01119E-5
2337.890625; 9.89053E-5
2343.750000; 1.10394E-4
2349.609375; 1.08205E-4
2355.468750; 1.19279E-4
2361.328125; 1.06838E-4
2367.187500; 1.03419E-4
2373.046875; 1.09772E-4
2378.906250; 1.18503E-4
2384.765625; 1.15944E-4
2390.625000; 1.11212E-4
2396.484375; 1.18203E-4
2402.343750; 1.12292E-4
2408.203125; 1.08633E-4
2414.062500; 1.13643E-4
2419.921875; 1.09049E-4
2425.781250; 1.00893E-4
2431.640625; 1.08972E-4
2437.500000; 1.04965E-4
2443.359375; 1.04179E-4
2449.218750; 1.13223E-4
2455.078125; 1.17142E-4
2460.937500; 9.90925E-5
2466.796875; 1.10003E-4
2472.656250; 1.22571E-4
2478.515625; 1.14334E-4
2484.375000; 1.11975E-4
2490.234375; 1.25340E-4
2496.093750; 1.29346E-4
2501.953125; 1.07757E-4
2507.812500; 1.01774E-4
2513.671875; 1.02374E-4
2519.531250; 1.07724E-4
2525.390625; 1.35539E-4
2531.250000; 1.17388E-4
2537.109375; 1.06763E-4
2542.968750; 1.09329E-4
2548.828125; 9.90746E-5
2554.687500; 1.04784E-4
2560.546875; 1.13950E-4
2566.406250; 1.15791E-4
2572.265625; 1.10151E-4
2578.125000; 1.04026E-4
2583.984375; 1.04845E-4
2589.843750; 1.05964E-4
2595.703125; 1.07486E-4
2601.562500; 1.13305E-4
2607.421875; 1.02857E-4
2613.281250; 1.03075E-4
2619.140625; 1.01320E-4
2625.000000; 1.10894E-4
2630.859375; 1.21149E-4
2636.718750; 1.12164E-4
2642.578125; 1.14090E-4
2648.437500; 1.08191E-4
2654.296875; 1.11694E-4
2660.156250; 1.13263E-4
2666.015625; 1.21373E-4
2671.875000; 1.22329E-4
2677.734375; 1.13614E-4
2683.593750; 1.05924E-4
2689.453125; 1.07389E-4
2695.312500; 1.12853E-4
2701.171875; 1.07496E-4
2707.031250; 1.05973E-4
2712.890625; 1.10103E-4
2718.750000; 1.14787E-4
2724.609375; 9.97940E-5
2730.468750; 1.08263E-4
2736.328125; 1.03551E-4
2742.187500; 1.15595E-4
2748.046875; 1.17060E-4
2753.906250; 1.09472E-4
2759.765625; 1.13151E-4
2765.625000; 1.23710E-4
2771.484375; 1.16735E-4
2777.343750; 1.16929E-4
2783.203125; 1.14196E-4
2789.062500; 1.09487E-4
2794.921875; 1.03458E-4
2800.781250; 1.03424E-4
2806.640625; 1.10622E-4
2812.500000; 1.11857E-4
2818.359375; 1.07148E-4
2824.218750; 1.20236E-4
2830.078125; 1.20061E-4
2835.937500; 1.18352E-4
2841.796875; 1.19870E-4
2847.656250; 1.13823E-4
2853.515625; 1.16976E-4
2859.375000; 1.18175E-4
2865.234375; 1.16205E-4
2871.093750; 1.10186E-4
2876.953125; 1.16331E-4
2882.812500; 1.16167E-4
2888.671875; 1.19290E-4
2894.531250; 1.07203E-4
2900.390625; 1.11311E-4
2906.250000; 1.16975E-4
2912.109375; 1.12972E-4
2917.968750; 1.21319E-4
2923.828125; 1.28405E-4
2929.687500; 1.16693E-4
2935.546875; 1.05285E-4
2941.406250; 1.00087E-4
2947.265625; 1.05575E-4
2953.125000; 1.08153E-4
2958.984375; 1.08789E-4
2964.843750; 1.10936E-4
2970.703125; 1.11146E-4
2976.562500; 1.16594E-4
2982.421875; 1.17064E-4
2988.281250; 1.26588E-4
2994.140625; 1.40195E-4
3000.000000; 1.49684E-4
3005.859375; 1.25190E-4
3011.718750; 1.12495E-4
3017.578125; 1.14266E-4
3023.437500; 1.07735E-4
3029.296875; 1.08631E-4
3035.156250; 1.19203E-4
3041.015625; 1.13272E-4
3046.875000; 1.13477E-4
3052.734375; 9.94859E-5
3058.593750; 9.52398E-5
3064.453125; 1.03230E-4
3070.312500; 1.11665E-4
3076.171875; 1.13760E-4
3082.031250; 1.21738E-4
3087.890625; 1.22543E-4
3093.750000; 1.16630E-4
3099.609375; 1.12555E-4
3105.468750; 1.05881E-4
3111.328125; 1.10101E-4
3117.187500; 1.00311E-4
3123.046875; 1.12932E-4
3128.906250; 1.16495E-4
3134.765625; 1.04781E-4
3140.625000; 1.09686E-4
3146.484375; 1.22956E-4
3152.343750; 1.03892E-4
3158.203125; 1.17813E-4
3164.062500; 1.22338E-4
3169.921875; 1.17881E-4
3175.781250; 1.23625E-4
3181.640625; 1.11079E-4
3187.500000; 9.68372E-5
3193.359375; 9.49928E-5
3199.218750; 1.06077E-4
3205.078125; 1.04335E-4
3210.937500; 1.12200E-4
3216.796875; 1.08435E-4
3222.656250; 1.16086E-4
3228.515625; 1.14368E-4
3234.375000; 1.03440E-4
3240.234375; 1.05780E-4
3246.093750; 1.13055E-4
3251.953125; 1.14565E-4
3257.812500; 1.15597E-4
3263.671875; 1.16702E-4
3269.531250; 1.03720E-4
3275.390625; 1.01110E-4
3281.250000; 1.18468E-4
3287.109375; 1.10684E-4
3292.968750; 1.12268E-4
3298.828125; 1.06937E-4
3304.687500; 1.14832E-4
3310.546875; 1.16936E-4
3316.406250; 1.13890E-4
3322.265625; 1.08895E-4
3328.125000; 1.05869E-4
3333.984375; 1.07581E-4
3339.843750; 1.07808E-4
3345.703125; 1.18735E-4
3351.562500; 1.09685E-4
3357.421875; 1.10539E-4
3363.281250; 1.23247E-4
3369.140625; 1.06627E-4
3375.000000; 1.08249E-4
3380.859375; 1.13289E-4
3386.718750; 1.15453E-4
3392.578125; 1.11037E-4
3398.437500; 1.13115E-4
3404.296875; 1.30957E-4
3410.156250; 1.27270E-4
3416.015625; 1.07802E-4
3421.875000; 1.00972E-4
3427.734375; 1.02933E-4
3433.593750; 1.16640E-4
3439.453125; 1.08115E-4
3445.312500; 1.05538E-4
3451.171875; 1.02122E-4
3457.031250; 1.12065E-4
3462.890625; 1.00686E-4
3468.750000; 1.06658E-4
3474.609375; 1.18284E-4
3480.468750; 1.19345E-4
3486.328125; 1.17351E-4
3492.187500; 1.08351E-4
3498.046875; 1.10914E-4
3503.906250; 1.07853E-4
3509.765625; 1.10585E-4
3515.625000; 1.25721E-4
3521.484375; 1.65521E-4
3527.343750; 2.05917E-4
3533.203125; 1.50561E-4
3539.062500; 1.09591E-4
3544.921875; 1.18455E-4
3550.781250; 1.14029E-4
3556.640625; 1.03065E-4
3562.500000; 9.90193E-5
3568.359375; 1.00935E-4
3574.218750; 9.48939E-5
3580.078125; 1.06809E-4
3585.937500; 1.11853E-4
3591.796875; 1.19352E-4
3597.656250; 1.10803E-4
3603.515625; 1.07588E-4
3609.375000; 1.01234E-4
3615.234375; 1.04446E-4
3621.093750; 1.07575E-4
3626.953125; 1.09402E-4
3632.812500; 1.05149E-4
3638.671875; 1.11545E-4
3644.531250; 1.11917E-4
3650.390625; 1.07966E-4
3656.250000; 1.02359E-4
3662.109375; 1.02787E-4
3667.968750; 1.17640E-4
3673.828125; 1.11337E-4
3679.687500; 1.00106E-4
3685.546875; 1.08345E-4
3691.406250; 1.15603E-4
3697.265625; 1.05135E-4
3703.125000; 1.18058E-4
3708.984375; 1.19862E-4
3714.843750; 1.14404E-4
3720.703125; 1.16274E-4
3726.562500; 1.16363E-4
3732.421875; 1.16042E-4
3738.281250; 1.14448E-4
3744.140625; 1.19488E-4
3750.000000; 9.69507E-5
3755.859375; 9.64294E-5
3761.718750; 1.08976E-4
3767.578125; 1.05824E-4
3773.437500; 1.21027E-4
3779.296875; 1.20312E-4
3785.156250; 9.73808E-5
3791.015625; 1.12773E-4
3796.875000; 1.11489E-4
3802.734375; 1.12068E-4
3808.593750; 1.12563E-4
3814.453125; 1.04007E-4
3820.312500; 1.10580E-4
3826.171875; 1.16419E-4
3832.031250; 1.13626E-4
3837.890625; 1.09515E-4
3843.750000; 1.19686E-4
3849.609375; 1.17476E-4
3855.468750; 1.13009E-4
3861.328125; 1.20707E-4
3867.187500; 1.09366E-4
3873.046875; 1.12159E-4
3878.906250; 1.06658E-4
3884.765625; 1.08148E-4
3890.625000; 1.18643E-4
3896.484375; 1.13555E-4
3902.343750; 1.21417E-4
3908.203125; 1.34182E-4
3914.062500; 1.17258E-4
3919.921875; 1.01568E-4
3925.781250; 9.93327E-5
3931.640625; 1.19041E-4
3937.500000; 1.15575E-4
3943.359375; 1.05611E-4
3949.218750; 1.17424E-4
3955.078125; 1.03157E-4
3960.937500; 1.00546E-4
3966.796875; 1.05423E-4
3972.656250; 1.14260E-4
3978.515625; 1.13250E-4
3984.375000; 1.06055E-4
3990.234375; 1.18122E-4
3996.093750; 1.26461E-4
4001.953125; 1.28698E-4
4007.812500; 1.14323E-4
4013.671875; 1.02126E-4
4019.531250; 1.09258E-4
4025.390625; 1.07316E-4
4031.250000; 1.10999E-4
4037.109375; 1.20587E-4
4042.968750; 1.19034E-4
4048.828125; 1.12742E-4
4054.687500; 1.11161E-4
4060.546875; 1.09542E-4
4066.406250; 1.09912E-4
4072.265625; 1.07656E-4
4078.125000; 1.07604E-4
4083.984375; 1.07870E-4
4089.843750; 1.04321E-4
4095.703125; 1.07903E-4
4101.562500; 1.14870E-4
4107.421875; 1.03714E-4
4113.281250; 9.50862E-5
4119.140625; 1.04056E-4
4125.000000; 1.17038E-4
4130.859375; 1.15393E-4
4136.718750; 1.15180E-4
4142.578125; 1.09409E-4
4148.437500; 9.75127E-5
4154.296875; 1.04987E-4
4160.156250; 1.19985E-4
4166.015625; 1.17582E-4
4171.875000; 1.17859E-4
4177.734375; 1.11128E-4
4183.593750; 1.18887E-4
4189.453125; 1.15894E-4
4195.312500; 1.08983E-4
4201.171875; 1.02860E-4
4207.031250; 1.13781E-4
4212.890625; 9.81746E-5
4218.750000; 1.00477E-4
4224.609375; 1.12598E-4
4230.468750; 1.27030E-4
4236.328125; 1.26029E-4
4242.187500; 1.19496E-4
4248.046875; 1.11495E-4
4253.906250; 1.15233E-4
4259.765625; 1.11711E-4
4265.625000; 1.20616E-4
4271.484375; 1.22361E-4
4277.343750; 9.79133E-5
4283.203125; 9.77040E-5
4289.062500; 1.03436E-4
4294.921875; 1.09748E-4
4300.781250; 1.19785E-4
4306.640625; 1.07391E-4
4312.500000; 1.07771E-4
4318.359375; 1.09195E-4
4324.218750; 1.12872E-4
4330.078125; 1.15334E-4
4335.937500; 1.10032E-4
4341.796875; 1.17560E-4
4347.656250; 1.23097E-4
4353.515625; 1.20848E-4
4359.375000; 1.19603E-4
4365.234375; 1.17391E-4
4371.093750; 1.08523E-4
4376.953125; 1.16729E-4
4382.812500; 1.23635E-4
4388.671875; 1.17784E-4
4394.531250; 1.07477E-4
4400.390625; 9.99893E-5
4406.250000; 9.97707E-5
4412.109375; 1.10008E-4
4417.968750; 1.19367E-4
4423.828125; 1.23766E-4
4429.687500; 1.15670E-4
4435.546875; 1.14335E-4
4441.406250; 1.06482E-4
4447.265625; 1.02727E-4
4453.125000; 1.05607E-4
4458.984375; 1.11157E-4
4464.843750; 1.08222E-4
4470.703125; 1.02139E-4
4476.562500; 1.10284E-4
4482.421875; 1.03820E-4
4488.281250; 1.06065E-4
4494.140625; 1.04129E-4
4500.000000; 1.09488E-4
4505.859375; 1.09124E-4
4511.718750; 1.10519E-4
4517.578125; 1.10703E-4
4523.437500; 1.18122E-4
4529.296875; 1.14863E-4
4535.156250; 1.18047E-4
4541.015625; 1.14943E-4
4546.875000; 1.10945E-4
4552.734375; 1.17911E-4
4558.593750; 1.18437E-4
4564.453125; 1.14341E-4
4570.312500; 1.10968E-4
4576.171875; 1.05683E-4
4582.031250; 1.10267E-4
4587.890625; 1.13212E-4
4593.750000; 9.87036E-5
4599.609375; 9.76367E-5
4605.468750; 1.14554E-4
4611.328125; 1.21908E-4
4617.187500; 1.20638E-4
4623.046875; 1.07964E-4
4628.906250; 1.14545E-4
4634.765625; 1.16830E-4
4640.625000; 1.10117E-4
4646.484375; 1.13736E-4
4652.343750; 1.01683E-4
4658.203125; 1.11285E-4
4664.062500; 1.13736E-4
4669.921875; 1.13733E-4
4675.781250; 1.09155E-4
4681.640625; 9.65386E-5
4687.500000; 1.06868E-4
4693.359375; 1.05424E-4
4699.218750; 1.13412E-4
4705.078125; 1.08943E-4
4710.937500; 1.08541E-4
4716.796875; 1.05427E-4
4722.656250; 1.11636E-4
4728.515625; 1.13414E-4
4734.375000; 1.11904E-4
4740.234375; 1.08215E-4
4746.093750; 1.15940E-4
4751.953125; 1.17562E-4
4757.812500; 1.07098E-4
4763.671875; 1.20316E-4
4769.531250; 1.15607E-4
4775.390625; 1.03656E-4
4781.250000; 1.10528E-4
4787.109375; 1.10524E-4
4792.968750; 1.16168E-4
4798.828125; 1.07434E-4
4804.687500; 1.01450E-4
4810.546875; 9.97361E-5
4816.406250; 1.16481E-4
4822.265625; 1.12423E-4
4828.125000; 1.07278E-4
4833.984375; 1.20738E-4
4839.843750; 1.18236E-4
4845.703125; 1.05024E-4
4851.562500; 1.07236E-4
4857.421875; 1.01674E-4
4863.281250; 1.07473E-4
4869.140625; 1.28193E-4
4875.000000; 1.20328E-4
4880.859375; 1.15617E-4
4886.718750; 1.04163E-4
4892.578125; 1.16829E-4
4898.437500; 1.18505E-4
4904.296875; 1.11736E-4
4910.156250; 1.18296E-4
4916.015625; 1.11890E-4
4921.875000; 1.03069E-4
4927.734375; 9.64802E-5
4933.593750; 1.00940E-4
4939.453125; 1.07793E-4
4945.312500; 1.04566E-4
4951.171875; 1.01508E-4
4957.031250; 1.01749E-4
4962.890625; 1.09848E-4
4968.750000; 1.05247E-4
4974.609375; 1.11143E-4
4980.468750; 1.04410E-4
4986.328125; 1.11077E-4
4992.187500; 1.02306E-4
4998.046875; 1.19403E-4
5003.906250; 1.23550E-4
5009.765625; 1.20000E-4
5015.625000; 1.14575E-4
5021.484375; 1.14188E-4
5027.343750; 1.10209E-4
5033.203125; 1.15993E-4
5039.062500; 1.12331E-4
5044.921875; 9.95656E-5
5050.781250; 1.09047E-4
5056.640625; 1.16808E-4
5062.500000; 1.04997E-4
5068.359375; 1.14552E-4
5074.218750; 1.14313E-4
5080.078125; 1.11185E-4
5085.937500; 1.08841E-4
5091.796875; 1.17595E-4
5097.656250; 1.11602E-4
5103.515625; 1.06601E-4
5109.375000; 1.08257E-4
5115.234375; 1.05571E-4
5121.093750; 1.08763E-4
5126.953125; 1.02427E-4
5132.812500; 1.09034E-4
5138.671875; 1.27685E-4
5144.531250; 1.30129E-4
5150.390625; 1.28480E-4
5156.250000; 1.09958E-4
5162.109375; 1.03541E-4
5167.968750; 1.12977E-4
5173.828125; 1.12376E-4
5179.687500; 9.36718E-5
5185.546875; 1.07270E-4
5191.406250; 1.06371E-4
5197.265625; 1.11938E-4
5203.125000; 1.09016E-4
5208.984375; 1.18577E-4
5214.843750; 1.18071E-4
5220.703125; 1.16002E-4
5226.562500; 1.13186E-4
5232.421875; 1.01398E-4
5238.281250; 1.13241E-4
5244.140625; 1.08412E-4
5250.000000; 1.21566E-4
5255.859375; 1.31664E-4
5261.718750; 1.23317E-4
5267.578125; 1.19500E-4
5273.437500; 1.14718E-4
5279.296875; 1.09417E-4
5285.156250; 1.13376E-4
5291.015625; 1.03079E-4
5296.875000; 1.07151E-4
5302.734375; 1.12058E-4
5308.593750; 1.14201E-4
5314.453125; 1.07455E-4
5320.312500; 1.10167E-4
5326.171875; 1.13772E-4
5332.031250; 9.81667E-5
5337.890625; 1.08458E-4
5343.750000; 1.03859E-4
5349.609375; 1.01014E-4
5355.468750; 1.18081E-4
5361.328125; 1.21895E-4
5367.187500; 1.12483E-4
5373.046875; 1.11611E-4
5378.906250; 1.08250E-4
5384.765625; 1.08985E-4
5390.625000; 1.14962E-4
5396.484375; 1.09781E-4
5402.343750; 1.18475E-4
5408.203125; 1.04374E-4
5414.062500; 1.03794E-4
5419.921875; 1.23694E-4
5425.781250; 1.19776E-4
5431.640625; 1.15503E-4
5437.500000; 1.14363E-4
5443.359375; 1.12821E-4
5449.218750; 1.19399E-4
5455.078125; 1.09764E-4
5460.937500; 1.00640E-4
5466.796875; 1.06763E-4
5472.656250; 1.15925E-4
5478.515625; 1.25144E-4
5484.375000; 1.22187E-4
5490.234375; 1.17875E-4
5496.093750; 1.15306E-4
5501.953125; 1.24398E-4
5507.812500; 1.19839E-4
5513.671875; 1.01579E-4
5519.531250; 8.90917E-5
5525.390625; 1.10260E-4
5531.250000; 1.10048E-4
5537.109375; 1.05244E-4
5542.968750; 9.71161E-5
5548.828125; 1.04174E-4
5554.687500; 1.10506E-4
5560.546875; 1.23917E-4
5566.406250; 1.25643E-4
5572.265625; 1.04246E-4
5578.125000; 1.07803E-4
5583.984375; 1.12106E-4
5589.843750; 1.00169E-4
5595.703125; 1.07125E-4
5601.562500; 1.07501E-4
5607.421875; 1.11464E-4
5613.281250; 1.07918E-4
5619.140625; 1.14558E-4
5625.000000; 1.18009E-4
5630.859375; 1.02454E-4
5636.718750; 1.01615E-4
5642.578125; 1.01670E-4
5648.437500; 1.13386E-4
5654.296875; 1.19437E-4
5660.156250; 1.15707E-4
5666.015625; 1.03388E-4
5671.875000; 1.14781E-4
5677.734375; 1.24423E-4
5683.593750; 1.16919E-4
5689.453125; 9.36535E-5
5695.312500; 9.29516E-5
5701.171875; 9.87334E-5
5707.031250; 1.06433E-4
5712.890625; 1.07195E-4
5718.750000; 1.10132E-4
5724.609375; 1.17033E-4
5730.468750; 1.25236E-4
5736.328125; 1.19045E-4
5742.187500; 1.03667E-4
5748.046875; 1.07081E-4
5753.906250; 1.05760E-4
5759.765625; 1.04391E-4
5765.625000; 1.13344E-4
5771.484375; 1.08122E-4
5777.343750; 9.90741E-5
5783.203125; 9.85956E-5
5789.062500; 1.07653E-4
5794.921875; 1.21694E-4
5800.781250; 1.14531E-4
5806.640625; 1.08805E-4
5812.500000; 1.06039E-4
5818.359375; 1.01756E-4
5824.218750; 1.05591E-4
5830.078125; 1.04359E-4
5835.937500; 1.10677E-4
5841.796875; 1.14134E-4
5847.656250; 1.10625E-4
5853.515625; 1.13003E-4
5859.375000; 1.14265E-4
5865.234375; 1.06471E-4
5871.093750; 1.16021E-4
5876.953125; 1.18917E-4
5882.812500; 1.11981E-4
5888.671875; 1.11425E-4
5894.531250; 1.16588E-4
5900.390625; 1.12891E-4
5906.250000; 1.09185E-4
5912.109375; 1.32320E-4
5917.968750; 1.12976E-4
5923.828125; 1.02961E-4
5929.687500; 1.09441E-4
5935.546875; 1.16796E-4
5941.406250; 1.07836E-4
5947.265625; 1.08130E-4
5953.125000; 1.15004E-4
5958.984375; 1.17397E-4
5964.843750; 1.00101E-4
5970.703125; 9.90336E-5
5976.562500; 1.02429E-4
5982.421875; 1.07791E-4
5988.281250; 1.16224E-4
5994.140625; 1.19928E-4
6000.000000; 1.05222E-4
6005.859375; 1.01107E-4
6011.718750; 1.07551E-4
6017.578125; 1.09504E-4
6023.437500; 1.05011E-4
6029.296875; 1.07399E-4
6035.156250; 1.15343E-4
6041.015625; 1.16362E-4
6046.875000; 1.01895E-4
6052.734375; 1.17926E-4
6058.593750; 1.15328E-4
6064.453125; 9.84411E-5
6070.312500; 1.14398E-4
6076.171875; 1.17026E-4
6082.031250; 1.19750E-4
6087.890625; 1.18761E-4
6093.750000; 1.02194E-4
6099.609375; 1.05933E-4
6105.468750; 1.07164E-4
6111.328125; 1.09735E-4
6117.187500; 1.06693E-4
6123.046875; 1.12733E-4
6128.906250; 1.06070E-4
6134.765625; 9.54746E-5
6140.625000; 9.81272E-5
6146.484375; 1.17889E-4
6152.343750; 1.22232E-4
6158.203125; 1.11655E-4
6164.062500; 1.07223E-4
6169.921875; 1.14456E-4
6175.781250; 1.07873E-4
6181.640625; 1.05275E-4
6187.500000; 1.09221E-4
6193.359375; 1.00872E-4
6199.218750; 1.16909E-4
6205.078125; 1.23686E-4
6210.937500; 1.21288E-4
6216.796875; 1.25235E-4
6222.656250; 1.25762E-4
6228.515625; 1.21174E-4
6234.375000; 1.16478E-4
6240.234375; 1.09820E-4
6246.093750; 1.10849E-4
6251.953125; 1.08417E-4
6257.812500; 1.01962E-4
6263.671875; 9.85344E-5
6269.531250; 9.69317E-5
6275.390625; 1.04208E-4
6281.250000; 1.00501E-4
6287.109375; 1.04969E-4
6292.968750; 1.17446E-4
6298.828125; 1.09502E-4
6304.687500; 1.17307E-4
6310.546875; 1.22613E-4
6316.406250; 1.20602E-4
6322.265625; 1.08827E-4
6328.125000; 1.08378E-4
6333.984375; 1.14995E-4
6339.843750; 1.15191E-4
6345.703125; 1.10637E-4
6351.562500; 1.03179E-4
6357.421875; 9.86589E-5
6363.281250; 1.02249E-4
6369.140625; 1.12301E-4
6375.000000; 1.03570E-4
6380.859375; 1.01730E-4
6386.718750; 1.03218E-4
6392.578125; 1.01700E-4
6398.437500; 1.03770E-4
6404.296875; 1.02582E-4
6410.156250; 9.81435E-5
6416.015625; 1.16621E-4
6421.875000; 1.27687E-4
6427.734375; 1.15475E-4
6433.593750; 1.08432E-4
6439.453125; 1.10444E-4
6445.312500; 1.13348E-4
6451.171875; 1.12045E-4
6457.031250; 1.12532E-4
6462.890625; 1.11480E-4
6468.750000; 9.94871E-5
6474.609375; 9.06933E-5
6480.468750; 9.84611E-5
6486.328125; 1.07681E-4
6492.187500; 1.03998E-4
6498.046875; 1.07247E-4
6503.906250; 1.10668E-4
6509.765625; 1.05593E-4
6515.625000; 1.07681E-4
6521.484375; 1.08668E-4
6527.343750; 1.03057E-4
6533.203125; 1.06831E-4
6539.062500; 1.08945E-4
6544.921875; 1.09506E-4
6550.781250; 1.22857E-4
6556.640625; 1.05716E-4
6562.500000; 9.91993E-5
6568.359375; 1.06299E-4
6574.218750; 1.08921E-4
6580.078125; 1.17234E-4
6585.937500; 1.18769E-4
6591.796875; 1.22485E-4
6597.656250; 1.15235E-4
6603.515625; 1.19410E-4
6609.375000; 1.10801E-4
6615.234375; 1.07911E-4
6621.093750; 1.20696E-4
6626.953125; 1.19140E-4
6632.812500; 1.11225E-4
6638.671875; 1.10940E-4
6644.531250; 1.13124E-4
6650.390625; 1.13858E-4
6656.250000; 9.86813E-5
6662.109375; 1.07482E-4
6667.968750; 1.08244E-4
6673.828125; 1.13683E-4
6679.687500; 1.15312E-4
6685.546875; 1.09614E-4
6691.406250; 1.02897E-4
6697.265625; 9.29611E-5
6703.125000; 1.01607E-4
6708.984375; 1.01355E-4
6714.843750; 1.12846E-4
6720.703125; 1.09379E-4
6726.562500; 1.03893E-4
6732.421875; 9.60550E-5
6738.281250; 1.05527E-4
6744.140625; 1.11512E-4
6750.000000; 1.17636E-4
6755.859375; 1.15001E-4
6761.718750; 1.05809E-4
6767.578125; 1.08850E-4
6773.437500; 1.14212E-4
6779.296875; 1.15488E-4
6785.156250; 1.11394E-4
6791.015625; 1.02432E-4
6796.875000; 1.01473E-4
6802.734375; 1.04506E-4
6808.593750; 1.08932E-4
6814.453125; 1.01469E-4
6820.312500; 1.16477E-4
6826.171875; 1.25358E-4
6832.031250; 1.17083E-4
6837.890625; 1.11533E-4
6843.750000; 1.11331E-4
6849.609375; 1.12877E-4
6855.468750; 1.15870E-4
6861.328125; 1.13341E-4
6867.187500; 1.12817E-4
6873.046875; 1.08225E-4
6878.906250; 1.12017E-4
6884.765625; 1.15272E-4
6890.625000; 1.17051E-4
6896.484375; 1.17004E-4
6902.343750; 1.13956E-4
6908.203125; 1.06251E-4
6914.062500; 1.06583E-4
6919.921875; 1.03878E-4
6925.781250; 1.08014E-4
6931.640625; 1.09087E-4
6937.500000; 1.04835E-4
6943.359375; 1.02388E-4
6949.218750; 1.10622E-4
6955.078125; 1.19991E-4
6960.937500; 1.18245E-4
6966.796875; 1.02154E-4
6972.656250; 1.12127E-4
6978.515625; 1.07770E-4
6984.375000; 1.05223E-4
6990.234375; 1.05267E-4
6996.093750; 1.14976E-4
7001.953125; 1.18782E-4
7007.812500; 1.07611E-4
7013.671875; 1.02738E-4
7019.531250; 1.03883E-4
7025.390625; 1.05192E-4
7031.250000; 9.96464E-5
7037.109375; 9.78259E-5
7042.968750; 1.04884E-4
7048.828125; 1.14022E-4
7054.687500; 1.15444E-4
7060.546875; 1.07607E-4
7066.406250; 1.05315E-4
7072.265625; 1.03481E-4
7078.125000; 1.03646E-4
7083.984375; 1.05103E-4
7089.843750; 1.00865E-4
7095.703125; 1.02175E-4
7101.562500; 1.01243E-4
7107.421875; 1.06814E-4
7113.281250; 1.05435E-4
7119.140625; 1.05912E-4
7125.000000; 1.18985E-4
7130.859375; 1.14036E-4
7136.718750; 1.04580E-4
7142.578125; 1.09539E-4
7148.437500; 1.09770E-4
7154.296875; 1.15232E-4
7160.156250; 1.11025E-4
7166.015625; 1.02562E-4
7171.875000; 1.03635E-4
7177.734375; 1.06142E-4
7183.593750; 1.18321E-4
7189.453125; 1.11734E-4
7195.312500; 9.75015E-5
7201.171875; 9.99719E-5
7207.031250; 1.06482E-4
7212.890625; 1.05699E-4
7218.750000; 9.50880E-5
7224.609375; 9.44945E-5
7230.468750; 9.83882E-5
7236.328125; 1.04306E-4
7242.187500; 1.04724E-4
7248.046875; 1.10879E-4
7253.906250; 1.01245E-4
7259.765625; 9.71900E-5
7265.625000; 1.04953E-4
7271.484375; 1.05793E-4
7277.343750; 1.06007E-4
7283.203125; 1.05358E-4
7289.062500; 1.12096E-4
7294.921875; 1.06232E-4
7300.781250; 9.21114E-5
7306.640625; 1.04157E-4
7312.500000; 1.17124E-4
7318.359375; 1.08367E-4
7324.218750; 9.96748E-5
7330.078125; 9.97527E-5
7335.937500; 1.09660E-4
7341.796875; 1.15830E-4
7347.656250; 1.08527E-4
7353.515625; 1.11248E-4
7359.375000; 1.07078E-4
7365.234375; 1.08553E-4
7371.093750; 1.12681E-4
7376.953125; 1.08710E-4
7382.812500; 1.09913E-4
7388.671875; 1.09495E-4
7394.531250; 1.02812E-4
7400.390625; 1.00015E-4
7406.250000; 1.03283E-4
7412.109375; 1.15910E-4
7417.968750; 1.08902E-4
7423.828125; 1.15530E-4
7429.687500; 1.15709E-4
7435.546875; 1.01956E-4
7441.406250; 9.65357E-5
7447.265625; 1.11386E-4
7453.125000; 1.14600E-4
7458.984375; 1.02353E-4
7464.843750; 1.10618E-4
7470.703125; 1.07072E-4
7476.562500; 1.02894E-4
7482.421875; 1.02390E-4
7488.281250; 1.11715E-4
7494.140625; 1.05368E-4
7500.000000; 1.11924E-4
7505.859375; 1.04301E-4
7511.718750; 9.49999E-5
7517.578125; 9.32501E-5
7523.437500; 9.70906E-5
7529.296875; 1.10472E-4
7535.156250; 1.17219E-4
7541.015625; 1.09363E-4
7546.875000; 1.09222E-4
7552.734375; 1.03991E-4
7558.593750; 1.00873E-4
7564.453125; 1.15255E-4
7570.312500; 1.13447E-4
7576.171875; 9.58775E-5
7582.031250; 1.09250E-4
7587.890625; 9.86700E-5
7593.750000; 1.00790E-4
7599.609375; 1.12357E-4
7605.468750; 1.16309E-4
7611.328125; 1.09258E-4
7617.187500; 1.09529E-4
7623.046875; 1.14839E-4
7628.906250; 1.01392E-4
7634.765625; 1.07189E-4
7640.625000; 1.16840E-4
7646.484375; 1.04087E-4
7652.343750; 1.02876E-4
7658.203125; 1.19586E-4
7664.062500; 1.15667E-4
7669.921875; 1.06016E-4
7675.781250; 1.09000E-4
7681.640625; 1.11105E-4
7687.500000; 1.11056E-4
7693.359375; 1.00424E-4
7699.218750; 1.05634E-4
7705.078125; 1.18803E-4
7710.937500; 1.18206E-4
7716.796875; 1.05352E-4
7722.656250; 1.04130E-4
7728.515625; 1.04210E-4
7734.375000; 1.06433E-4
7740.234375; 1.08728E-4
7746.093750; 1.02859E-4
7751.953125; 1.14869E-4
7757.812500; 1.01144E-4
7763.671875; 1.09444E-4
7769.531250; 1.13534E-4
7775.390625; 1.11963E-4
7781.250000; 1.15904E-4
7787.109375; 1.08245E-4
7792.968750; 1.00964E-4
7798.828125; 1.03295E-4
7804.687500; 1.06121E-4
7810.546875; 1.07299E-4
7816.406250; 1.03757E-4
7822.265625; 1.05192E-4
7828.125000; 1.05148E-4
7833.984375; 1.14431E-4
7839.843750; 1.15997E-4
7845.703125; 1.11536E-4
7851.562500; 1.01219E-4
7857.421875; 1.10052E-4
7863.281250; 1.09478E-4
7869.140625; 9.88462E-5
7875.000000; 1.04987E-4
7880.859375; 1.14444E-4
7886.718750; 1.09368E-4
7892.578125; 1.07811E-4
7898.437500; 1.03181E-4
7904.296875; 9.81193E-5
7910.156250; 1.07425E-4
7916.015625; 1.07053E-4
7921.875000; 1.03865E-4
7927.734375; 1.06746E-4
7933.593750; 1.08873E-4
7939.453125; 1.08998E-4
7945.312500; 1.01140E-4
7951.171875; 1.06671E-4
7957.031250; 1.19465E-4
7962.890625; 1.13207E-4
7968.750000; 1.02809E-4
7974.609375; 1.13157E-4
7980.468750; 1.10853E-4
7986.328125; 1.02691E-4
7992.187500; 1.03620E-4
7998.046875; 1.05990E-4
8003.906250; 1.08062E-4
8009.765625; 1.12242E-4
8015.625000; 1.03920E-4
8021.484375; 1.07694E-4
8027.343750; 1.10293E-4
8033.203125; 1.07274E-4
8039.062500; 1.19844E-4
8044.921875; 1.01559E-4
8050.781250; 8.86401E-5
8056.640625; 9.84148E-5
8062.500000; 9.71811E-5
8068.359375; 9.40718E-5
8074.218750; 1.02207E-4
8080.078125; 9.94758E-5
8085.937500; 1.05894E-4
8091.796875; 1.10633E-4
8097.656250; 1.17077E-4
8103.515625; 1.13802E-4
8109.375000; 1.10480E-4
8115.234375; 1.10395E-4
8121.093750; 1.14343E-4
8126.953125; 1.10522E-4
8132.812500; 1.17684E-4
8138.671875; 1.07961E-4
8144.531250; 1.11093E-4
8150.390625; 1.22017E-4
8156.250000; 1.17335E-4
8162.109375; 1.08742E-4
8167.968750; 1.07489E-4
8173.828125; 1.04073E-4
8179.687500; 1.14389E-4
8185.546875; 1.17233E-4
8191.406250; 1.03878E-4
8197.265625; 1.09494E-4
8203.125000; 9.93752E-5
8208.984375; 1.10322E-4
8214.843750; 1.04614E-4
8220.703125; 9.77542E-5
8226.562500; 1.06704E-4
8232.421875; 1.04386E-4
8238.281250; 1.05171E-4
8244.140625; 1.16997E-4
8250.000000; 1.07848E-4
8255.859375; 1.12600E-4
8261.718750; 1.17969E-4
8267.578125; 1.11141E-4
8273.437500; 1.05421E-4
8279.296875; 1.02071E-4
8285.156250; 1.01304E-4
8291.015625; 1.07130E-4
8296.875000; 1.14965E-4
8302.734375; 1.01668E-4
8308.593750; 1.12568E-4
8314.453125; 1.13294E-4
8320.312500; 1.08228E-4
8326.171875; 1.05515E-4
8332.031250; 1.04215E-4
8337.890625; 1.13814E-4
8343.750000; 1.07769E-4
8349.609375; 9.80157E-5
8355.468750; 1.08159E-4
8361.328125; 1.15837E-4
8367.187500; 1.17436E-4
8373.046875; 1.14107E-4
8378.906250; 1.12005E-4
8384.765625; 1.13710E-4
8390.625000; 1.11013E-4
8396.484375; 1.19266E-4
8402.343750; 1.08481E-4
8408.203125; 1.01287E-4
8414.062500; 1.00086E-4
8419.921875; 1.13017E-4
8425.781250; 1.29300E-4
8431.640625; 1.22274E-4
8437.500000; 1.02374E-4
8443.359375; 1.01560E-4
8449.218750; 1.08734E-4
8455.078125; 1.09206E-4
8460.937500; 9.84229E-5
8466.796875; 1.01245E-4
8472.656250; 9.73794E-5
8478.515625; 1.07802E-4
8484.375000; 1.11626E-4
8490.234375; 1.03538E-4
8496.093750; 1.05244E-4
8501.953125; 1.08414E-4
8507.812500; 1.12496E-4
8513.671875; 1.01697E-4
8519.531250; 9.52822E-5
8525.390625; 1.08549E-4
8531.250000; 1.02896E-4
8537.109375; 1.06552E-4
8542.968750; 1.15314E-4
8548.828125; 1.21300E-4
8554.687500; 1.19391E-4
8560.546875; 1.13851E-4
8566.406250; 1.06209E-4
8572.265625; 9.59882E-5
8578.125000; 1.01477E-4
8583.984375; 1.11212E-4
8589.843750; 1.08145E-4
8595.703125; 1.12932E-4
8601.562500; 1.14652E-4
8607.421875; 1.12107E-4
8613.281250; 1.11307E-4
8619.140625; 1.00432E-4
8625.000000; 1.02929E-4
8630.859375; 1.08780E-4
8636.718750; 1.11605E-4
8642.578125; 9.94076E-5
8648.437500; 1.04394E-4
8654.296875; 1.16036E-4
8660.156250; 1.12984E-4
8666.015625; 1.05285E-4
8671.875000; 9.67656E-5
8677.734375; 9.33915E-5
8683.593750; 9.99751E-5
8689.453125; 1.06284E-4
8695.312500; 1.09118E-4
8701.171875; 1.04592E-4
8707.031250; 1.09216E-4
8712.890625; 1.09489E-4
8718.750000; 1.12911E-4
8724.609375; 1.00535E-4
8730.468750; 1.08630E-4
8736.328125; 1.07079E-4
8742.187500; 1.02398E-4
8748.046875; 1.11996E-4
8753.906250; 1.04863E-4
8759.765625; 1.02135E-4
8765.625000; 1.04113E-4
8771.484375; 1.03774E-4
8777.343750; 1.06555E-4
8783.203125; 1.04649E-4
8789.062500; 1.03580E-4
8794.921875; 9.92850E-5
8800.781250; 1.09235E-4
8806.640625; 9.96427E-5
8812.500000; 1.07133E-4
8818.359375; 1.22475E-4
8824.218750; 1.10417E-4
8830.078125; 1.07051E-4
8835.937500; 9.45757E-5
8841.796875; 1.02613E-4
8847.656250; 1.13338E-4
8853.515625; 1.11545E-4
8859.375000; 1.14070E-4
8865.234375; 1.05781E-4
8871.093750; 9.70070E-5
8876.953125; 8.97873E-5
8882.812500; 9.91433E-5
8888.671875; 1.08581E-4
8894.531250; 9.78170E-5
8900.390625; 1.07854E-4
8906.250000; 1.03451E-4
8912.109375; 1.00426E-4
8917.968750; 1.05113E-4
8923.828125; 1.04745E-4
8929.687500; 1.00127E-4
8935.546875; 1.07968E-4
8941.406250; 1.05485E-4
8947.265625; 1.09547E-4
8953.125000; 1.06560E-4
8958.984375; 9.96941E-5
8964.843750; 1.08077E-4
8970.703125; 1.18633E-4
8976.562500; 1.17617E-4
8982.421875; 1.02106E-4
8988.281250; 1.09873E-4
8994.140625; 1.20094E-4
9000.000000; 1.16592E-4
9005.859375; 1.05523E-4
9011.718750; 1.07291E-4
9017.578125; 1.01242E-4
9023.437500; 9.54676E-5
9029.296875; 1.10091E-4
9035.156250; 1.21370E-4
9041.015625; 1.10054E-4
9046.875000; 1.08834E-4
9052.734375; 1.01802E-4
9058.593750; 9.61859E-5
9064.453125; 1.07463E-4
9070.312500; 1.07324E-4
9076.171875; 1.11854E-4
9082.031250; 1.24362E-4
9087.890625; 1.14573E-4
9093.750000; 1.10592E-4
9099.609375; 9.83892E-5
9105.468750; 9.41553E-5
9111.328125; 1.01050E-4
9117.187500; 1.17106E-4
9123.046875; 1.11403E-4
9128.906250; 1.03975E-4
9134.765625; 1.04346E-4
9140.625000; 1.10133E-4
9146.484375; 1.12831E-4
9152.343750; 1.09851E-4
9158.203125; 9.76401E-5
9164.062500; 1.01504E-4
9169.921875; 1.01120E-4
9175.781250; 8.64024E-5
9181.640625; 9.90593E-5
9187.500000; 1.02971E-4
9193.359375; 9.86493E-5
9199.218750; 1.03327E-4
9205.078125; 1.06227E-4
9210.937500; 1.08395E-4
9216.796875; 9.31171E-5
9222.656250; 1.02317E-4
9228.515625; 1.11281E-4
9234.375000; 1.11998E-4
9240.234375; 1.07058E-4
9246.093750; 1.07154E-4
9251.953125; 1.01983E-4
9257.812500; 1.14784E-4
9263.671875; 1.10228E-4
9269.531250; 1.16675E-4
9275.390625; 1.21008E-4
9281.250000; 1.10568E-4
9287.109375; 1.17054E-4
9292.968750; 1.12935E-4
9298.828125; 1.04104E-4
9304.687500; 1.08616E-4
9310.546875; 1.01414E-4
9316.406250; 1.01563E-4
9322.265625; 1.07000E-4
9328.125000; 1.05837E-4
9333.984375; 1.08913E-4
9339.843750; 1.05032E-4
9345.703125; 1.05351E-4
9351.562500; 1.05014E-4
9357.421875; 9.92006E-5
9363.281250; 1.05341E-4
9369.140625; 1.06584E-4
9375.000000; 1.14492E-4
9380.859375; 1.07539E-4
9386.718750; 9.96755E-5
9392.578125; 9.76843E-5
9398.437500; 1.14325E-4
9404.296875; 1.11491E-4
9410.156250; 1.04464E-4
9416.015625; 1.03040E-4
9421.875000; 1.07072E-4
9427.734375; 1.08095E-4
9433.593750; 1.10890E-4
9439.453125; 1.35425E-4
9445.312500; 1.28081E-4
9451.171875; 9.81332E-5
9457.031250; 1.10445E-4
9462.890625; 1.06774E-4
9468.750000; 1.08735E-4
9474.609375; 1.04168E-4
9480.468750; 1.04056E-4
9486.328125; 1.01040E-4
9492.187500; 1.02750E-4
9498.046875; 1.02817E-4
9503.906250; 1.04439E-4
9509.765625; 1.06712E-4
9515.625000; 1.13582E-4
9521.484375; 1.17798E-4
9527.343750; 1.08353E-4
9533.203125; 9.46710E-5
9539.062500; 1.01892E-4
9544.921875; 1.00943E-4
9550.781250; 1.07898E-4
9556.640625; 1.01206E-4
9562.500000; 9.88966E-5
9568.359375; 9.98254E-5
9574.218750; 1.10513E-4
9580.078125; 1.20376E-4
9585.937500; 1.15858E-4
9591.796875; 1.03695E-4
9597.656250; 9.80851E-5
9603.515625; 9.49862E-5
9609.375000; 1.05067E-4
9615.234375; 1.06496E-4
9621.093750; 1.04798E-4
9626.953125; 1.15049E-4
9632.812500; 1.15451E-4
9638.671875; 1.08130E-4
9644.531250; 1.08093E-4
9650.390625; 9.84579E-5
9656.250000; 9.83310E-5
9662.109375; 1.10087E-4
9667.968750; 1.05647E-4
9673.828125; 1.09197E-4
9679.687500; 9.93469E-5
9685.546875; 1.08898E-4
9691.406250; 1.12319E-4
9697.265625; 1.08682E-4
9703.125000; 1.12599E-4
9708.984375; 1.28906E-4
9714.843750; 1.22902E-4
9720.703125; 1.07294E-4
9726.562500; 1.04060E-4
9732.421875; 1.07931E-4
9738.281250; 1.01170E-4
9744.140625; 1.01996E-4
9750.000000; 1.09067E-4
9755.859375; 1.00354E-4
9761.718750; 1.10489E-4
9767.578125; 1.16975E-4
9773.437500; 1.13088E-4
9779.296875; 1.10072E-4
9785.156250; 1.11928E-4
9791.015625; 1.01989E-4
9796.875000; 1.05558E-4
9802.734375; 1.12995E-4
9808.593750; 1.18738E-4
9814.453125; 1.14466E-4
9820.312500; 1.11024E-4
9826.171875; 1.13497E-4
9832.031250; 1.12516E-4
9837.890625; 1.15526E-4
9843.750000; 1.17032E-4
9849.609375; 1.10427E-4
9855.468750; 1.17582E-4
9861.328125; 1.17532E-4
9867.187500; 1.05477E-4
9873.046875; 1.10113E-4
9878.906250; 1.08362E-4
9884.765625; 1.11418E-4
9890.625000; 1.05251E-4
9896.484375; 1.06992E-4
9902.343750; 1.01571E-4
9908.203125; 9.50466E-5
9914.062500; 9.70097E-5
9919.921875; 1.09981E-4
9925.781250; 1.11410E-4
9931.640625; 9.74863E-5
9937.500000; 9.40157E-5
9943.359375; 9.85264E-5
9949.218750; 1.19833E-4
9955.078125; 1.18881E-4
9960.937500; 1.06081E-4
9966.796875; 1.11653E-4
9972.656250; 1.16711E-4
9978.515625; 1.09284E-4
9984.375000; 1.04587E-4
9990.234375; 1.05942E-4
9996.093750; 1.04240E-4
10001.953125; 1.23629E-4
10007.812500; 1.15961E-4
10013.671875; 1.01370E-4
10019.531250; 1.06999E-4
10025.390625; 9.97078E-5
10031.250000; 9.09829E-5
10037.109375; 1.01367E-4
10042.968750; 1.19363E-4
10048.828125; 1.07734E-4
10054.687500; 9.95938E-5
10060.546875; 1.08511E-4
10066.406250; 1.03545E-4
10072.265625; 1.00318E-4
10078.125000; 1.15044E-4
10083.984375; 1.15964E-4
10089.843750; 1.06860E-4
10095.703125; 1.08484E-4
10101.562500; 1.04878E-4
10107.421875; 1.10324E-4
10113.281250; 1.18291E-4
10119.140625; 1.04367E-4
10125.000000; 1.02258E-4
10130.859375; 1.00648E-4
10136.718750; 1.04897E-4
10142.578125; 1.03376E-4
10148.437500; 1.06955E-4
10154.296875; 1.09171E-4
10160.156250; 1.06870E-4
10166.015625; 1.05027E-4
10171.875000; 9.90064E-5
10177.734375; 1.08062E-4
10183.593750; 1.00590E-4
10189.453125; 1.10994E-4
10195.312500; 1.05013E-4
10201.171875; 1.05974E-4
10207.031250; 1.00758E-4
10212.890625; 9.53579E-5
10218.750000; 9.13165E-5
10224.609375; 1.05007E-4
10230.468750; 1.07701E-4
10236.328125; 1.08970E-4
10242.187500; 1.06792E-4
10248.046875; 1.04105E-4
10253.906250; 1.07399E-4
10259.765625; 9.75113E-5
10265.625000; 9.26105E-5
10271.484375; 9.30289E-5
10277.343750; 9.67982E-5
10283.203125; 1.04745E-4
10289.062500; 1.05039E-4
10294.921875; 1.11028E-4
10300.781250; 1.00531E-4
10306.640625; 1.07588E-4
10312.500000; 1.20804E-4
10318.359375; 1.18348E-4
10324.218750; 1.07675E-4
10330.078125; 1.03114E-4
10335.937500; 1.03171E-4
10341.796875; 1.17206E-4
10347.656250; 1.23933E-4
10353.515625; 1.12799E-4
10359.375000; 1.06712E-4
10365.234375; 1.10551E-4
10371.093750; 1.08717E-4
10376.953125; 1.10251E-4
10382.812500; 1.01636E-4
10388.671875; 1.06898E-4
10394.531250; 1.08261E-4
10400.390625; 1.04594E-4
10406.250000; 1.00997E-4
10412.109375; 1.05655E-4
10417.968750; 1.06465E-4
10423.828125; 1.09690E-4
10429.687500; 1.01434E-4
10435.546875; 1.01882E-4
10441.406250; 9.95834E-5
10447.265625; 1.15167E-4
10453.125000; 1.16245E-4
10458.984375; 1.08038E-4
10464.843750; 1.09379E-4
10470.703125; 1.04451E-4
10476.562500; 1.03671E-4
10482.421875; 9.72658E-5
10488.281250; 9.92362E-5
10494.140625; 1.09670E-4
10500.000000; 1.19479E-4
10505.859375; 1.12191E-4
10511.718750; 1.02521E-4
10517.578125; 1.02102E-4
10523.437500; 1.00991E-4
10529.296875; 1.12633E-4
10535.156250; 1.11163E-4
10541.015625; 1.12199E-4
10546.875000; 1.09388E-4
10552.734375; 1.15817E-4
10558.593750; 1.29141E-4
10564.453125; 1.05907E-4
10570.312500; 1.03855E-4
10576.171875; 1.06444E-4
10582.031250; 1.02938E-4
10587.890625; 9.73318E-5
10593.750000; 9.72019E-5
10599.609375; 1.01487E-4
10605.468750; 1.12101E-4
10611.328125; 1.04643E-4
10617.187500; 9.71375E-5
10623.046875; 1.02780E-4
10628.906250; 1.17727E-4
10634.765625; 1.16129E-4
10640.625000; 1.01418E-4
10646.484375; 9.89699E-5
10652.343750; 1.05576E-4
10658.203125; 1.11213E-4
10664.062500; 1.09495E-4
10669.921875; 9.87574E-5
10675.781250; 1.01720E-4
10681.640625; 1.07152E-4
10687.500000; 1.03617E-4
10693.359375; 1.09604E-4
10699.218750; 1.21138E-4
10705.078125; 1.11794E-4
10710.937500; 1.12838E-4
10716.796875; 1.16396E-4
10722.656250; 1.05217E-4
10728.515625; 1.10499E-4
10734.375000; 1.04315E-4
10740.234375; 9.86873E-5
10746.093750; 9.89611E-5
10751.953125; 1.04626E-4
10757.812500; 1.07902E-4
10763.671875; 1.13540E-4
10769.531250; 1.06153E-4
10775.390625; 1.05584E-4
10781.250000; 1.13115E-4
10787.109375; 1.14063E-4
10792.968750; 1.10751E-4
10798.828125; 1.15047E-4
10804.687500; 1.11898E-4
10810.546875; 1.11591E-4
10816.406250; 1.15412E-4
10822.265625; 1.09013E-4
10828.125000; 1.12455E-4
10833.984375; 1.13199E-4
10839.843750; 1.05908E-4
10845.703125; 1.19410E-4
10851.562500; 1.18346E-4
10857.421875; 1.11917E-4
10863.281250; 1.02212E-4
10869.140625; 1.00103E-4
10875.000000; 1.10793E-4
10880.859375; 9.70166E-5
10886.718750; 9.96859E-5
10892.578125; 1.00518E-4
10898.437500; 9.46668E-5
10904.296875; 9.51315E-5
10910.156250; 1.00180E-4
10916.015625; 1.01841E-4
10921.875000; 1.09364E-4
10927.734375; 1.18969E-4
10933.593750; 1.26568E-4
10939.453125; 1.19475E-4
10945.312500; 1.12923E-4
10951.171875; 1.11357E-4
10957.031250; 1.06727E-4
10962.890625; 1.12337E-4
10968.750000; 1.12567E-4
10974.609375; 1.09919E-4
10980.468750; 1.06504E-4
10986.328125; 1.09156E-4
10992.187500; 1.06346E-4
10998.046875; 9.53982E-5
11003.906250; 8.87238E-5
11009.765625; 9.50398E-5
11015.625000; 1.06266E-4
11021.484375; 1.05983E-4
11027.343750; 1.08997E-4
11033.203125; 9.66893E-5
11039.062500; 1.04047E-4
11044.921875; 1.10568E-4
11050.781250; 1.08913E-4
11056.640625; 1.01551E-4
11062.500000; 9.43446E-5
11068.359375; 1.07546E-4
11074.218750; 1.06236E-4
11080.078125; 1.05503E-4
11085.937500; 1.08341E-4
11091.796875; 1.04393E-4
11097.656250; 1.09986E-4
11103.515625; 1.19060E-4
11109.375000; 1.18528E-4
11115.234375; 1.12510E-4
11121.093750; 1.12059E-4
11126.953125; 1.08803E-4
11132.812500; 9.83883E-5
11138.671875; 1.11489E-4
11144.531250; 1.04387E-4
11150.390625; 1.07796E-4
11156.250000; 1.14802E-4
11162.109375; 1.08255E-4
11167.968750; 1.13491E-4
11173.828125; 1.09179E-4
11179.687500; 1.07085E-4
11185.546875; 1.15041E-4
11191.406250; 1.03399E-4
11197.265625; 9.95746E-5
11203.125000; 1.09131E-4
11208.984375; 1.04640E-4
11214.843750; 1.08444E-4
11220.703125; 9.85284E-5
11226.562500; 9.72903E-5
11232.421875; 9.42040E-5
11238.281250; 9.91452E-5
11244.140625; 9.32752E-5
11250.000000; 1.04498E-4
11255.859375; 1.11373E-4
11261.718750; 1.05076E-4
11267.578125; 8.86288E-5
11273.437500; 1.01103E-4
11279.296875; 1.04957E-4
11285.156250; 9.61976E-5
11291.015625; 9.53731E-5
11296.875000; 1.00408E-4
11302.734375; 9.95203E-5
11308.593750; 1.07891E-4
11314.453125; 1.01515E-4
11320.312500; 1.03027E-4
11326.171875; 1.14887E-4
11332.031250; 1.04364E-4
11337.890625; 9.89637E-5
11343.750000; 1.02018E-4
11349.609375; 1.01306E-4
11355.468750; 9.86239E-5
11361.328125; 1.04460E-4
11367.187500; 9.84539E-5
11373.046875; 1.02853E-4
11378.906250; 1.13358E-4
11384.765625; 1.13241E-4
11390.625000; 1.11447E-4
11396.484375; 1.01136E-4
11402.343750; 1.16838E-4
11408.203125; 1.15961E-4
11414.062500; 1.19200E-4
11419.921875; 1.16660E-4
11425.781250; 1.08197E-4
11431.640625; 1.13870E-4
11437.500000; 1.03693E-4
11443.359375; 1.00435E-4
11449.218750; 1.02648E-4
11455.078125; 1.00000E-4
11460.937500; 9.60019E-5
11466.796875; 9.47989E-5
11472.656250; 1.01138E-4
11478.515625; 1.07352E-4
11484.375000; 1.12437E-4
11490.234375; 1.09680E-4
11496.093750; 9.87654E-5
11501.953125; 1.01006E-4
11507.812500; 1.12513E-4
11513.671875; 1.08015E-4
11519.531250; 1.13542E-4
11525.390625; 1.07880E-4
11531.250000; 1.03750E-4
11537.109375; 1.13568E-4
11542.968750; 1.10795E-4
11548.828125; 1.00429E-4
11554.687500; 9.03698E-5
11560.546875; 1.00498E-4
11566.406250; 1.05175E-4
11572.265625; 1.12283E-4
11578.125000; 1.21454E-4
11583.984375; 1.16578E-4
11589.843750; 9.87354E-5
11595.703125; 9.40677E-5
11601.562500; 1.09941E-4
11607.421875; 1.10029E-4
11613.281250; 1.08778E-4
11619.140625; 1.20498E-4
11625.000000; 1.18777E-4
11630.859375; 1.12249E-4
11636.718750; 1.09561E-4
11642.578125; 1.10551E-4
11648.437500; 1.09432E-4
11654.296875; 1.07869E-4
11660.156250; 1.04047E-4
11666.015625; 1.04987E-4
11671.875000; 1.02285E-4
11677.734375; 9.37770E-5
11683.593750; 9.91491E-5
11689.453125; 1.00644E-4
11695.312500; 9.66027E-5
11701.171875; 9.54691E-5
11707.031250; 1.06133E-4
11712.890625; 1.02083E-4
11718.750000; 9.26188E-5
11724.609375; 1.10429E-4
11730.468750; 1.03352E-4
11736.328125; 9.96904E-5
11742.187500; 1.01789E-4
11748.046875; 9.80148E-5
11753.906250; 9.23769E-5
11759.765625; 1.05369E-4
11765.625000; 1.02124E-4
11771.484375; 1.08833E-4
11777.343750; 1.09351E-4
11783.203125; 1.05145E-4
11789.062500; 1.06895E-4
11794.921875; 9.46378E-5
11800.781250; 1.06983E-4
11806.640625; 1.15189E-4
11812.500000; 1.05987E-4
11818.359375; 1.05514E-4
11824.218750; 1.19394E-4
11830.078125; 1.30328E-4
11835.937500; 1.25431E-4
11841.796875; 1.06155E-4
11847.656250; 1.09467E-4
11853.515625; 1.11324E-4
11859.375000; 1.12876E-4
11865.234375; 1.13378E-4
11871.093750; 1.18363E-4
11876.953125; 1.22161E-4
11882.812500; 1.06504E-4
11888.671875; 1.01670E-4
11894.531250; 1.03668E-4
11900.390625; 9.58838E-5
11906.250000; 1.10269E-4
11912.109375; 1.11630E-4
11917.968750; 1.08360E-4
11923.828125; 1.01426E-4
11929.687500; 9.74803E-5
11935.546875; 1.03747E-4
11941.406250; 1.13104E-4
11947.265625; 1.10655E-4
11953.125000; 1.14971E-4
11958.984375; 1.16674E-4
11964.843750; 1.17973E-4
11970.703125; 1.01014E-4
11976.562500; 1.10468E-4
11982.421875; 1.09846E-4
11988.281250; 1.06117E-4
11994.140625; 1.06720E-4
12000.000000; 1.04742E-4
12005.859375; 1.07645E-4
12011.718750; 1.09812E-4
12017.578125; 1.14676E-4
12023.437500; 1.19898E-4
12029.296875; 1.20822E-4
12035.156250; 1.06353E-4
12041.015625; 9.94614E-5
12046.875000; 1.18815E-4
12052.734375; 1.01173E-4
12058.593750; 9.66837E-5
12064.453125; 8.92592E-5
12070.312500; 1.09114E-4
12076.171875; 1.16236E-4
12082.031250; 1.05392E-4
12087.890625; 9.65157E-5
12093.750000; 9.54380E-5
12099.609375; 1.04511E-4
12105.468750; 1.15391E-4
12111.328125; 1.02940E-4
12117.187500; 9.86622E-5
12123.046875; 1.02009E-4
12128.906250; 1.19348E-4
12134.765625; 1.10696E-4
12140.625000; 1.08097E-4
12146.484375; 1.15727E-4
12152.343750; 1.16629E-4
12158.203125; 1.08118E-4
12164.062500; 1.02480E-4
12169.921875; 1.01606E-4
12175.781250; 1.05827E-4
12181.640625; 1.01787E-4
12187.500000; 1.11231E-4
12193.359375; 9.75497E-5
12199.218750; 9.31814E-5
12205.078125; 1.01402E-4
12210.937500; 9.65177E-5
12216.796875; 1.04994E-4
12222.656250; 9.92895E-5
12228.515625; 1.07862E-4
12234.375000; 1.04173E-4
12240.234375; 1.12303E-4
12246.093750; 1.17368E-4
12251.953125; 1.10465E-4
12257.812500; 1.11783E-4
12263.671875; 1.09814E-4
12269.531250; 1.04724E-4
12275.390625; 1.01575E-4
12281.250000; 1.06011E-4
12287.109375; 1.22614E-4
12292.968750; 1.20420E-4
12298.828125; 1.08250E-4
12304.687500; 1.03167E-4
12310.546875; 1.15462E-4
12316.406250; 1.12924E-4
12322.265625; 1.10868E-4
12328.125000; 1.07886E-4
12333.984375; 9.84450E-5
12339.843750; 1.00613E-4
12345.703125; 9.64674E-5
12351.562500; 9.24484E-5
12357.421875; 9.34253E-5
12363.281250; 1.03541E-4
12369.140625; 1.08745E-4
12375.000000; 1.11806E-4
12380.859375; 1.07641E-4
12386.718750; 9.87904E-5
12392.578125; 1.00307E-4
12398.437500; 9.25603E-5
12404.296875; 9.86429E-5
12410.156250; 1.12713E-4
12416.015625; 1.17823E-4
12421.875000; 1.14144E-4
12427.734375; 1.01561E-4
12433.593750; 1.07793E-4
12439.453125; 1.04415E-4
12445.312500; 1.11521E-4
12451.171875; 1.14482E-4
12457.031250; 1.09080E-4
12462.890625; 1.03048E-4
12468.750000; 1.08736E-4
12474.609375; 1.06108E-4
12480.468750; 9.76607E-5
12486.328125; 1.02444E-4
12492.187500; 1.07731E-4
12498.046875; 1.01840E-4
12503.906250; 1.10616E-4
12509.765625; 1.05552E-4
12515.625000; 9.62820E-5
12521.484375; 9.56508E-5
12527.343750; 9.95581E-5
12533.203125; 1.10142E-4
12539.062500; 1.14765E-4
12544.921875; 9.62728E-5
12550.781250; 9.66061E-5
12556.640625; 1.09127E-4
12562.500000; 1.11953E-4
12568.359375; 9.97477E-5
12574.218750; 1.01791E-4
12580.078125; 1.04820E-4
12585.937500; 1.08749E-4
12591.796875; 1.02512E-4
12597.656250; 1.05715E-4
12603.515625; 9.67333E-5
12609.375000; 1.00994E-4
12615.234375; 1.06153E-4
12621.093750; 1.09515E-4
12626.953125; 9.86462E-5
12632.812500; 1.08361E-4
12638.671875; 1.20825E-4
12644.531250; 1.12590E-4
12650.390625; 1.13186E-4
12656.250000; 1.18011E-4
12662.109375; 1.12565E-4
12667.968750; 1.16640E-4
12673.828125; 1.06185E-4
12679.687500; 1.04841E-4
12685.546875; 1.03502E-4
12691.406250; 1.04413E-4
12697.265625; 1.02120E-4
12703.125000; 9.71079E-5
12708.984375; 9.48668E-5
12714.843750; 1.00389E-4
12720.703125; 1.07356E-4
12726.562500; 1.12573E-4
12732.421875; 1.17103E-4
12738.281250; 1.22313E-4
12744.140625; 1.16711E-4
12750.000000; 1.15696E-4
12755.859375; 1.02254E-4
12761.718750; 9.91534E-5
12767.578125; 1.05531E-4
12773.437500; 1.11546E-4
12779.296875; 1.13436E-4
12785.156250; 1.00979E-4
12791.015625; 9.89032E-5
12796.875000; 1.04527E-4
12802.734375; 1.02828E-4
12808.593750; 9.42388E-5
12814.453125; 9.49984E-5
12820.312500; 1.02304E-4
12826.171875; 1.09354E-4
12832.031250; 1.11678E-4
12837.890625; 1.12810E-4
12843.750000; 1.06614E-4
12849.609375; 9.88114E-5
12855.468750; 1.01151E-4
12861.328125; 1.04220E-4
12867.187500; 1.05400E-4
12873.046875; 1.13104E-4
12878.906250; 1.13018E-4
12884.765625; 9.90191E-5
12890.625000; 1.02600E-4
12896.484375; 1.11414E-4
12902.343750; 1.04700E-4
12908.203125; 9.95847E-5
12914.062500; 1.17772E-4
12919.921875; 1.19380E-4
12925.781250; 1.07371E-4
12931.640625; 1.07100E-4
12937.500000; 1.07830E-4
12943.359375; 1.09731E-4
12949.218750; 1.08190E-4
12955.078125; 1.07980E-4
12960.937500; 1.01205E-4
12966.796875; 1.01106E-4
12972.656250; 1.08058E-4
12978.515625; 1.08696E-4
12984.375000; 9.95939E-5
12990.234375; 1.04301E-4
12996.093750; 1.07547E-4
13001.953125; 1.02795E-4
13007.812500; 1.02378E-4
13013.671875; 9.46374E-5
13019.531250; 8.78702E-5
13025.390625; 1.10378E-4
13031.250000; 1.26578E-4
13037.109375; 1.28594E-4
13042.968750; 1.11075E-4
13048.828125; 1.00464E-4
13054.687500; 9.78359E-5
13060.546875; 1.07478E-4
13066.406250; 1.01904E-4
13072.265625; 9.66886E-5
13078.125000; 1.00687E-4
13083.984375; 9.75587E-5
13089.843750; 1.03246E-4
13095.703125; 1.08796E-4
13101.562500; 1.05053E-4
13107.421875; 1.09448E-4
13113.281250; 1.21036E-4
13119.140625; 1.21158E-4
13125.000000; 1.18345E-4
13130.859375; 1.16867E-4
13136.718750; 1.08547E-4
13142.578125; 1.01996E-4
13148.437500; 1.01447E-4
13154.296875; 1.03772E-4
13160.156250; 9.35088E-5
13166.015625; 9.01982E-5
13171.875000; 9.41913E-5
13177.734375; 9.55644E-5
13183.593750; 9.48241E-5
13189.453125; 1.05305E-4
13195.312500; 1.08688E-4
13201.171875; 1.02631E-4
13207.031250; 1.07798E-4
13212.890625; 1.22197E-4
13218.750000; 1.10827E-4
13224.609375; 1.05154E-4
13230.468750; 1.14003E-4
13236.328125; 1.03341E-4
13242.187500; 1.09332E-4
13248.046875; 1.05821E-4
13253.906250; 1.05179E-4
13259.765625; 1.09022E-4
13265.625000; 1.15874E-4
13271.484375; 1.15060E-4
13277.343750; 1.17363E-4
13283.203125; 1.11622E-4
13289.062500; 1.03436E-4
13294.921875; 1.12067E-4
13300.781250; 1.09577E-4
13306.640625; 1.16465E-4
13312.500000; 1.06800E-4
13318.359375; 1.12722E-4
13324.218750; 1.10145E-4
13330.078125; 1.03207E-4
13335.937500; 1.04229E-4
13341.796875; 1.11766E-4
13347.656250; 1.12233E-4
13353.515625; 1.04502E-4
13359.375000; 9.51791E-5
13365.234375; 1.02118E-4
13371.093750; 1.11154E-4
13376.953125; 1.15311E-4
13382.812500; 1.16492E-4
13388.671875; 1.04463E-4
13394.531250; 1.04427E-4
13400.390625; 1.05149E-4
13406.250000; 9.68761E-5
13412.109375; 9.56972E-5
13417.968750; 1.07093E-4
13423.828125; 1.22453E-4
13429.687500; 1.13146E-4
13435.546875; 1.17601E-4
13441.406250; 1.05828E-4
13447.265625; 1.04307E-4
13453.125000; 1.00606E-4
13458.984375; 1.00410E-4
13464.843750; 1.13685E-4
13470.703125; 1.08013E-4
13476.562500; 1.03855E-4
13482.421875; 9.95691E-5
13488.281250; 1.06766E-4
13494.140625; 1.14920E-4
13500.000000; 1.20438E-4
13505.859375; 1.20910E-4
13511.718750; 1.10874E-4
13517.578125; 1.05133E-4
13523.437500; 1.03582E-4
13529.296875; 1.04302E-4
13535.156250; 1.00707E-4
13541.015625; 9.81664E-5
13546.875000; 1.03982E-4
13552.734375; 1.09104E-4
13558.593750; 1.09384E-4
13564.453125; 1.07985E-4
13570.312500; 1.08044E-4
13576.171875; 1.15365E-4
13582.031250; 1.20655E-4
13587.890625; 1.12128E-4
13593.750000; 1.20319E-4
13599.609375; 1.18317E-4
13605.468750; 1.08460E-4
13611.328125; 1.01122E-4
13617.187500; 8.94370E-5
13623.046875; 8.38323E-5
13628.906250; 1.04881E-4
13634.765625; 1.08936E-4
13640.625000; 1.05261E-4
13646.484375; 1.09803E-4
13652.343750; 1.19355E-4
13658.203125; 1.07301E-4
13664.062500; 1.03477E-4
13669.921875; 1.05109E-4
13675.781250; 9.65408E-5
13681.640625; 1.07902E-4
13687.500000; 1.06784E-4
13693.359375; 9.66124E-5
13699.218750; 9.23062E-5
13705.078125; 9.15426E-5
13710.937500; 9.62735E-5
13716.796875; 1.07246E-4
13722.656250; 1.12828E-4
13728.515625; 1.01105E-4
13734.375000; 1.02614E-4
13740.234375; 1.11503E-4
13746.093750; 1.11516E-4
13751.953125; 1.04937E-4
13757.812500; 1.03181E-4
13763.671875; 9.63029E-5
13769.531250; 1.05943E-4
13775.390625; 1.02788E-4
13781.250000; 1.00023E-4
13787.109375; 1.05567E-4
13792.968750; 1.17852E-4
13798.828125; 1.13378E-4
13804.687500; 1.07400E-4
13810.546875; 1.06863E-4
13816.406250; 9.95239E-5
13822.265625; 1.09208E-4
13828.125000; 1.12476E-4
13833.984375; 1.09763E-4
13839.843750; 1.15040E-4
13845.703125; 1.12420E-4
13851.562500; 1.06460E-4
13857.421875; 1.01807E-4
13863.281250; 1.02019E-4
13869.140625; 1.02875E-4
13875.000000; 9.92088E-5
13880.859375; 1.07100E-4
13886.718750; 1.04879E-4
13892.578125; 1.10824E-4
13898.437500; 1.20422E-4
13904.296875; 1.14195E-4
13910.156250; 1.09490E-4
13916.015625; 1.05676E-4
13921.875000; 1.08186E-4
13927.734375; 1.05130E-4
13933.593750; 9.69035E-5
13939.453125; 1.12497E-4
13945.312500; 1.12903E-4
13951.171875; 1.12889E-4
13957.031250; 1.09660E-4
13962.890625; 1.06740E-4
13968.750000; 1.16734E-4
13974.609375; 1.03772E-4
13980.468750; 1.02050E-4
13986.328125; 1.04622E-4
13992.187500; 1.11156E-4
13998.046875; 1.12599E-4
14003.906250; 1.11014E-4
14009.765625; 1.09622E-4
14015.625000; 1.10353E-4
14021.484375; 1.09321E-4
14027.343750; 1.02908E-4
14033.203125; 9.95703E-5
14039.062500; 9.62383E-5
14044.921875; 1.00859E-4
14050.781250; 9.90244E-5
14056.640625; 9.68840E-5
14062.500000; 9.62909E-5
14068.359375; 1.01134E-4
14074.218750; 1.16901E-4
14080.078125; 1.12388E-4
14085.937500; 9.80789E-5
14091.796875; 1.02781E-4
14097.656250; 1.09017E-4
14103.515625; 1.15919E-4
14109.375000; 1.02410E-4
14115.234375; 1.04000E-4
14121.093750; 1.07265E-4
14126.953125; 1.02757E-4
14132.812500; 1.09059E-4
14138.671875; 1.05929E-4
14144.531250; 1.10100E-4
14150.390625; 1.06792E-4
14156.250000; 9.44179E-5
14162.109375; 9.84137E-5
14167.968750; 1.08088E-4
14173.828125; 1.01508E-4
14179.687500; 1.09933E-4
14185.546875; 1.22059E-4
14191.406250; 1.12704E-4
14197.265625; 1.16019E-4
14203.125000; 1.17251E-4
14208.984375; 1.07930E-4
14214.843750; 1.15241E-4
14220.703125; 1.14248E-4
14226.562500; 1.15154E-4
14232.421875; 1.13075E-4
14238.281250; 1.05271E-4
14244.140625; 9.86738E-5
14250.000000; 1.10748E-4
14255.859375; 1.03505E-4
14261.718750; 1.03157E-4
14267.578125; 1.02671E-4
14273.437500; 1.11979E-4
14279.296875; 1.02380E-4
14285.156250; 9.19071E-5
14291.015625; 1.00360E-4
14296.875000; 1.09630E-4
14302.734375; 1.13260E-4
14308.593750; 1.11456E-4
14314.453125; 1.02331E-4
14320.312500; 1.07320E-4
14326.171875; 1.04309E-4
14332.031250; 1.05906E-4
14337.890625; 1.08489E-4
14343.750000; 1.01414E-4
14349.609375; 1.05844E-4
14355.468750; 9.68586E-5
14361.328125; 1.06268E-4
14367.187500; 1.02510E-4
14373.046875; 1.06523E-4
14378.906250; 9.86590E-5
14384.765625; 1.08796E-4
14390.625000; 1.19786E-4
14396.484375; 1.11369E-4
14402.343750; 1.09932E-4
14408.203125; 1.17910E-4
14414.062500; 1.11393E-4
14419.921875; 1.03472E-4
14425.781250; 1.14145E-4
14431.640625; 1.18202E-4
14437.500000; 1.10820E-4
14443.359375; 1.00894E-4
14449.218750; 9.59671E-5
14455.078125; 9.95996E-5
14460.937500; 1.12297E-4
14466.796875; 1.19022E-4
14472.656250; 1.13686E-4
14478.515625; 1.01279E-4
14484.375000; 1.01165E-4
14490.234375; 1.03158E-4
14496.093750; 1.12508E-4
14501.953125; 1.08922E-4
14507.812500; 1.17785E-4
14513.671875; 1.17809E-4
14519.531250; 1.10292E-4
14525.390625; 1.11939E-4
14531.250000; 1.09668E-4
14537.109375; 8.89166E-5
14542.968750; 9.85906E-5
14548.828125; 1.07728E-4
14554.687500; 1.04183E-4
14560.546875; 1.04079E-4
14566.406250; 1.05788E-4
14572.265625; 9.83248E-5
14578.125000; 9.68835E-5
14583.984375; 9.90580E-5
14589.843750; 1.01905E-4
14595.703125; 1.03656E-4
14601.562500; 1.06973E-4
14607.421875; 1.11759E-4
14613.281250; 1.00774E-4
14619.140625; 1.00600E-4
14625.000000; 1.06226E-4
14630.859375; 1.04317E-4
14636.718750; 1.01268E-4
14642.578125; 1.10782E-4
14648.437500; 1.12891E-4
14654.296875; 1.12871E-4
14660.156250; 1.07040E-4
14666.015625; 1.00548E-4
14671.875000; 1.02009E-4
14677.734375; 1.02745E-4
14683.593750; 9.94762E-5
14689.453125; 1.04463E-4
14695.312500; 1.12727E-4
14701.171875; 1.04641E-4
14707.031250; 1.11831E-4
14712.890625; 1.19412E-4
14718.750000; 1.08740E-4
14724.609375; 1.00370E-4
14730.468750; 1.08788E-4
14736.328125; 1.08968E-4
14742.187500; 1.07942E-4
14748.046875; 1.06707E-4
14753.906250; 1.03215E-4
14759.765625; 1.10111E-4
14765.625000; 1.17726E-4
14771.484375; 1.08814E-4
14777.343750; 1.00677E-4
14783.203125; 1.06922E-4
14789.062500; 1.13472E-4
14794.921875; 1.01451E-4
14800.781250; 1.05708E-4
14806.640625; 1.06638E-4
14812.500000; 9.11913E-5
14818.359375; 1.03614E-4
14824.218750; 1.11629E-4
14830.078125; 1.01686E-4
14835.937500; 1.05941E-4
14841.796875; 1.02327E-4
14847.656250; 1.04522E-4
14853.515625; 1.09389E-4
14859.375000; 1.08767E-4
14865.234375; 1.03908E-4
14871.093750; 1.00645E-4
14876.953125; 1.01102E-4
14882.812500; 1.07806E-4
14888.671875; 1.02386E-4
14894.531250; 1.01001E-4
14900.390625; 1.13131E-4
14906.250000; 1.01130E-4
14912.109375; 9.82614E-5
14917.968750; 9.56891E-5
14923.828125; 9.82720E-5
14929.687500; 1.05458E-4
14935.546875; 9.97576E-5
14941.406250; 9.67047E-5
14947.265625; 9.39586E-5
14953.125000; 1.04466E-4
14958.984375; 1.11288E-4
14964.843750; 1.11038E-4
14970.703125; 1.21442E-4
14976.562500; 1.16758E-4
14982.421875; 1.24355E-4
14988.281250; 1.11337E-4
14994.140625; 1.07308E-4
15000.000000; 1.17736E-4
15005.859375; 1.07812E-4
15011.718750; 1.02327E-4
15017.578125; 1.07199E-4
15023.437500; 1.11402E-4
15029.296875; 1.07280E-4
15035.156250; 1.01210E-4
15041.015625; 1.08670E-4
15046.875000; 9.84795E-5
15052.734375; 9.97861E-5
15058.593750; 1.15816E-4
15064.453125; 1.13129E-4
15070.312500; 1.21519E-4
15076.171875; 1.19041E-4
15082.031250; 1.11907E-4
15087.890625; 1.05433E-4
15093.750000; 9.54549E-5
15099.609375; 1.00874E-4
15105.468750; 1.05340E-4
15111.328125; 9.75273E-5
15117.187500; 9.65180E-5
15123.046875; 1.04740E-4
15128.906250; 1.19648E-4
15134.765625; 1.11541E-4
15140.625000; 1.00628E-4
15146.484375; 1.02993E-4
15152.343750; 1.02158E-4
15158.203125; 1.06304E-4
15164.062500; 1.05419E-4
15169.921875; 1.04559E-4
15175.781250; 1.00344E-4
15181.640625; 1.08991E-4
15187.500000; 1.07669E-4
15193.359375; 1.08632E-4
15199.218750; 1.10104E-4
15205.078125; 1.06030E-4
15210.937500; 1.05097E-4
15216.796875; 9.55345E-5
15222.656250; 1.01077E-4
15228.515625; 9.96017E-5
15234.375000; 1.04852E-4
15240.234375; 1.04421E-4
15246.093750; 1.10187E-4
15251.953125; 1.05950E-4
15257.812500; 9.70158E-5
15263.671875; 1.00184E-4
15269.531250; 1.04471E-4
15275.390625; 1.13731E-4
15281.250000; 1.03462E-4
15287.109375; 1.13780E-4
15292.968750; 1.09054E-4
15298.828125; 9.41509E-5
15304.687500; 1.10693E-4
15310.546875; 1.11639E-4
15316.406250; 1.17193E-4
15322.265625; 1.14411E-4
15328.125000; 1.08996E-4
15333.984375; 1.09900E-4
15339.843750; 1.06682E-4
15345.703125; 1.14504E-4
15351.562500; 1.18846E-4
15357.421875; 9.44812E-5
15363.281250; 9.97332E-5
15369.140625; 1.15316E-4
15375.000000; 1.04119E-4
15380.859375; 9.95854E-5
15386.718750; 1.11590E-4
15392.578125; 1.11678E-4
15398.437500; 1.11016E-4
15404.296875; 1.14102E-4
15410.156250; 1.12826E-4
15416.015625; 1.13418E-4
15421.875000; 1.12527E-4
15427.734375; 1.10309E-4
15433.593750; 1.19337E-4
15439.453125; 1.19691E-4
15445.312500; 9.86140E-5
15451.171875; 9.78346E-5
15457.031250; 1.06153E-4
15462.890625; 1.04773E-4
15468.750000; 1.08963E-4
15474.609375; 1.03291E-4
15480.468750; 1.01350E-4
15486.328125; 1.01532E-4
15492.187500; 9.57259E-5
15498.046875; 1.05905E-4
15503.906250; 1.09393E-4
15509.765625; 1.21621E-4
15515.625000; 1.08739E-4
15521.484375; 9.99191E-5
15527.343750; 1.00326E-4
15533.203125; 9.41268E-5
15539.062500; 9.11938E-5
15544.921875; 9.09650E-5
15550.781250; 9.76269E-5
15556.640625; 1.02340E-4
15562.500000; 9.97077E-5
15568.359375; 1.09887E-4
15574.218750; 1.11697E-4
15580.078125; 1.12633E-4
15585.937500; 1.12831E-4
15591.796875; 1.02578E-4
15597.656250; 1.01118E-4
15603.515625; 1.11399E-4
15609.375000; 1.05277E-4
15615.234375; 1.07785E-4
15621.093750; 1.02872E-4
15626.953125; 9.89319E-5
15632.812500; 1.03629E-4
15638.671875; 1.10473E-4
15644.531250; 9.89159E-5
15650.390625; 9.96248E-5
15656.250000; 1.06762E-4
15662.109375; 1.10052E-4
15667.968750; 1.07657E-4
15673.828125; 1.00332E-4
15679.687500; 1.03229E-4
15685.546875; 1.07101E-4
15691.406250; 1.11155E-4
15697.265625; 1.16496E-4
15703.125000; 1.15765E-4
15708.984375; 1.12893E-4
15714.843750; 1.10111E-4
15720.703125; 1.04389E-4
15726.562500; 1.01372E-4
15732.421875; 1.00519E-4
15738.281250; 9.81742E-5
15744.140625; 1.01751E-4
15750.000000; 1.12894E-4
15755.859375; 1.01692E-4
15761.718750; 1.06764E-4
15767.578125; 1.07843E-4
15773.437500; 1.05798E-4
15779.296875; 1.01986E-4
15785.156250; 1.16095E-4
15791.015625; 1.03861E-4
15796.875000; 9.96645E-5
15802.734375; 1.10381E-4
15808.593750; 9.96856E-5
15814.453125; 9.76398E-5
15820.312500; 1.05443E-4
15826.171875; 1.06721E-4
15832.031250; 1.08684E-4
15837.890625; 9.12234E-5
15843.750000; 1.04641E-4
15849.609375; 1.06754E-4
15855.468750; 1.04680E-4
15861.328125; 1.06381E-4
15867.187500; 9.76230E-5
15873.046875; 9.65332E-5
15878.906250; 1.05532E-4
15884.765625; 1.06253E-4
15890.625000; 9.41821E-5
15896.484375; 9.29270E-5
15902.343750; 9.89510E-5
15908.203125; 1.00208E-4
15914.062500; 1.05861E-4
15919.921875; 1.13089E-4
15925.781250; 1.10376E-4
15931.640625; 1.03715E-4
15937.500000; 1.07095E-4
15943.359375; 1.08127E-4
15949.218750; 9.62797E-5
15955.078125; 1.01959E-4
15960.937500; 1.09757E-4
15966.796875; 8.91971E-5
15972.656250; 8.64952E-5
15978.515625; 9.39396E-5
15984.375000; 1.11489E-4
15990.234375; 1.02162E-4
15996.093750; 9.45802E-5
16001.953125; 1.00432E-4
16007.812500; 1.10043E-4
16013.671875; 1.04259E-4
16019.531250; 9.93732E-5
16025.390625; 1.00525E-4
16031.250000; 9.86666E-5
16037.109375; 1.02185E-4
16042.968750; 9.07072E-5
16048.828125; 1.05839E-4
16054.687500; 1.16794E-4
16060.546875; 1.16086E-4
16066.406250; 1.05167E-4
16072.265625; 1.07525E-4
16078.125000; 1.14941E-4
16083.984375; 1.14220E-4
16089.843750; 1.06568E-4
16095.703125; 1.02815E-4
16101.562500; 1.08755E-4
16107.421875; 1.09210E-4
16113.281250; 1.16622E-4
16119.140625; 1.17342E-4
16125.000000; 1.12146E-4
16130.859375; 1.04079E-4
16136.718750; 1.00228E-4
16142.578125; 1.09430E-4
16148.437500; 1.17081E-4
16154.296875; 1.05366E-4
16160.156250; 1.07455E-4
16166.015625; 9.96857E-5
16171.875000; 1.05687E-4
16177.734375; 1.10543E-4
16183.593750; 1.16383E-4
16189.453125; 1.12378E-4
16195.312500; 9.75609E-5
16201.171875; 1.01996E-4
16207.031250; 9.43431E-5
16212.890625; 9.80198E-5
16218.750000; 1.04996E-4
16224.609375; 1.08643E-4
16230.468750; 1.15372E-4
16236.328125; 1.14909E-4
16242.187500; 1.13231E-4
16248.046875; 1.21207E-4
16253.906250; 1.12330E-4
16259.765625; 1.09775E-4
16265.625000; 1.06775E-4
16271.484375; 1.00260E-4
16277.343750; 9.37834E-5
16283.203125; 9.51684E-5
16289.062500; 1.01080E-4
16294.921875; 1.19907E-4
16300.781250; 1.21011E-4
16306.640625; 1.11844E-4
16312.500000; 9.87922E-5
16318.359375; 9.61721E-5
16324.218750; 9.53596E-5
16330.078125; 1.03176E-4
16335.937500; 1.10039E-4
16341.796875; 9.64253E-5
16347.656250; 1.11272E-4
16353.515625; 1.07443E-4
16359.375000; 1.03424E-4
16365.234375; 1.16303E-4
16371.093750; 1.18774E-4
16376.953125; 1.05288E-4
16382.812500; 1.03011E-4
16388.671875; 1.08018E-4
16394.531250; 8.99354E-5
16400.390625; 8.99303E-5
16406.250000; 1.03942E-4
16412.109375; 1.07582E-4
16417.968750; 1.01795E-4
16423.828125; 9.22170E-5
16429.687500; 9.55063E-5
16435.546875; 1.04424E-4
16441.406250; 9.47211E-5
16447.265625; 1.12395E-4
16453.125000; 1.13052E-4
16458.984375; 1.18769E-4
16464.843750; 1.08343E-4
16470.703125; 1.14654E-4
16476.562500; 1.09130E-4
16482.421875; 1.05537E-4
16488.281250; 9.22456E-5
16494.140625; 9.59005E-5
16500.000000; 1.06155E-4
16505.859375; 1.02932E-4
16511.718750; 9.76080E-5
16517.578125; 1.07513E-4
16523.437500; 1.01321E-4
16529.296875; 9.85499E-5
16535.156250; 1.02795E-4
16541.015625; 1.04406E-4
16546.875000; 9.82592E-5
16552.734375; 1.01810E-4
16558.593750; 1.08534E-4
16564.453125; 1.03833E-4
16570.312500; 1.11290E-4
16576.171875; 1.07352E-4
16582.031250; 1.00973E-4
16587.890625; 9.67804E-5
16593.750000; 1.11810E-4
16599.609375; 1.15489E-4
16605.468750; 1.09029E-4
16611.328125; 1.01248E-4
16617.187500; 1.00230E-4
16623.046875; 9.42601E-5
16628.906250; 1.03306E-4
16634.765625; 9.95812E-5
16640.625000; 1.02784E-4
16646.484375; 1.08764E-4
16652.343750; 1.03717E-4
16658.203125; 9.06969E-5
16664.062500; 1.00344E-4
16669.921875; 9.75539E-5
16675.781250; 8.83424E-5
16681.640625; 9.48721E-5
16687.500000; 1.01927E-4
16693.359375; 1.03417E-4
16699.218750; 9.57683E-5
16705.078125; 8.69074E-5
16710.937500; 9.72243E-5
16716.796875; 1.08279E-4
16722.656250; 1.11957E-4
16728.515625; 1.29006E-4
16734.375000; 1.23781E-4
16740.234375; 1.04823E-4
16746.093750; 9.95671E-5
16751.953125; 1.01137E-4
16757.812500; 8.98984E-5
16763.671875; 9.16485E-5
16769.531250; 1.07688E-4
16775.390625; 1.18548E-4
16781.250000; 1.18217E-4
16787.109375; 1.14856E-4
16792.968750; 1.05612E-4
16798.828125; 1.08590E-4
16804.687500; 1.10652E-4
16810.546875; 1.01597E-4
16816.406250; 1.02911E-4
16822.265625; 1.10329E-4
16828.125000; 1.14845E-4
16833.984375; 1.06755E-4
16839.843750; 1.01189E-4
16845.703125; 1.03197E-4
16851.562500; 1.00308E-4
16857.421875; 1.01531E-4
16863.281250; 1.10480E-4
16869.140625; 9.93259E-5
16875.000000; 1.00275E-4
16880.859375; 1.08617E-4
16886.718750; 1.08203E-4
16892.578125; 1.06214E-4
16898.437500; 9.89043E-5
16904.296875; 1.00132E-4
16910.156250; 1.09495E-4
16916.015625; 1.18516E-4
16921.875000; 1.12404E-4
16927.734375; 1.15369E-4
16933.593750; 9.73170E-5
16939.453125; 9.83401E-5
16945.312500; 1.04621E-4
16951.171875; 1.03192E-4
16957.031250; 9.73725E-5
16962.890625; 1.08224E-4
16968.750000; 1.10521E-4
16974.609375; 9.47295E-5
16980.468750; 9.96263E-5
16986.328125; 1.02513E-4
16992.187500; 1.04374E-4
16998.046875; 1.08757E-4
17003.906250; 1.07057E-4
17009.765625; 1.05697E-4
17015.625000; 1.07818E-4
17021.484375; 1.11764E-4
17027.343750; 1.06505E-4
17033.203125; 1.02265E-4
17039.062500; 1.14359E-4
17044.921875; 1.17425E-4
17050.781250; 9.84932E-5
17056.640625; 9.79061E-5
17062.500000; 9.29473E-5
17068.359375; 9.63926E-5
17074.218750; 1.03536E-4
17080.078125; 1.12040E-4
17085.937500; 1.14781E-4
17091.796875; 1.04092E-4
17097.656250; 1.10762E-4
17103.515625; 1.02849E-4
17109.375000; 1.01066E-4
17115.234375; 1.03815E-4
17121.093750; 1.05032E-4
17126.953125; 1.02455E-4
17132.812500; 1.01702E-4
17138.671875; 1.07134E-4
17144.531250; 1.02228E-4
17150.390625; 1.06437E-4
17156.250000; 1.02819E-4
17162.109375; 9.16289E-5
17167.968750; 9.75101E-5
17173.828125; 1.09875E-4
17179.687500; 1.06710E-4
17185.546875; 1.08946E-4
17191.406250; 1.10038E-4
17197.265625; 1.05928E-4
17203.125000; 1.11353E-4
17208.984375; 1.14721E-4
17214.843750; 1.04786E-4
17220.703125; 1.09982E-4
17226.562500; 1.23160E-4
17232.421875; 1.05701E-4
17238.281250; 1.01419E-4
17244.140625; 1.00376E-4
17250.000000; 1.08958E-4
17255.859375; 1.02186E-4
17261.718750; 9.79325E-5
17267.578125; 9.51246E-5
17273.437500; 9.99688E-5
17279.296875; 1.06875E-4
17285.156250; 1.11359E-4
17291.015625; 1.00892E-4
17296.875000; 1.04937E-4
17302.734375; 1.15217E-4
17308.593750; 1.06660E-4
17314.453125; 9.66461E-5
17320.312500; 9.90546E-5
17326.171875; 1.00220E-4
17332.031250; 9.84137E-5
17337.890625; 1.06189E-4
17343.750000; 1.11572E-4
17349.609375; 1.11131E-4
17355.468750; 1.15209E-4
17361.328125; 1.22055E-4
17367.187500; 1.22164E-4
17373.046875; 1.08099E-4
17378.906250; 9.78989E-5
17384.765625; 1.05598E-4
17390.625000; 1.16285E-4
17396.484375; 1.18986E-4
17402.343750; 1.09765E-4
17408.203125; 1.12573E-4
17414.062500; 1.14271E-4
17419.921875; 1.09673E-4
17425.781250; 1.11964E-4
17431.640625; 1.09626E-4
17437.500000; 9.60441E-5
17443.359375; 1.06661E-4
17449.218750; 1.09443E-4
17455.078125; 1.13792E-4
17460.937500; 1.09408E-4
17466.796875; 9.97314E-5
17472.656250; 9.58620E-5
17478.515625; 9.84729E-5
17484.375000; 1.00650E-4
17490.234375; 1.08549E-4
17496.093750; 1.06709E-4
17501.953125; 9.48220E-5
17507.812500; 1.01246E-4
17513.671875; 9.43620E-5
17519.531250; 9.47277E-5
17525.390625; 1.06358E-4
17531.250000; 1.04046E-4
17537.109375; 1.14629E-4
17542.968750; 1.14742E-4
17548.828125; 1.12403E-4
17554.687500; 1.01129E-4
17560.546875; 9.67472E-5
17566.406250; 1.04224E-4
17572.265625; 9.81833E-5
17578.125000; 1.09512E-4
17583.984375; 1.02932E-4
17589.843750; 1.05497E-4
17595.703125; 1.10803E-4
17601.562500; 1.13612E-4
17607.421875; 1.11063E-4
17613.281250; 1.10774E-4
17619.140625; 9.66888E-5
17625.000000; 8.64479E-5
17630.859375; 9.51816E-5
17636.718750; 9.26337E-5
17642.578125; 9.00018E-5
17648.437500; 9.94299E-5
17654.296875; 1.14744E-4
17660.156250; 1.16606E-4
17666.015625; 1.10612E-4
17671.875000; 1.04117E-4
17677.734375; 1.09997E-4
17683.593750; 1.12635E-4
17689.453125; 1.07444E-4
17695.312500; 1.14821E-4
17701.171875; 1.05757E-4
17707.031250; 1.05262E-4
17712.890625; 1.09683E-4
17718.750000; 1.05488E-4
17724.609375; 1.17151E-4
17730.468750; 1.08947E-4
17736.328125; 9.86395E-5
17742.187500; 1.01407E-4
17748.046875; 1.04549E-4
17753.906250; 9.41247E-5
17759.765625; 9.54961E-5
17765.625000; 1.11880E-4
17771.484375; 1.20172E-4
17777.343750; 1.21323E-4
17783.203125; 1.18813E-4
17789.062500; 1.02042E-4
17794.921875; 1.05465E-4
17800.781250; 1.02971E-4
17806.640625; 1.03051E-4
17812.500000; 1.05774E-4
17818.359375; 1.03457E-4
17824.218750; 9.62813E-5
17830.078125; 1.05268E-4
17835.937500; 1.09076E-4
17841.796875; 1.09265E-4
17847.656250; 1.11796E-4
17853.515625; 1.14455E-4
17859.375000; 1.12079E-4
17865.234375; 1.10487E-4
17871.093750; 9.94811E-5
17876.953125; 9.71362E-5
17882.812500; 9.30159E-5
17888.671875; 1.09105E-4
17894.531250; 1.08202E-4
17900.390625; 9.97030E-5
17906.250000; 9.14528E-5
17912.109375; 9.85808E-5
17917.968750; 1.03200E-4
17923.828125; 9.73880E-5
17929.687500; 1.01184E-4
17935.546875; 1.20700E-4
17941.406250; 1.20681E-4
17947.265625; 1.04165E-4
17953.125000; 1.02806E-4
17958.984375; 1.02630E-4
17964.843750; 1.09728E-4
17970.703125; 1.09685E-4
17976.562500; 1.23996E-4
17982.421875; 1.08437E-4
17988.281250; 9.27866E-5
17994.140625; 9.69493E-5
18000.000000; 9.54856E-5
18005.859375; 1.06360E-4
18011.718750; 1.10059E-4
18017.578125; 1.12519E-4
18023.437500; 1.20146E-4
18029.296875; 1.08830E-4
18035.156250; 1.03215E-4
18041.015625; 9.09968E-5
18046.875000; 8.81140E-5
18052.734375; 9.55882E-5
18058.593750; 9.54348E-5
18064.453125; 9.30605E-5
18070.312500; 1.01954E-4
18076.171875; 9.95126E-5
18082.031250; 1.07975E-4
18087.890625; 1.14992E-4
18093.750000; 1.13166E-4
18099.609375; 1.09149E-4
18105.468750; 1.16886E-4
18111.328125; 1.16443E-4
18117.187500; 1.02985E-4
18123.046875; 9.57759E-5
18128.906250; 1.07319E-4
18134.765625; 1.22226E-4
18140.625000; 1.05945E-4
18146.484375; 9.80469E-5
18152.343750; 9.40895E-5
18158.203125; 9.54227E-5
18164.062500; 1.08279E-4
18169.921875; 1.05117E-4
18175.781250; 1.02843E-4
18181.640625; 1.13290E-4
18187.500000; 1.09169E-4
18193.359375; 1.11444E-4
18199.218750; 1.11339E-4
18205.078125; 1.14119E-4
18210.937500; 1.12394E-4
18216.796875; 1.08556E-4
18222.656250; 1.00678E-4
18228.515625; 1.03148E-4
18234.375000; 1.00980E-4
18240.234375; 1.04465E-4
18246.093750; 1.22535E-4
18251.953125; 1.11399E-4
18257.812500; 1.06474E-4
18263.671875; 1.05527E-4
18269.531250; 1.04010E-4
18275.390625; 9.45751E-5
18281.250000; 9.74469E-5
18287.109375; 1.09854E-4
18292.968750; 1.14489E-4
18298.828125; 9.82115E-5
18304.687500; 9.20943E-5
18310.546875; 1.11243E-4
18316.406250; 1.08806E-4
18322.265625; 1.06757E-4
18328.125000; 1.13170E-4
18333.984375; 1.13810E-4
18339.843750; 1.18304E-4
18345.703125; 1.13145E-4
18351.562500; 1.07568E-4
18357.421875; 1.08584E-4
18363.281250; 1.07021E-4
18369.140625; 1.02956E-4
18375.000000; 1.05137E-4
18380.859375; 1.06392E-4
18386.718750; 1.07214E-4
18392.578125; 9.87284E-5
18398.437500; 1.08904E-4
18404.296875; 1.21907E-4
18410.156250; 1.14946E-4
18416.015625; 1.05452E-4
18421.875000; 1.04620E-4
18427.734375; 1.02711E-4
18433.593750; 9.98038E-5
18439.453125; 1.10677E-4
18445.312500; 1.13265E-4
18451.171875; 1.05190E-4
18457.031250; 1.10404E-4
18462.890625; 1.08117E-4
18468.750000; 9.90365E-5
18474.609375; 1.00635E-4
18480.468750; 9.81538E-5
18486.328125; 9.92646E-5
18492.187500; 1.01806E-4
18498.046875; 1.07138E-4
18503.906250; 9.62078E-5
18509.765625; 1.00047E-4
18515.625000; 1.05868E-4
18521.484375; 1.03808E-4
18527.343750; 9.89732E-5
18533.203125; 9.54131E-5
18539.062500; 9.67525E-5
18544.921875; 1.00991E-4
18550.781250; 9.80012E-5
18556.640625; 1.11831E-4
18562.500000; 1.04887E-4
18568.359375; 1.01471E-4
18574.218750; 1.09881E-4
18580.078125; 1.12911E-4
18585.937500; 1.08693E-4
18591.796875; 1.00461E-4
18597.656250; 1.09303E-4
18603.515625; 1.05868E-4
18609.375000; 9.86172E-5
18615.234375; 1.04923E-4
18621.093750; 1.08002E-4
18626.953125; 1.04068E-4
18632.812500; 1.07116E-4
18638.671875; 1.07516E-4
18644.531250; 1.10224E-4
18650.390625; 1.03538E-4
18656.250000; 1.00135E-4
18662.109375; 1.13482E-4
18667.968750; 1.14836E-4
18673.828125; 1.06113E-4
18679.687500; 1.13515E-4
18685.546875; 1.16433E-4
18691.406250; 1.11287E-4
18697.265625; 1.09245E-4
18703.125000; 1.02050E-4
18708.984375; 1.05524E-4
18714.843750; 1.20394E-4
18720.703125; 1.13736E-4
18726.562500; 1.07144E-4
18732.421875; 1.15936E-4
18738.281250; 1.03911E-4
18744.140625; 8.81056E-5
18750.000000; 9.60457E-5
18755.859375; 1.00833E-4
18761.718750; 1.02280E-4
18767.578125; 1.01011E-4
18773.437500; 9.66618E-5
18779.296875; 1.08002E-4
18785.156250; 1.06392E-4
18791.015625; 1.05734E-4
18796.875000; 1.06310E-4
18802.734375; 9.27879E-5
18808.593750; 1.00422E-4
18814.453125; 1.00837E-4
18820.312500; 1.03051E-4
18826.171875; 1.06024E-4
18832.031250; 1.14460E-4
18837.890625; 1.15865E-4
18843.750000; 1.10718E-4
18849.609375; 1.05274E-4
18855.468750; 9.84332E-5
18861.328125; 1.00407E-4
18867.187500; 1.01040E-4
18873.046875; 8.96655E-5
18878.906250; 9.91398E-5
18884.765625; 1.04067E-4
18890.625000; 1.02999E-4
18896.484375; 1.04313E-4
18902.343750; 9.44854E-5
18908.203125; 9.36727E-5
18914.062500; 1.13477E-4
18919.921875; 1.18456E-4
18925.781250; 9.46855E-5
18931.640625; 1.01526E-4
18937.500000; 1.03226E-4
18943.359375; 9.98032E-5
18949.218750; 1.02428E-4
18955.078125; 9.82221E-5
18960.937500; 9.95019E-5
18966.796875; 1.11394E-4
18972.656250; 1.02087E-4
18978.515625; 1.04584E-4
18984.375000; 1.00841E-4
18990.234375; 1.05439E-4
18996.093750; 9.67510E-5
19001.953125; 1.05879E-4
19007.812500; 1.15025E-4
19013.671875; 1.10861E-4
19019.531250; 9.89275E-5
19025.390625; 9.58888E-5
19031.250000; 1.10579E-4
19037.109375; 1.10309E-4
19042.968750; 1.09114E-4
19048.828125; 1.00973E-4
19054.687500; 9.52217E-5
19060.546875; 9.74748E-5
19066.406250; 9.54476E-5
19072.265625; 9.60452E-5
19078.125000; 1.02795E-4
19083.984375; 1.02291E-4
19089.843750; 1.02413E-4
19095.703125; 1.07257E-4
19101.562500; 9.68121E-5
19107.421875; 9.02967E-5
19113.281250; 9.82296E-5
19119.140625; 1.05754E-4
19125.000000; 1.07739E-4
19130.859375; 1.06325E-4
19136.718750; 1.01638E-4
19142.578125; 9.82224E-5
19148.437500; 1.08461E-4
19154.296875; 1.11377E-4
19160.156250; 1.11533E-4
19166.015625; 1.08121E-4
19171.875000; 1.07459E-4
19177.734375; 9.55538E-5
19183.593750; 9.94457E-5
19189.453125; 9.74984E-5
19195.312500; 9.10269E-5
19201.171875; 9.47565E-5
19207.031250; 1.03723E-4
19212.890625; 1.03600E-4
19218.750000; 1.09045E-4
19224.609375; 1.05566E-4
19230.468750; 1.11021E-4
19236.328125; 9.76868E-5
19242.187500; 9.40168E-5
19248.046875; 9.86574E-5
19253.906250; 9.25625E-5
19259.765625; 1.02775E-4
19265.625000; 1.15150E-4
19271.484375; 1.07914E-4
19277.343750; 9.81248E-5
19283.203125; 1.05766E-4
19289.062500; 1.14290E-4
19294.921875; 1.14049E-4
19300.781250; 1.00429E-4
19306.640625; 9.29089E-5
19312.500000; 1.03284E-4
19318.359375; 1.03200E-4
19324.218750; 1.04571E-4
19330.078125; 1.06335E-4
19335.937500; 1.08071E-4
19341.796875; 1.01417E-4
19347.656250; 1.03740E-4
19353.515625; 9.53562E-5
19359.375000; 9.83367E-5
19365.234375; 9.98145E-5
19371.093750; 9.99843E-5
19376.953125; 1.05374E-4
19382.812500; 1.08406E-4
19388.671875; 9.73366E-5
19394.531250; 1.02411E-4
19400.390625; 1.06715E-4
19406.250000; 9.80208E-5
19412.109375; 9.41603E-5
19417.968750; 1.01722E-4
19423.828125; 1.06307E-4
19429.687500; 1.02327E-4
19435.546875; 1.08520E-4
19441.406250; 1.10727E-4
19447.265625; 1.15062E-4
19453.125000; 9.45028E-5
19458.984375; 1.02639E-4
19464.843750; 1.07229E-4
19470.703125; 1.06436E-4
19476.562500; 1.01766E-4
19482.421875; 9.86401E-5
19488.281250; 1.10052E-4
19494.140625; 1.08947E-4
19500.000000; 9.66073E-5
19505.859375; 9.91821E-5
19511.718750; 1.04388E-4
19517.578125; 1.09805E-4
19523.437500; 9.38675E-5
19529.296875; 9.41756E-5
19535.156250; 1.02870E-4
19541.015625; 1.00201E-4
19546.875000; 9.40284E-5
19552.734375; 1.05042E-4
19558.593750; 1.07234E-4
19564.453125; 1.00693E-4
19570.312500; 1.07093E-4
19576.171875; 1.05669E-4
19582.031250; 1.09162E-4
19587.890625; 1.08812E-4
19593.750000; 1.02980E-4
19599.609375; 1.08196E-4
19605.468750; 1.11838E-4
19611.328125; 9.99957E-5
19617.187500; 9.94942E-5
19623.046875; 9.54350E-5
19628.906250; 9.60412E-5
19634.765625; 1.07117E-4
19640.625000; 1.13368E-4
19646.484375; 9.90080E-5
19652.343750; 9.67577E-5
19658.203125; 1.01616E-4
19664.062500; 1.05482E-4
19669.921875; 1.16882E-4
19675.781250; 1.18178E-4
19681.640625; 1.12418E-4
19687.500000; 1.10312E-4
19693.359375; 1.11329E-4
19699.218750; 1.03401E-4
19705.078125; 1.00090E-4
19710.937500; 1.04822E-4
19716.796875; 1.06457E-4
19722.656250; 9.30642E-5
19728.515625; 1.06585E-4
19734.375000; 1.16280E-4
19740.234375; 1.08990E-4
19746.093750; 1.07979E-4
19751.953125; 1.06527E-4
19757.812500; 9.81885E-5
19763.671875; 1.01270E-4
19769.531250; 1.06227E-4
19775.390625; 1.09577E-4
19781.250000; 1.07724E-4
19787.109375; 9.85594E-5
19792.968750; 9.58291E-5
19798.828125; 1.00500E-4
19804.687500; 1.09251E-4
19810.546875; 1.09105E-4
19816.406250; 9.38688E-5
19822.265625; 1.04287E-4
19828.125000; 1.03507E-4
19833.984375; 9.85991E-5
19839.843750; 1.03371E-4
19845.703125; 1.07056E-4
19851.562500; 1.01271E-4
19857.421875; 1.12607E-4
19863.281250; 9.42815E-5
19869.140625; 1.02362E-4
19875.000000; 1.09566E-4
19880.859375; 1.03050E-4
19886.718750; 9.83944E-5
19892.578125; 9.84110E-5
19898.437500; 8.94087E-5
19904.296875; 9.06591E-5
19910.156250; 1.06378E-4
19916.015625; 1.01027E-4
19921.875000; 1.02044E-4
19927.734375; 1.10269E-4
19933.593750; 1.06414E-4
19939.453125; 1.07025E-4
19945.312500; 9.62606E-5
19951.171875; 9.62374E-5
19957.031250; 9.64278E-5
19962.890625; 9.12010E-5
19968.750000; 1.06345E-4
19974.609375; 1.05589E-4
19980.468750; 9.67183E-5
19986.328125; 9.88878E-5
19992.187500; 1.02667E-4
19998.046875; 1.04528E-4
20003.906250; 9.90847E-5
20009.765625; 9.43114E-5
20015.625000; 9.66058E-5
20021.484375; 9.66771E-5
20027.343750; 9.79531E-5
20033.203125; 1.09270E-4
20039.062500; 1.14738E-4
20044.921875; 1.01372E-4
20050.781250; 1.06873E-4
20056.640625; 1.04691E-4
20062.500000; 1.04392E-4
20068.359375; 1.11120E-4
20074.218750; 1.07384E-4
20080.078125; 1.02872E-4
20085.937500; 1.08129E-4
20091.796875; 9.79800E-5
20097.656250; 1.00425E-4
20103.515625; 1.03443E-4
20109.375000; 1.15752E-4
20115.234375; 1.01202E-4
20121.093750; 8.95048E-5
20126.953125; 9.59331E-5
20132.812500; 9.97971E-5
20138.671875; 1.11631E-4
20144.531250; 1.08611E-4
20150.390625; 1.02333E-4
20156.250000; 1.07204E-4
20162.109375; 9.80435E-5
20167.968750; 9.72954E-5
20173.828125; 9.96625E-5
20179.687500; 1.00923E-4
20185.546875; 1.19473E-4
20191.406250; 1.03532E-4
20197.265625; 1.05125E-4
20203.125000; 9.85700E-5
20208.984375; 9.56126E-5
20214.843750; 9.81994E-5
20220.703125; 1.00380E-4
20226.562500; 1.05381E-4
20232.421875; 1.01546E-4
20238.281250; 1.05294E-4
20244.140625; 1.12398E-4
20250.000000; 9.80116E-5
20255.859375; 9.59816E-5
20261.718750; 1.01705E-4
20267.578125; 9.81911E-5
20273.437500; 1.01161E-4
20279.296875; 1.07221E-4
20285.156250; 1.05796E-4
20291.015625; 1.03079E-4
20296.875000; 1.05058E-4
20302.734375; 9.86228E-5
20308.593750; 1.01163E-4
20314.453125; 1.04467E-4
20320.312500; 1.07418E-4
20326.171875; 9.74071E-5
20332.031250; 9.68827E-5
20337.890625; 9.17768E-5
20343.750000; 1.02843E-4
20349.609375; 1.13668E-4
20355.468750; 1.12702E-4
20361.328125; 1.05250E-4
20367.187500; 1.02400E-4
20373.046875; 1.03938E-4
20378.906250; 1.04979E-4
20384.765625; 1.15307E-4
20390.625000; 1.14531E-4
20396.484375; 1.01235E-4
20402.343750; 9.12831E-5
20408.203125; 8.88814E-5
20414.062500; 9.70995E-5
20419.921875; 1.16026E-4
20425.781250; 1.17019E-4
20431.640625; 1.09520E-4
20437.500000; 1.07553E-4
20443.359375; 1.12088E-4
20449.218750; 1.05953E-4
20455.078125; 1.00386E-4
20460.937500; 9.64160E-5
20466.796875; 9.51311E-5
20472.656250; 1.04361E-4
20478.515625; 1.06220E-4
20484.375000; 1.14254E-4
20490.234375; 1.14557E-4
20496.093750; 9.68530E-5
20501.953125; 1.02543E-4
20507.812500; 1.05249E-4
20513.671875; 9.80756E-5
20519.531250; 1.04401E-4
20525.390625; 1.06615E-4
20531.250000; 1.01563E-4
20537.109375; 9.87285E-5
20542.968750; 1.04593E-4
20548.828125; 1.08509E-4
20554.687500; 1.01961E-4
20560.546875; 1.04270E-4
20566.406250; 1.04777E-4
20572.265625; 1.03171E-4
20578.125000; 9.02383E-5
20583.984375; 1.03995E-4
20589.843750; 1.02622E-4
20595.703125; 9.30005E-5
20601.562500; 1.01768E-4
20607.421875; 9.71235E-5
20613.281250; 1.07670E-4
20619.140625; 1.01280E-4
20625.000000; 1.00847E-4
20630.859375; 1.06222E-4
20636.718750; 1.06519E-4
20642.578125; 1.17059E-4
20648.437500; 1.10737E-4
20654.296875; 9.89803E-5
20660.156250; 1.01699E-4
20666.015625; 1.00246E-4
20671.875000; 9.29957E-5
20677.734375; 9.99721E-5
20683.593750; 1.12508E-4
20689.453125; 1.16786E-4
20695.312500; 1.14768E-4
20701.171875; 1.01398E-4
20707.031250; 9.78830E-5
20712.890625; 1.06748E-4
20718.750000; 1.07958E-4
20724.609375; 1.03082E-4
20730.468750; 8.98371E-5
20736.328125; 9.03582E-5
20742.187500; 1.00057E-4
20748.046875; 1.00941E-4
20753.906250; 9.79111E-5
20759.765625; 9.40620E-5
20765.625000; 9.65309E-5
20771.484375; 9.65209E-5
20777.343750; 9.94248E-5
20783.203125; 1.02580E-4
20789.062500; 1.01719E-4
20794.921875; 1.02178E-4
20800.781250; 9.72920E-5
20806.640625; 1.06529E-4
20812.500000; 1.04450E-4
20818.359375; 9.85736E-5
20824.218750; 1.07985E-4
20830.078125; 1.11711E-4
20835.937500; 1.14336E-4
20841.796875; 1.17660E-4
20847.656250; 1.09907E-4
20853.515625; 1.08271E-4
20859.375000; 9.61173E-5
20865.234375; 9.81375E-5
20871.093750; 1.03162E-4
20876.953125; 1.01857E-4
20882.812500; 1.03753E-4
20888.671875; 1.05022E-4
20894.531250; 9.78199E-5
20900.390625; 8.99333E-5
20906.250000; 9.92092E-5
20912.109375; 1.06226E-4
20917.968750; 9.48163E-5
20923.828125; 9.72943E-5
20929.687500; 9.90919E-5
20935.546875; 1.03026E-4
20941.406250; 1.00117E-4
20947.265625; 9.66142E-5
20953.125000; 1.01147E-4
20958.984375; 1.12555E-4
20964.843750; 1.18089E-4
20970.703125; 1.18412E-4
20976.562500; 1.11785E-4
20982.421875; 9.53114E-5
20988.281250; 9.77742E-5
20994.140625; 1.09188E-4
21000.000000; 1.08894E-4
21005.859375; 9.91543E-5
21011.718750; 9.91218E-5
21017.578125; 9.98648E-5
21023.437500; 1.06936E-4
21029.296875; 1.10464E-4
21035.156250; 1.14968E-4
21041.015625; 1.00552E-4
21046.875000; 1.02558E-4
21052.734375; 1.10239E-4
21058.593750; 9.38432E-5
21064.453125; 8.76021E-5
21070.312500; 1.08037E-4
21076.171875; 1.06821E-4
21082.031250; 9.59348E-5
21087.890625; 1.04453E-4
21093.750000; 1.18179E-4
21099.609375; 1.07927E-4
21105.468750; 1.05179E-4
21111.328125; 1.08954E-4
21117.187500; 1.03695E-4
21123.046875; 1.05485E-4
21128.906250; 1.04194E-4
21134.765625; 1.03917E-4
21140.625000; 9.74017E-5
21146.484375; 9.92370E-5
21152.343750; 1.07042E-4
21158.203125; 9.90487E-5
21164.062500; 9.45419E-5
21169.921875; 9.58073E-5
21175.781250; 1.01937E-4
21181.640625; 9.21196E-5
21187.500000; 9.23178E-5
21193.359375; 9.54061E-5
21199.218750; 1.01142E-4
21205.078125; 1.03919E-4
21210.937500; 1.05247E-4
21216.796875; 1.04368E-4
21222.656250; 1.12345E-4
21228.515625; 1.09899E-4
21234.375000; 1.12763E-4
21240.234375; 1.10146E-4
21246.093750; 9.81523E-5
21251.953125; 9.74144E-5
21257.812500; 1.12653E-4
21263.671875; 1.08773E-4
21269.531250; 1.11043E-4
21275.390625; 1.07669E-4
21281.250000; 1.07512E-4
21287.109375; 1.10087E-4
21292.968750; 1.05664E-4
21298.828125; 9.89270E-5
21304.687500; 1.06179E-4
21310.546875; 1.01023E-4
21316.406250; 1.05308E-4
21322.265625; 1.18193E-4
21328.125000; 1.03349E-4
21333.984375; 9.48086E-5
21339.843750; 1.06398E-4
21345.703125; 1.08172E-4
21351.562500; 1.09156E-4
21357.421875; 1.04199E-4
21363.281250; 9.31607E-5
21369.140625; 9.95671E-5
21375.000000; 1.03806E-4
21380.859375; 1.06578E-4
21386.718750; 1.02109E-4
21392.578125; 1.08711E-4
21398.437500; 1.03325E-4
21404.296875; 1.05173E-4
21410.156250; 1.04899E-4
21416.015625; 1.04337E-4
21421.875000; 1.12271E-4
21427.734375; 1.04139E-4
21433.593750; 9.77590E-5
21439.453125; 1.07355E-4
21445.312500; 1.04491E-4
21451.171875; 9.72996E-5
21457.031250; 1.10516E-4
21462.890625; 1.17121E-4
21468.750000; 1.06895E-4
21474.609375; 1.02581E-4
21480.468750; 9.62699E-5
21486.328125; 9.65939E-5
21492.187500; 1.06709E-4
21498.046875; 9.79921E-5
21503.906250; 9.91570E-5
21509.765625; 1.06624E-4
21515.625000; 9.75222E-5
21521.484375; 1.02069E-4
21527.343750; 1.13688E-4
21533.203125; 1.10851E-4
21539.062500; 1.04820E-4
21544.921875; 9.77780E-5
21550.781250; 9.01928E-5
21556.640625; 1.00663E-4
21562.500000; 1.04870E-4
21568.359375; 9.68313E-5
21574.218750; 1.03170E-4
21580.078125; 9.95043E-5
21585.937500; 9.97334E-5
21591.796875; 1.09079E-4
21597.656250; 1.06745E-4
21603.515625; 1.06832E-4
21609.375000; 9.43439E-5
21615.234375; 8.38034E-5
21621.093750; 9.21589E-5
21626.953125; 1.05580E-4
21632.812500; 1.00283E-4
21638.671875; 8.41417E-5
21644.531250; 1.10354E-4
21650.390625; 1.10109E-4
21656.250000; 1.08209E-4
21662.109375; 1.07178E-4
21667.968750; 9.84986E-5
21673.828125; 1.01535E-4
21679.687500; 9.37808E-5
21685.546875; 1.00810E-4
21691.406250; 1.04899E-4
21697.265625; 9.66084E-5
21703.125000; 9.51736E-5
21708.984375; 9.56274E-5
21714.843750; 1.04082E-4
21720.703125; 9.33941E-5
21726.562500; 1.10753E-4
21732.421875; 1.15781E-4
21738.281250; 1.04198E-4
21744.140625; 1.04202E-4
21750.000000; 1.11437E-4
21755.859375; 1.08251E-4
21761.718750; 1.07386E-4
21767.578125; 9.90838E-5
21773.437500; 9.97054E-5
21779.296875; 9.84069E-5
21785.156250; 9.64265E-5
21791.015625; 9.73153E-5
21796.875000; 9.85526E-5
21802.734375; 1.02922E-4
21808.593750; 1.18886E-4
21814.453125; 1.05905E-4
21820.312500; 1.02014E-4
21826.171875; 1.07926E-4
21832.031250; 9.68023E-5
21837.890625; 9.81808E-5
21843.750000; 1.10149E-4
21849.609375; 1.02084E-4
21855.468750; 9.76744E-5
21861.328125; 9.40765E-5
21867.187500; 9.85284E-5
21873.046875; 1.00306E-4
21878.906250; 9.57628E-5
21884.765625; 9.37435E-5
21890.625000; 1.00171E-4
21896.484375; 1.05474E-4
21902.343750; 1.04396E-4
21908.203125; 1.01095E-4
21914.062500; 1.09627E-4
21919.921875; 1.07201E-4
21925.781250; 1.05355E-4
21931.640625; 1.12790E-4
21937.500000; 1.06096E-4
21943.359375; 1.08609E-4
21949.218750; 1.06462E-4
21955.078125; 1.17245E-4
21960.937500; 1.07595E-4
21966.796875; 1.02195E-4
21972.656250; 9.91603E-5
21978.515625; 9.58009E-5
21984.375000; 1.01424E-4
21990.234375; 9.96414E-5
21996.093750; 1.02603E-4
22001.953125; 1.03419E-4
22007.812500; 9.49510E-5
22013.671875; 9.21757E-5
22019.531250; 1.01697E-4
22025.390625; 1.03606E-4
22031.250000; 1.02481E-4
22037.109375; 9.84133E-5
22042.968750; 9.25291E-5
22048.828125; 1.01174E-4
22054.687500; 1.01761E-4
22060.546875; 9.29303E-5
22066.406250; 1.02076E-4
22072.265625; 9.71957E-5
22078.125000; 1.02572E-4
22083.984375; 1.05741E-4
22089.843750; 1.09442E-4
22095.703125; 1.07775E-4
22101.562500; 1.09676E-4
22107.421875; 1.05915E-4
22113.281250; 9.69175E-5
22119.140625; 9.69657E-5
22125.000000; 9.78763E-5
22130.859375; 9.99450E-5
22136.718750; 1.06658E-4
22142.578125; 9.48698E-5
22148.437500; 9.77875E-5
22154.296875; 9.80296E-5
22160.156250; 9.52909E-5
22166.015625; 9.67309E-5
22171.875000; 9.75283E-5
22177.734375; 9.60208E-5
22183.593750; 1.00562E-4
22189.453125; 1.07873E-4
22195.312500; 9.72996E-5
22201.171875; 9.27977E-5
22207.031250; 8.73663E-5
22212.890625; 9.65217E-5
22218.750000; 9.73486E-5
22224.609375; 9.74550E-5
22230.468750; 1.07532E-4
22236.328125; 9.61735E-5
22242.187500; 9.71627E-5
22248.046875; 9.55946E-5
22253.906250; 9.09160E-5
22259.765625; 9.97246E-5
22265.625000; 9.55071E-5
22271.484375; 1.01484E-4
22277.343750; 1.07967E-4
22283.203125; 1.09664E-4
22289.062500; 9.49485E-5
22294.921875; 1.00371E-4
22300.781250; 9.45145E-5
22306.640625; 8.87369E-5
22312.500000; 9.97212E-5
22318.359375; 1.01335E-4
22324.218750; 9.28885E-5
22330.078125; 1.00104E-4
22335.937500; 1.13239E-4
22341.796875; 1.05981E-4
22347.656250; 9.39674E-5
22353.515625; 9.20099E-5
22359.375000; 9.72794E-5
22365.234375; 8.74698E-5
22371.093750; 8.72742E-5
22376.953125; 9.71716E-5
22382.812500; 9.83716E-5
22388.671875; 1.03391E-4
22394.531250; 1.08010E-4
22400.390625; 1.04536E-4
22406.250000; 1.01791E-4
22412.109375; 1.06245E-4
22417.968750; 1.06168E-4
22423.828125; 1.02638E-4
22429.687500; 9.28429E-5
22435.546875; 1.10611E-4
22441.406250; 1.06714E-4
22447.265625; 1.03187E-4
22453.125000; 1.06242E-4
22458.984375; 1.06679E-4
22464.843750; 1.10170E-4
22470.703125; 9.78184E-5
22476.562500; 8.13968E-5
22482.421875; 8.81682E-5
22488.281250; 9.14269E-5
22494.140625; 8.83725E-5
22500.000000; 8.26938E-5
22505.859375; 9.63314E-5
22511.718750; 9.37910E-5
22517.578125; 1.00098E-4
22523.437500; 9.95246E-5
22529.296875; 8.74321E-5
22535.156250; 8.57193E-5
22541.015625; 9.11368E-5
22546.875000; 9.37151E-5
22552.734375; 1.03437E-4
22558.593750; 9.94395E-5
22564.453125; 9.14684E-5
22570.312500; 8.87446E-5
22576.171875; 1.00974E-4
22582.031250; 1.00839E-4
22587.890625; 9.64566E-5
22593.750000; 9.98703E-5
22599.609375; 9.84367E-5
22605.468750; 8.68983E-5
22611.328125; 9.00018E-5
22617.187500; 8.70710E-5
22623.046875; 9.04602E-5
22628.906250; 9.63541E-5
22634.765625; 1.05881E-4
22640.625000; 9.78978E-5
22646.484375; 8.92892E-5
22652.343750; 9.97615E-5
22658.203125; 9.82842E-5
22664.062500; 9.08035E-5
22669.921875; 8.96701E-5
22675.781250; 8.76818E-5
22681.640625; 8.43603E-5
22687.500000; 8.45904E-5
22693.359375; 9.21932E-5
22699.218750; 9.65216E-5
22705.078125; 9.05271E-5
22710.937500; 8.11173E-5
22716.796875; 8.56476E-5
22722.656250; 8.64608E-5
22728.515625; 8.93822E-5
22734.375000; 9.80541E-5
22740.234375; 8.63583E-5
22746.093750; 8.66181E-5
22751.953125; 9.34111E-5
22757.812500; 9.27754E-5
22763.671875; 9.08102E-5
22769.531250; 9.04786E-5
22775.390625; 8.75044E-5
22781.250000; 8.31868E-5
22787.109375; 8.08012E-5
22792.968750; 8.26012E-5
22798.828125; 8.66098E-5
22804.687500; 8.93176E-5
22810.546875; 8.60290E-5
22816.406250; 9.19045E-5
22822.265625; 9.68242E-5
22828.125000; 8.45997E-5
22833.984375; 8.24011E-5
22839.843750; 8.99041E-5
22845.703125; 9.29854E-5
22851.562500; 8.98607E-5
22857.421875; 8.87010E-5
22863.281250; 8.05719E-5
22869.140625; 7.25606E-5
22875.000000; 8.22294E-5
22880.859375; 8.47918E-5
22886.718750; 7.77345E-5
22892.578125; 7.82986E-5
22898.437500; 7.92995E-5
22904.296875; 8.58000E-5
22910.156250; 8.98751E-5
22916.015625; 9.13392E-5
22921.875000; 8.14513E-5
22927.734375; 7.25437E-5
22933.593750; 7.72326E-5
22939.453125; 8.19291E-5
22945.312500; 7.85019E-5
22951.171875; 7.43301E-5
22957.031250; 8.32159E-5
22962.890625; 8.79658E-5
22968.750000; 8.91484E-5
22974.609375; 8.70491E-5
22980.468750; 8.56966E-5
22986.328125; 7.68708E-5
22992.187500; 8.56125E-5
22998.046875; 8.78504E-5
23003.906250; 8.19178E-5
23009.765625; 7.73637E-5
23015.625000; 7.54557E-5
23021.484375; 7.10195E-5
23027.343750; 6.94068E-5
23033.203125; 8.23844E-5
23039.062500; 8.17581E-5
23044.921875; 7.50659E-5
23050.781250; 7.56274E-5
23056.640625; 7.96962E-5
23062.500000; 7.40851E-5
23068.359375; 7.15435E-5
23074.218750; 8.30990E-5
23080.078125; 8.48104E-5
23085.937500; 7.78424E-5
23091.796875; 7.88866E-5
23097.656250; 7.79916E-5
23103.515625; 7.43247E-5
23109.375000; 8.01076E-5
23115.234375; 7.99677E-5
23121.093750; 6.96696E-5
23126.953125; 7.39463E-5
23132.812500; 7.77437E-5
23138.671875; 7.17649E-5
23144.531250; 7.42798E-5
23150.390625; 7.13990E-5
23156.250000; 7.32092E-5
23162.109375; 6.85425E-5
23167.968750; 6.75700E-5
23173.828125; 6.66666E-5
23179.687500; 6.72529E-5
23185.546875; 6.67849E-5
23191.406250; 7.04275E-5
23197.265625; 6.34876E-5
23203.125000; 6.46114E-5
23208.984375; 6.25521E-5
23214.843750; 6.04648E-5
23220.703125; 6.20791E-5
23226.562500; 6.09174E-5
23232.421875; 5.62255E-5
23238.281250; 6.15549E-5
23244.140625; 6.53665E-5
23250.000000; 6.31645E-5
23255.859375; 6.08141E-5
23261.718750; 6.49091E-5
23267.578125; 6.49924E-5
23273.437500; 6.96817E-5
23279.296875; 6.92958E-5
23285.156250; 6.72228E-5
23291.015625; 6.15329E-5
23296.875000; 5.54639E-5
23302.734375; 6.03051E-5
23308.593750; 6.46250E-5
23314.453125; 6.83989E-5
23320.312500; 6.80607E-5
23326.171875; 6.42556E-5
23332.031250; 5.50622E-5
23337.890625; 5.38867E-5
23343.750000; 6.26069E-5
23349.609375; 6.03536E-5
23355.468750; 6.15549E-5
23361.328125; 6.45765E-5
23367.187500; 6.52452E-5
23373.046875; 5.54680E-5
23378.906250; 5.77583E-5
23384.765625; 6.11400E-5
23390.625000; 6.17646E-5
23396.484375; 5.60278E-5
23402.343750; 5.77708E-5
23408.203125; 6.74455E-5
23414.062500; 6.31075E-5
23419.921875; 5.89422E-5
23425.781250; 5.77904E-5
23431.640625; 5.30553E-5
23437.500000; 5.57855E-5
23443.359375; 5.38439E-5
23449.218750; 5.25230E-5
23455.078125; 5.16122E-5
23460.937500; 5.28888E-5
23466.796875; 4.98600E-5
23472.656250; 5.42867E-5
23478.515625; 5.01888E-5
23484.375000; 4.79097E-5
23490.234375; 5.04396E-5
23496.093750; 5.50413E-5
23501.953125; 5.00456E-5
23507.812500; 4.58355E-5
23513.671875; 4.50334E-5
23519.531250; 4.52785E-5
23525.390625; 4.65347E-5
23531.250000; 5.13251E-5
23537.109375; 5.14727E-5
23542.968750; 5.30340E-5
23548.828125; 5.37591E-5
23554.687500; 5.02323E-5
23560.546875; 5.10528E-5
23566.406250; 4.49380E-5
23572.265625; 4.45800E-5
23578.125000; 4.50668E-5
23583.984375; 4.56203E-5
23589.843750; 5.15745E-5
23595.703125; 4.96586E-5
23601.562500; 5.09506E-5
23607.421875; 5.17951E-5
23613.281250; 4.50770E-5
23619.140625; 4.20911E-5
23625.000000; 4.58735E-5
23630.859375; 4.45784E-5
23636.718750; 4.52709E-5
23642.578125; 4.60783E-5
23648.437500; 5.22934E-5
23654.296875; 4.67706E-5
23660.156250; 4.53336E-5
23666.015625; 4.69659E-5
23671.875000; 4.49006E-5
23677.734375; 4.29121E-5
23683.593750; 4.44313E-5
23689.453125; 4.28584E-5
23695.312500; 4.04191E-5
23701.171875; 3.99127E-5
23707.031250; 3.93896E-5
23712.890625; 3.99793E-5
23718.750000; 4.33013E-5
23724.609375; 4.23586E-5
23730.468750; 3.69422E-5
23736.328125; 4.05775E-5
23742.187500; 4.33124E-5
23748.046875; 4.46414E-5
23753.906250; 4.45245E-5
23759.765625; 4.06614E-5
23765.625000; 3.60638E-5
23771.484375; 3.32841E-5
23777.343750; 3.37469E-5
23783.203125; 3.82838E-5
23789.062500; 3.86832E-5
23794.921875; 3.81868E-5
23800.781250; 4.21149E-5
23806.640625; 4.36728E-5
23812.500000; 4.38034E-5
23818.359375; 4.37699E-5
23824.218750; 3.95666E-5
23830.078125; 3.56708E-5
23835.937500; 3.53867E-5
23841.796875; 3.73992E-5
23847.656250; 3.83097E-5
23853.515625; 3.52722E-5
23859.375000; 3.27431E-5
23865.234375; 3.90517E-5
23871.093750; 3.91146E-5
23876.953125; 3.54181E-5
23882.812500; 3.80257E-5
23888.671875; 4.37191E-5
23894.531250; 4.36675E-5
23900.390625; 4.02323E-5
23906.250000; 3.61979E-5
23912.109375; 3.84278E-5
23917.968750; 3.63031E-5
23923.828125; 3.55537E-5
23929.687500; 3.31854E-5
23935.546875; 3.57536E-5
23941.406250; 3.59643E-5
23947.265625; 3.76590E-5
23953.125000; 4.01956E-5
23958.984375; 3.96716E-5
23964.843750; 4.25406E-5
23970.703125; 4.31957E-5
23976.562500; 3.83190E-5
23982.421875; 4.09497E-5
23988.281250; 3.69443E-5
23994.140625; 3.44981E-5
