* Measurement data measured by REW V5.31.3
* Source: PCM: default, no input selected, 2, volume: no control
* Format: 8192-point spectrum using Hann window and exponential averaging 0.97 
* Dated: Mar 9, 2025 1:04:47 PM
* REW Settings:
*  C-weighting compensation: Off
*  Target level: 75.0 dB
* Note: OSDEHA ANODE-OUTPUT; 8192-point spectrum using Hann window and exponential averaging 0.97  Input RMS 1.001 V 1.001 VC, 1.001 VA 1.001 V 22 - 22k UNW 870.7 uV >22k Distortion at 1,000.0 Hz, -40.00 dBFS: Gain: 29.34 dB THD: 0.047 % based on 21 harmonics  [0..22800 Hz] HHD: 0.036 %  [10 .. 22] N: 1.30 %  [0..22800 Hz] N+D: 4.181 mV A THD+N: 1.30 %  [0..22800 Hz] SNR: 37.7 dB ENOB: 13.1 bits 2nd harmonic 0.011 % -81 deg 3rd harmonic 0.010 % -98 deg 4th harmonic 0.011 % 108 deg 5th harmonic 0.0095 % 4 deg 6th harmonic 0.011 % -79 deg 7th harmonic 0.011 % -89 deg 8th harmonic 0.010 % 77 deg 9th harmonic 0.011 % -44 deg 
* Measurement: OSDEHA A-OUT 1.0V
* Smoothing: None
* Frequency Step: 5.859375 Hz
* Start Frequency: 5.859375 Hz
*
* Freq(Hz); V(V)
5.859375; 2.52457E-3
11.718750; 2.32845E-3
17.578125; 4.07313E-4
23.437500; 1.59500E-4
29.296875; 1.72144E-4
35.156250; 1.62022E-4
41.015625; 1.74281E-4
46.875000; 4.08627E-4
52.734375; 4.10541E-4
58.593750; 1.50429E-4
64.453125; 1.57712E-4
70.312500; 1.40580E-4
76.171875; 1.16507E-4
82.031250; 1.26502E-4
87.890625; 1.80834E-4
93.750000; 5.14796E-3
99.609375; 1.14670E-2
105.468750; 6.36666E-3
111.328125; 2.16794E-4
117.187500; 1.19573E-4
123.046875; 1.17079E-4
128.906250; 1.16979E-4
134.765625; 1.18174E-4
140.625000; 1.25637E-4
146.484375; 1.52946E-4
152.343750; 1.56954E-4
158.203125; 1.29152E-4
164.062500; 1.25903E-4
169.921875; 1.13987E-4
175.781250; 1.09141E-4
181.640625; 1.27580E-4
187.500000; 1.08432E-4
193.359375; 6.47913E-4
199.218750; 1.55278E-3
205.078125; 9.47972E-4
210.937500; 1.32821E-4
216.796875; 1.17368E-4
222.656250; 1.03864E-4
228.515625; 1.04830E-4
234.375000; 1.14507E-4
240.234375; 1.09861E-4
246.093750; 1.21953E-4
251.953125; 1.39449E-4
257.812500; 1.12457E-4
263.671875; 1.20031E-4
269.531250; 1.19592E-4
275.390625; 1.18977E-4
281.250000; 1.30916E-4
287.109375; 1.19341E-4
292.968750; 1.28824E-4
298.828125; 2.17009E-4
304.687500; 1.73448E-4
310.546875; 1.22513E-4
316.406250; 1.20223E-4
322.265625; 1.09883E-4
328.125000; 1.05656E-4
333.984375; 1.12086E-4
339.843750; 1.02379E-4
345.703125; 1.43748E-4
351.562500; 1.64271E-4
357.421875; 1.20793E-4
363.281250; 1.16904E-4
369.140625; 1.17821E-4
375.000000; 9.66251E-5
380.859375; 1.02942E-4
386.718750; 1.22585E-4
392.578125; 1.96223E-4
398.437500; 4.49166E-4
404.296875; 3.31158E-4
410.156250; 1.13222E-4
416.015625; 1.12833E-4
421.875000; 1.22049E-4
427.734375; 1.15189E-4
433.593750; 1.13064E-4
439.453125; 1.10408E-4
445.312500; 1.18575E-4
451.171875; 1.42117E-4
457.031250; 1.29392E-4
462.890625; 1.38574E-4
468.750000; 1.26480E-4
474.609375; 1.13928E-4
480.468750; 1.07548E-4
486.328125; 1.21457E-4
492.187500; 1.49047E-4
498.046875; 2.87638E-4
503.906250; 2.38639E-4
509.765625; 1.13471E-4
515.625000; 1.18623E-4
521.484375; 1.18053E-4
527.343750; 1.03507E-4
533.203125; 1.07744E-4
539.062500; 1.00948E-4
544.921875; 1.04910E-4
550.781250; 1.21753E-4
556.640625; 1.29964E-4
562.500000; 1.16369E-4
568.359375; 1.05309E-4
574.218750; 9.77075E-5
580.078125; 1.02330E-4
585.937500; 9.38859E-5
591.796875; 1.09148E-4
597.656250; 1.29575E-4
603.515625; 1.20487E-4
609.375000; 1.06286E-4
615.234375; 9.69732E-5
621.093750; 1.02493E-4
626.953125; 9.57078E-5
632.812500; 1.04119E-4
638.671875; 1.04413E-4
644.531250; 1.01413E-4
650.390625; 1.13416E-4
656.250000; 9.80631E-5
662.109375; 9.90111E-5
667.968750; 9.73212E-5
673.828125; 1.03090E-4
679.687500; 1.05126E-4
685.546875; 1.14874E-4
691.406250; 1.16869E-4
697.265625; 1.96091E-4
703.125000; 2.04353E-4
708.984375; 1.16380E-4
714.843750; 1.09763E-4
720.703125; 1.13622E-4
726.562500; 1.16550E-4
732.421875; 9.76071E-5
738.281250; 1.04887E-4
744.140625; 9.77929E-5
750.000000; 1.17565E-4
755.859375; 1.04253E-4
761.718750; 1.00243E-4
767.578125; 1.04084E-4
773.437500; 9.48861E-5
779.296875; 1.09268E-4
785.156250; 1.04276E-4
791.015625; 9.74924E-5
796.875000; 1.45624E-4
802.734375; 1.53916E-4
808.593750; 1.02993E-4
814.453125; 1.11554E-4
820.312500; 1.09780E-4
826.171875; 1.14467E-4
832.031250; 1.22108E-4
837.890625; 1.23364E-4
843.750000; 1.28999E-4
849.609375; 1.47614E-4
855.468750; 1.22813E-4
861.328125; 1.14476E-4
867.187500; 1.09981E-4
873.046875; 1.11536E-4
878.906250; 1.23407E-4
884.765625; 1.17886E-4
890.625000; 1.16009E-4
896.484375; 1.35490E-4
902.343750; 1.57096E-4
908.203125; 1.32647E-4
914.062500; 1.48305E-4
919.921875; 1.40706E-4
925.781250; 1.75249E-4
931.640625; 2.01380E-4
937.500000; 2.55463E-4
943.359375; 3.12080E-4
949.218750; 4.67036E-4
955.078125; 6.24461E-4
960.937500; 9.64208E-4
966.796875; 1.55837E-3
972.656250; 2.85403E-3
978.515625; 6.03981E-3
984.375000; 1.69300E-2
990.234375; 9.30839E-2
996.093750; 7.44675E-1
1001.953125; 9.30844E-1
1007.812500; 2.65953E-1
1013.671875; 2.65975E-2
1019.531250; 8.19116E-3
1025.390625; 3.57864E-3
1031.250000; 1.88741E-3
1037.109375; 1.12231E-3
1042.968750; 6.97424E-4
1048.828125; 5.26477E-4
1054.687500; 3.31887E-4
1060.546875; 2.97738E-4
1066.406250; 2.20378E-4
1072.265625; 1.73843E-4
1078.125000; 1.49603E-4
1083.984375; 1.54585E-4
1089.843750; 1.28641E-4
1095.703125; 1.32330E-4
1101.562500; 1.29701E-4
1107.421875; 1.09602E-4
1113.281250; 1.09567E-4
1119.140625; 1.22076E-4
1125.000000; 1.22350E-4
1130.859375; 1.17564E-4
1136.718750; 1.06724E-4
1142.578125; 1.09192E-4
1148.437500; 1.28086E-4
1154.296875; 1.25525E-4
1160.156250; 1.13231E-4
1166.015625; 1.01611E-4
1171.875000; 8.79544E-5
1177.734375; 9.59230E-5
1183.593750; 1.13957E-4
1189.453125; 1.13663E-4
1195.312500; 1.25368E-4
1201.171875; 1.17688E-4
1207.031250; 1.04658E-4
1212.890625; 1.07740E-4
1218.750000; 1.11305E-4
1224.609375; 1.04115E-4
1230.468750; 1.08072E-4
1236.328125; 1.20395E-4
1242.187500; 1.16981E-4
1248.046875; 1.13460E-4
1253.906250; 1.11208E-4
1259.765625; 1.03003E-4
1265.625000; 1.02431E-4
1271.484375; 1.12549E-4
1277.343750; 1.16189E-4
1283.203125; 1.09657E-4
1289.062500; 1.11719E-4
1294.921875; 1.08422E-4
1300.781250; 1.18249E-4
1306.640625; 1.08295E-4
1312.500000; 1.14332E-4
1318.359375; 1.05068E-4
1324.218750; 1.01556E-4
1330.078125; 1.13611E-4
1335.937500; 1.03239E-4
1341.796875; 9.25608E-5
1347.656250; 1.01234E-4
1353.515625; 1.05178E-4
1359.375000; 1.20857E-4
1365.234375; 1.12546E-4
1371.093750; 1.16443E-4
1376.953125; 1.13497E-4
1382.812500; 1.09960E-4
1388.671875; 1.08765E-4
1394.531250; 9.57088E-5
1400.390625; 1.14157E-4
1406.250000; 1.11642E-4
1412.109375; 1.00350E-4
1417.968750; 1.05011E-4
1423.828125; 1.15771E-4
1429.687500; 1.01190E-4
1435.546875; 1.01767E-4
1441.406250; 1.09593E-4
1447.265625; 1.09446E-4
1453.125000; 1.16375E-4
1458.984375; 1.00754E-4
1464.843750; 9.87201E-5
1470.703125; 1.13020E-4
1476.562500; 1.14184E-4
1482.421875; 1.15684E-4
1488.281250; 1.13990E-4
1494.140625; 1.14397E-4
1500.000000; 1.13419E-4
1505.859375; 1.06530E-4
1511.718750; 1.11323E-4
1517.578125; 1.15698E-4
1523.437500; 1.05978E-4
1529.296875; 1.20679E-4
1535.156250; 1.04621E-4
1541.015625; 1.03177E-4
1546.875000; 1.02330E-4
1552.734375; 9.76745E-5
1558.593750; 9.19964E-5
1564.453125; 1.00111E-4
1570.312500; 1.06344E-4
1576.171875; 1.20294E-4
1582.031250; 1.07964E-4
1587.890625; 1.00750E-4
1593.750000; 9.45411E-5
1599.609375; 1.07076E-4
1605.468750; 1.14537E-4
1611.328125; 1.03213E-4
1617.187500; 9.89209E-5
1623.046875; 1.06462E-4
1628.906250; 1.06361E-4
1634.765625; 1.09697E-4
1640.625000; 1.09463E-4
1646.484375; 9.60028E-5
1652.343750; 1.09305E-4
1658.203125; 1.02187E-4
1664.062500; 1.04333E-4
1669.921875; 1.14793E-4
1675.781250; 1.11546E-4
1681.640625; 1.12579E-4
1687.500000; 1.09873E-4
1693.359375; 9.90494E-5
1699.218750; 1.01119E-4
1705.078125; 9.02619E-5
1710.937500; 1.05978E-4
1716.796875; 1.10448E-4
1722.656250; 9.93028E-5
1728.515625; 9.93849E-5
1734.375000; 9.99105E-5
1740.234375; 1.03272E-4
1746.093750; 1.03754E-4
1751.953125; 1.06043E-4
1757.812500; 1.11492E-4
1763.671875; 1.04015E-4
1769.531250; 1.25049E-4
1775.390625; 1.14188E-4
1781.250000; 1.02622E-4
1787.109375; 1.09807E-4
1792.968750; 1.11453E-4
1798.828125; 1.05537E-4
1804.687500; 1.03466E-4
1810.546875; 1.05914E-4
1816.406250; 1.08838E-4
1822.265625; 1.11308E-4
1828.125000; 1.10062E-4
1833.984375; 1.04693E-4
1839.843750; 1.06531E-4
1845.703125; 1.09643E-4
1851.562500; 1.16594E-4
1857.421875; 1.16307E-4
1863.281250; 1.18356E-4
1869.140625; 1.14791E-4
1875.000000; 1.00221E-4
1880.859375; 9.73909E-5
1886.718750; 1.05962E-4
1892.578125; 1.06188E-4
1898.437500; 1.17834E-4
1904.296875; 1.09812E-4
1910.156250; 1.09570E-4
1916.015625; 1.07411E-4
1921.875000; 1.00531E-4
1927.734375; 1.08929E-4
1933.593750; 1.00593E-4
1939.453125; 9.93399E-5
1945.312500; 1.00868E-4
1951.171875; 1.05675E-4
1957.031250; 1.00245E-4
1962.890625; 9.77926E-5
1968.750000; 9.40169E-5
1974.609375; 9.55819E-5
1980.468750; 9.39425E-5
1986.328125; 1.05479E-4
1992.187500; 1.13568E-4
1998.046875; 1.13991E-4
2003.906250; 1.12988E-4
2009.765625; 1.08547E-4
2015.625000; 1.13911E-4
2021.484375; 1.03298E-4
2027.343750; 1.00917E-4
2033.203125; 1.01998E-4
2039.062500; 1.06852E-4
2044.921875; 1.05765E-4
2050.781250; 9.84825E-5
2056.640625; 9.35578E-5
2062.500000; 9.59460E-5
2068.359375; 9.36301E-5
2074.218750; 9.14686E-5
2080.078125; 1.10850E-4
2085.937500; 1.08410E-4
2091.796875; 1.00952E-4
2097.656250; 1.16273E-4
2103.515625; 1.00214E-4
2109.375000; 9.68888E-5
2115.234375; 9.74279E-5
2121.093750; 1.08046E-4
2126.953125; 1.05205E-4
2132.812500; 1.02363E-4
2138.671875; 1.03011E-4
2144.531250; 1.02148E-4
2150.390625; 1.09428E-4
2156.250000; 1.08608E-4
2162.109375; 1.07307E-4
2167.968750; 1.05954E-4
2173.828125; 1.06972E-4
2179.687500; 1.10702E-4
2185.546875; 9.75883E-5
2191.406250; 1.04207E-4
2197.265625; 1.14806E-4
2203.125000; 1.18523E-4
2208.984375; 1.10822E-4
2214.843750; 1.12634E-4
2220.703125; 1.02137E-4
2226.562500; 9.69641E-5
2232.421875; 1.00357E-4
2238.281250; 1.10317E-4
2244.140625; 1.22162E-4
2250.000000; 1.14000E-4
2255.859375; 1.02145E-4
2261.718750; 1.00130E-4
2267.578125; 1.04037E-4
2273.437500; 1.05951E-4
2279.296875; 1.09455E-4
2285.156250; 1.13156E-4
2291.015625; 1.19679E-4
2296.875000; 1.13993E-4
2302.734375; 1.05788E-4
2308.593750; 1.09696E-4
2314.453125; 1.08247E-4
2320.312500; 1.01853E-4
2326.171875; 9.98689E-5
2332.031250; 9.66200E-5
2337.890625; 9.96453E-5
2343.750000; 1.02110E-4
2349.609375; 9.89567E-5
2355.468750; 9.92332E-5
2361.328125; 1.09277E-4
2367.187500; 9.37160E-5
2373.046875; 8.98458E-5
2378.906250; 9.79941E-5
2384.765625; 9.75841E-5
2390.625000; 1.01327E-4
2396.484375; 1.17254E-4
2402.343750; 1.11970E-4
2408.203125; 1.08006E-4
2414.062500; 1.06264E-4
2419.921875; 1.06793E-4
2425.781250; 1.02528E-4
2431.640625; 9.82596E-5
2437.500000; 1.02514E-4
2443.359375; 1.02414E-4
2449.218750; 1.03278E-4
2455.078125; 1.04618E-4
2460.937500; 9.90705E-5
2466.796875; 1.09972E-4
2472.656250; 1.06980E-4
2478.515625; 9.98538E-5
2484.375000; 9.70526E-5
2490.234375; 1.12006E-4
2496.093750; 1.09375E-4
2501.953125; 1.08606E-4
2507.812500; 9.99548E-5
2513.671875; 9.28853E-5
2519.531250; 1.02626E-4
2525.390625; 9.42992E-5
2531.250000; 9.18331E-5
2537.109375; 8.85109E-5
2542.968750; 8.87176E-5
2548.828125; 9.76984E-5
2554.687500; 1.07104E-4
2560.546875; 1.05617E-4
2566.406250; 9.43554E-5
2572.265625; 9.16061E-5
2578.125000; 1.10185E-4
2583.984375; 1.20219E-4
2589.843750; 1.18717E-4
2595.703125; 1.08393E-4
2601.562500; 1.14572E-4
2607.421875; 1.14478E-4
2613.281250; 1.04567E-4
2619.140625; 1.02930E-4
2625.000000; 1.01269E-4
2630.859375; 9.34102E-5
2636.718750; 9.90337E-5
2642.578125; 1.10052E-4
2648.437500; 1.11729E-4
2654.296875; 1.14319E-4
2660.156250; 1.15948E-4
2666.015625; 1.13323E-4
2671.875000; 1.07922E-4
2677.734375; 1.11774E-4
2683.593750; 1.15702E-4
2689.453125; 1.11472E-4
2695.312500; 1.19837E-4
2701.171875; 1.13646E-4
2707.031250; 1.11727E-4
2712.890625; 1.05549E-4
2718.750000; 1.11765E-4
2724.609375; 1.04174E-4
2730.468750; 1.11991E-4
2736.328125; 1.10372E-4
2742.187500; 1.06327E-4
2748.046875; 1.05866E-4
2753.906250; 1.03241E-4
2759.765625; 1.05795E-4
2765.625000; 9.81124E-5
2771.484375; 1.01937E-4
2777.343750; 1.02314E-4
2783.203125; 8.81889E-5
2789.062500; 9.14460E-5
2794.921875; 9.16029E-5
2800.781250; 1.15831E-4
2806.640625; 1.15768E-4
2812.500000; 1.03492E-4
2818.359375; 1.08063E-4
2824.218750; 1.03807E-4
2830.078125; 1.09504E-4
2835.937500; 1.08883E-4
2841.796875; 1.01133E-4
2847.656250; 1.06888E-4
2853.515625; 1.07235E-4
2859.375000; 1.11933E-4
2865.234375; 1.05414E-4
2871.093750; 1.12897E-4
2876.953125; 1.06811E-4
2882.812500; 1.11020E-4
2888.671875; 9.77998E-5
2894.531250; 1.03216E-4
2900.390625; 1.20676E-4
2906.250000; 1.08866E-4
2912.109375; 1.01070E-4
2917.968750; 1.04311E-4
2923.828125; 9.92516E-5
2929.687500; 1.06913E-4
2935.546875; 1.08138E-4
2941.406250; 9.96759E-5
2947.265625; 9.78368E-5
2953.125000; 1.04220E-4
2958.984375; 1.07680E-4
2964.843750; 1.21238E-4
2970.703125; 1.08880E-4
2976.562500; 1.15951E-4
2982.421875; 1.05190E-4
2988.281250; 1.00561E-4
2994.140625; 9.77314E-5
3000.000000; 1.03607E-4
3005.859375; 1.01771E-4
3011.718750; 1.08360E-4
3017.578125; 1.07839E-4
3023.437500; 1.04715E-4
3029.296875; 1.19789E-4
3035.156250; 1.05996E-4
3041.015625; 1.17976E-4
3046.875000; 1.13424E-4
3052.734375; 8.78109E-5
3058.593750; 9.35622E-5
3064.453125; 1.06336E-4
3070.312500; 1.03688E-4
3076.171875; 1.10489E-4
3082.031250; 1.12419E-4
3087.890625; 9.88032E-5
3093.750000; 1.08737E-4
3099.609375; 1.22148E-4
3105.468750; 1.17091E-4
3111.328125; 1.02146E-4
3117.187500; 1.08787E-4
3123.046875; 1.06891E-4
3128.906250; 1.07090E-4
3134.765625; 1.07536E-4
3140.625000; 1.02427E-4
3146.484375; 1.05618E-4
3152.343750; 1.09880E-4
3158.203125; 9.88703E-5
3164.062500; 9.54896E-5
3169.921875; 1.03849E-4
3175.781250; 1.10025E-4
3181.640625; 9.93368E-5
3187.500000; 1.02945E-4
3193.359375; 9.76182E-5
3199.218750; 1.13092E-4
3205.078125; 1.08792E-4
3210.937500; 1.00055E-4
3216.796875; 1.04800E-4
3222.656250; 1.00424E-4
3228.515625; 1.04409E-4
3234.375000; 1.07289E-4
3240.234375; 9.85583E-5
3246.093750; 9.96219E-5
3251.953125; 8.95575E-5
3257.812500; 9.25720E-5
3263.671875; 1.03680E-4
3269.531250; 1.10488E-4
3275.390625; 1.10563E-4
3281.250000; 1.04330E-4
3287.109375; 1.05842E-4
3292.968750; 1.04340E-4
3298.828125; 1.01594E-4
3304.687500; 9.95585E-5
3310.546875; 9.21908E-5
3316.406250; 9.80930E-5
3322.265625; 1.05895E-4
3328.125000; 1.16666E-4
3333.984375; 1.10838E-4
3339.843750; 9.60215E-5
3345.703125; 1.02340E-4
3351.562500; 1.09188E-4
3357.421875; 1.02631E-4
3363.281250; 1.04018E-4
3369.140625; 1.14734E-4
3375.000000; 1.07977E-4
3380.859375; 1.07693E-4
3386.718750; 1.11988E-4
3392.578125; 1.06531E-4
3398.437500; 1.05372E-4
3404.296875; 1.11770E-4
3410.156250; 1.02419E-4
3416.015625; 9.34423E-5
3421.875000; 9.46852E-5
3427.734375; 8.92744E-5
3433.593750; 1.00560E-4
3439.453125; 1.00921E-4
3445.312500; 9.75430E-5
3451.171875; 1.07587E-4
3457.031250; 1.24798E-4
3462.890625; 1.07496E-4
3468.750000; 9.27353E-5
3474.609375; 1.04169E-4
3480.468750; 1.15637E-4
3486.328125; 1.07576E-4
3492.187500; 9.52475E-5
3498.046875; 1.03251E-4
3503.906250; 1.06682E-4
3509.765625; 1.05181E-4
3515.625000; 1.09035E-4
3521.484375; 1.15411E-4
3527.343750; 1.24398E-4
3533.203125; 1.17554E-4
3539.062500; 1.14542E-4
3544.921875; 1.06117E-4
3550.781250; 1.05655E-4
3556.640625; 9.48131E-5
3562.500000; 1.05349E-4
3568.359375; 1.03566E-4
3574.218750; 9.97121E-5
3580.078125; 1.09487E-4
3585.937500; 1.07941E-4
3591.796875; 9.84889E-5
3597.656250; 9.95746E-5
3603.515625; 9.96146E-5
3609.375000; 1.07642E-4
3615.234375; 9.49197E-5
3621.093750; 9.70054E-5
3626.953125; 1.09204E-4
3632.812500; 1.15579E-4
3638.671875; 1.04456E-4
3644.531250; 1.06236E-4
3650.390625; 1.20522E-4
3656.250000; 1.18635E-4
3662.109375; 1.02157E-4
3667.968750; 1.01167E-4
3673.828125; 1.09216E-4
3679.687500; 1.10710E-4
3685.546875; 1.09309E-4
3691.406250; 9.41520E-5
3697.265625; 1.00621E-4
3703.125000; 1.08313E-4
3708.984375; 1.02134E-4
3714.843750; 1.04370E-4
3720.703125; 1.18583E-4
3726.562500; 1.15853E-4
3732.421875; 1.10271E-4
3738.281250; 9.95659E-5
3744.140625; 1.00459E-4
3750.000000; 1.06561E-4
3755.859375; 9.62997E-5
3761.718750; 1.00675E-4
3767.578125; 9.84163E-5
3773.437500; 9.48389E-5
3779.296875; 1.00921E-4
3785.156250; 9.39767E-5
3791.015625; 9.33903E-5
3796.875000; 1.04433E-4
3802.734375; 1.05425E-4
3808.593750; 1.02083E-4
3814.453125; 1.03818E-4
3820.312500; 9.97083E-5
3826.171875; 1.06600E-4
3832.031250; 1.14877E-4
3837.890625; 1.05691E-4
3843.750000; 1.01809E-4
3849.609375; 1.12218E-4
3855.468750; 1.07123E-4
3861.328125; 1.05239E-4
3867.187500; 1.04205E-4
3873.046875; 1.04191E-4
3878.906250; 1.07192E-4
3884.765625; 1.09432E-4
3890.625000; 9.62125E-5
3896.484375; 9.66302E-5
3902.343750; 1.05154E-4
3908.203125; 1.06071E-4
3914.062500; 1.08138E-4
3919.921875; 1.07799E-4
3925.781250; 1.00893E-4
3931.640625; 1.04681E-4
3937.500000; 1.17850E-4
3943.359375; 1.05470E-4
3949.218750; 1.04683E-4
3955.078125; 1.00251E-4
3960.937500; 1.19432E-4
3966.796875; 1.18621E-4
3972.656250; 1.11381E-4
3978.515625; 1.05167E-4
3984.375000; 1.13862E-4
3990.234375; 1.04161E-4
3996.093750; 1.07148E-4
4001.953125; 1.04668E-4
4007.812500; 9.92894E-5
4013.671875; 1.01683E-4
4019.531250; 1.10159E-4
4025.390625; 1.13823E-4
4031.250000; 1.11265E-4
4037.109375; 9.75223E-5
4042.968750; 1.02058E-4
4048.828125; 8.97805E-5
4054.687500; 9.80122E-5
4060.546875; 1.03038E-4
4066.406250; 1.04642E-4
4072.265625; 1.05043E-4
4078.125000; 1.06317E-4
4083.984375; 1.08196E-4
4089.843750; 1.05383E-4
4095.703125; 1.06735E-4
4101.562500; 1.01760E-4
4107.421875; 1.07854E-4
4113.281250; 9.43189E-5
4119.140625; 9.97856E-5
4125.000000; 9.69074E-5
4130.859375; 9.72284E-5
4136.718750; 1.17460E-4
4142.578125; 1.21689E-4
4148.437500; 1.14504E-4
4154.296875; 1.03619E-4
4160.156250; 1.00374E-4
4166.015625; 1.10261E-4
4171.875000; 1.09082E-4
4177.734375; 1.06174E-4
4183.593750; 1.20658E-4
4189.453125; 1.07278E-4
4195.312500; 1.06632E-4
4201.171875; 1.12126E-4
4207.031250; 1.01491E-4
4212.890625; 1.05845E-4
4218.750000; 9.59637E-5
4224.609375; 9.74136E-5
4230.468750; 1.04045E-4
4236.328125; 9.60436E-5
4242.187500; 1.05157E-4
4248.046875; 1.01491E-4
4253.906250; 1.00693E-4
4259.765625; 1.01560E-4
4265.625000; 1.02524E-4
4271.484375; 1.05019E-4
4277.343750; 1.13410E-4
4283.203125; 1.13849E-4
4289.062500; 1.01205E-4
4294.921875; 9.10783E-5
4300.781250; 1.01328E-4
4306.640625; 1.06177E-4
4312.500000; 1.22089E-4
4318.359375; 1.23185E-4
4324.218750; 1.16529E-4
4330.078125; 1.07161E-4
4335.937500; 1.00394E-4
4341.796875; 9.73247E-5
4347.656250; 1.19059E-4
4353.515625; 1.12767E-4
4359.375000; 9.56785E-5
4365.234375; 9.47658E-5
4371.093750; 1.01315E-4
4376.953125; 1.05765E-4
4382.812500; 1.16832E-4
4388.671875; 1.10188E-4
4394.531250; 9.75789E-5
4400.390625; 9.52585E-5
4406.250000; 9.72510E-5
4412.109375; 9.67701E-5
4417.968750; 9.51652E-5
4423.828125; 9.48000E-5
4429.687500; 1.05886E-4
4435.546875; 1.08629E-4
4441.406250; 1.00642E-4
4447.265625; 9.54502E-5
4453.125000; 9.98782E-5
4458.984375; 9.34020E-5
4464.843750; 1.02419E-4
4470.703125; 1.00884E-4
4476.562500; 9.33473E-5
4482.421875; 9.69667E-5
4488.281250; 1.02386E-4
4494.140625; 9.43939E-5
4500.000000; 1.09106E-4
4505.859375; 1.08026E-4
4511.718750; 1.01716E-4
4517.578125; 1.00523E-4
4523.437500; 1.00387E-4
4529.296875; 1.07503E-4
4535.156250; 1.13029E-4
4541.015625; 1.19919E-4
4546.875000; 1.28399E-4
4552.734375; 1.12688E-4
4558.593750; 1.08393E-4
4564.453125; 1.20534E-4
4570.312500; 1.16505E-4
4576.171875; 1.05373E-4
4582.031250; 1.06520E-4
4587.890625; 1.22619E-4
4593.750000; 1.03063E-4
4599.609375; 9.85015E-5
4605.468750; 1.02442E-4
4611.328125; 1.05553E-4
4617.187500; 9.90639E-5
4623.046875; 9.64095E-5
4628.906250; 1.02130E-4
4634.765625; 1.07643E-4
4640.625000; 1.12474E-4
4646.484375; 1.16244E-4
4652.343750; 1.03708E-4
4658.203125; 9.05117E-5
4664.062500; 1.06453E-4
4669.921875; 1.07454E-4
4675.781250; 1.21579E-4
4681.640625; 1.08711E-4
4687.500000; 1.06404E-4
4693.359375; 1.06443E-4
4699.218750; 1.13910E-4
4705.078125; 1.03485E-4
4710.937500; 1.00280E-4
4716.796875; 9.69330E-5
4722.656250; 9.54958E-5
4728.515625; 1.03157E-4
4734.375000; 1.01556E-4
4740.234375; 9.53377E-5
4746.093750; 1.02683E-4
4751.953125; 1.02034E-4
4757.812500; 1.06719E-4
4763.671875; 9.79777E-5
4769.531250; 1.00038E-4
4775.390625; 1.04493E-4
4781.250000; 1.08476E-4
4787.109375; 1.10434E-4
4792.968750; 1.04099E-4
4798.828125; 1.01950E-4
4804.687500; 1.01788E-4
4810.546875; 9.78105E-5
4816.406250; 1.04376E-4
4822.265625; 1.18055E-4
4828.125000; 1.09454E-4
4833.984375; 9.26554E-5
4839.843750; 1.07232E-4
4845.703125; 1.08139E-4
4851.562500; 1.11665E-4
4857.421875; 1.06841E-4
4863.281250; 1.07407E-4
4869.140625; 9.54854E-5
4875.000000; 1.02020E-4
4880.859375; 1.07151E-4
4886.718750; 9.74217E-5
4892.578125; 9.59614E-5
4898.437500; 1.02481E-4
4904.296875; 1.15594E-4
4910.156250; 1.02590E-4
4916.015625; 1.06391E-4
4921.875000; 1.04558E-4
4927.734375; 9.48974E-5
4933.593750; 1.05472E-4
4939.453125; 1.08470E-4
4945.312500; 1.00464E-4
4951.171875; 8.67320E-5
4957.031250; 9.67610E-5
4962.890625; 1.03994E-4
4968.750000; 9.55502E-5
4974.609375; 9.46143E-5
4980.468750; 1.00963E-4
4986.328125; 9.22738E-5
4992.187500; 8.98022E-5
4998.046875; 9.03733E-5
5003.906250; 9.64897E-5
5009.765625; 9.83605E-5
5015.625000; 9.32698E-5
5021.484375; 9.89270E-5
5027.343750; 1.10580E-4
5033.203125; 1.10547E-4
5039.062500; 1.08376E-4
5044.921875; 9.95913E-5
5050.781250; 1.02686E-4
5056.640625; 1.08979E-4
5062.500000; 1.09803E-4
5068.359375; 9.75441E-5
5074.218750; 1.01803E-4
5080.078125; 9.78192E-5
5085.937500; 1.03185E-4
5091.796875; 1.01537E-4
5097.656250; 9.80612E-5
5103.515625; 1.01222E-4
5109.375000; 1.09686E-4
5115.234375; 1.06823E-4
5121.093750; 9.76769E-5
5126.953125; 1.02450E-4
5132.812500; 1.00180E-4
5138.671875; 1.03374E-4
5144.531250; 1.06101E-4
5150.390625; 1.14354E-4
5156.250000; 1.15132E-4
5162.109375; 1.12870E-4
5167.968750; 1.08557E-4
5173.828125; 9.92944E-5
5179.687500; 1.11821E-4
5185.546875; 1.05248E-4
5191.406250; 1.12889E-4
5197.265625; 9.99615E-5
5203.125000; 9.60143E-5
5208.984375; 9.30763E-5
5214.843750; 9.40149E-5
5220.703125; 8.94561E-5
5226.562500; 9.80193E-5
5232.421875; 1.02456E-4
5238.281250; 9.46337E-5
5244.140625; 1.04142E-4
5250.000000; 1.16468E-4
5255.859375; 1.06880E-4
5261.718750; 1.10040E-4
5267.578125; 1.12019E-4
5273.437500; 9.95362E-5
5279.296875; 1.06504E-4
5285.156250; 1.06904E-4
5291.015625; 1.05728E-4
5296.875000; 1.02012E-4
5302.734375; 1.01774E-4
5308.593750; 9.20800E-5
5314.453125; 9.34698E-5
5320.312500; 9.99468E-5
5326.171875; 1.08097E-4
5332.031250; 1.06478E-4
5337.890625; 9.23170E-5
5343.750000; 9.90494E-5
5349.609375; 1.02557E-4
5355.468750; 1.01550E-4
5361.328125; 9.48484E-5
5367.187500; 9.22156E-5
5373.046875; 9.48140E-5
5378.906250; 9.75659E-5
5384.765625; 9.47276E-5
5390.625000; 1.01508E-4
5396.484375; 1.02078E-4
5402.343750; 1.01272E-4
5408.203125; 1.08617E-4
5414.062500; 1.10438E-4
5419.921875; 1.08083E-4
5425.781250; 1.16193E-4
5431.640625; 1.06580E-4
5437.500000; 1.02840E-4
5443.359375; 1.03681E-4
5449.218750; 1.13360E-4
5455.078125; 1.14839E-4
5460.937500; 1.04438E-4
5466.796875; 1.05567E-4
5472.656250; 1.03573E-4
5478.515625; 1.03331E-4
5484.375000; 1.04377E-4
5490.234375; 1.09503E-4
5496.093750; 1.09437E-4
5501.953125; 1.02248E-4
5507.812500; 9.79026E-5
5513.671875; 9.52780E-5
5519.531250; 1.04652E-4
5525.390625; 1.07035E-4
5531.250000; 1.07643E-4
5537.109375; 1.06092E-4
5542.968750; 9.55001E-5
5548.828125; 9.76608E-5
5554.687500; 9.54188E-5
5560.546875; 1.01776E-4
5566.406250; 1.03013E-4
5572.265625; 9.96629E-5
5578.125000; 9.61760E-5
5583.984375; 8.53573E-5
5589.843750; 1.02096E-4
5595.703125; 1.11715E-4
5601.562500; 1.10560E-4
5607.421875; 1.23531E-4
5613.281250; 1.12497E-4
5619.140625; 1.02468E-4
5625.000000; 1.08890E-4
5630.859375; 1.12176E-4
5636.718750; 1.09435E-4
5642.578125; 1.04497E-4
5648.437500; 9.62006E-5
5654.296875; 9.59411E-5
5660.156250; 1.04167E-4
5666.015625; 1.10795E-4
5671.875000; 1.07869E-4
5677.734375; 1.00044E-4
5683.593750; 9.93316E-5
5689.453125; 9.36523E-5
5695.312500; 1.06689E-4
5701.171875; 1.01314E-4
5707.031250; 1.06967E-4
5712.890625; 9.91697E-5
5718.750000; 1.01717E-4
5724.609375; 1.06731E-4
5730.468750; 1.07043E-4
5736.328125; 9.90620E-5
5742.187500; 1.05105E-4
5748.046875; 9.33610E-5
5753.906250; 9.97711E-5
5759.765625; 1.13032E-4
5765.625000; 1.16896E-4
5771.484375; 1.09278E-4
5777.343750; 1.07744E-4
5783.203125; 1.03350E-4
5789.062500; 1.02912E-4
5794.921875; 1.01180E-4
5800.781250; 9.97608E-5
5806.640625; 1.03618E-4
5812.500000; 1.04922E-4
5818.359375; 1.02141E-4
5824.218750; 1.05114E-4
5830.078125; 1.02261E-4
5835.937500; 1.06321E-4
5841.796875; 1.05105E-4
5847.656250; 1.01514E-4
5853.515625; 1.01143E-4
5859.375000; 1.05606E-4
5865.234375; 9.87419E-5
5871.093750; 1.00845E-4
5876.953125; 9.29518E-5
5882.812500; 1.00677E-4
5888.671875; 9.90556E-5
5894.531250; 1.07193E-4
5900.390625; 1.03118E-4
5906.250000; 1.02721E-4
5912.109375; 1.01536E-4
5917.968750; 1.07592E-4
5923.828125; 1.02717E-4
5929.687500; 1.14805E-4
5935.546875; 1.02467E-4
5941.406250; 9.83978E-5
5947.265625; 9.77299E-5
5953.125000; 1.04621E-4
5958.984375; 1.06260E-4
5964.843750; 9.70836E-5
5970.703125; 1.00468E-4
5976.562500; 1.02781E-4
5982.421875; 9.43677E-5
5988.281250; 1.14006E-4
5994.140625; 1.14042E-4
6000.000000; 1.18410E-4
6005.859375; 1.12566E-4
6011.718750; 1.07172E-4
6017.578125; 1.06080E-4
6023.437500; 9.19961E-5
6029.296875; 1.00972E-4
6035.156250; 9.54481E-5
6041.015625; 1.03677E-4
6046.875000; 1.09189E-4
6052.734375; 1.06900E-4
6058.593750; 1.10953E-4
6064.453125; 1.00344E-4
6070.312500; 9.42603E-5
6076.171875; 9.37712E-5
6082.031250; 1.02925E-4
6087.890625; 1.07898E-4
6093.750000; 1.02947E-4
6099.609375; 1.06207E-4
6105.468750; 1.10596E-4
6111.328125; 1.04198E-4
6117.187500; 9.63358E-5
6123.046875; 1.05673E-4
6128.906250; 1.08968E-4
6134.765625; 1.06376E-4
6140.625000; 1.05913E-4
6146.484375; 1.03360E-4
6152.343750; 1.07503E-4
6158.203125; 1.07488E-4
6164.062500; 1.03640E-4
6169.921875; 9.90899E-5
6175.781250; 9.73636E-5
6181.640625; 1.03141E-4
6187.500000; 1.07901E-4
6193.359375; 1.04764E-4
6199.218750; 9.59098E-5
6205.078125; 1.00553E-4
6210.937500; 9.83954E-5
6216.796875; 1.02210E-4
6222.656250; 1.03949E-4
6228.515625; 1.01102E-4
6234.375000; 1.00499E-4
6240.234375; 9.62930E-5
6246.093750; 1.04668E-4
6251.953125; 1.13542E-4
6257.812500; 1.00330E-4
6263.671875; 9.35023E-5
6269.531250; 9.58387E-5
6275.390625; 9.78006E-5
6281.250000; 1.00357E-4
6287.109375; 1.00265E-4
6292.968750; 1.09816E-4
6298.828125; 1.13426E-4
6304.687500; 1.09202E-4
6310.546875; 1.06430E-4
6316.406250; 1.04805E-4
6322.265625; 8.71117E-5
6328.125000; 9.23136E-5
6333.984375; 9.12391E-5
6339.843750; 1.04343E-4
6345.703125; 1.06293E-4
6351.562500; 1.00830E-4
6357.421875; 9.04066E-5
6363.281250; 9.47111E-5
6369.140625; 1.01174E-4
6375.000000; 9.31987E-5
6380.859375; 1.08997E-4
6386.718750; 1.00606E-4
6392.578125; 1.05856E-4
6398.437500; 1.08370E-4
6404.296875; 1.00970E-4
6410.156250; 9.73470E-5
6416.015625; 1.08399E-4
6421.875000; 1.08313E-4
6427.734375; 1.12845E-4
6433.593750; 1.20813E-4
6439.453125; 1.17014E-4
6445.312500; 1.16710E-4
6451.171875; 1.15388E-4
6457.031250; 1.07941E-4
6462.890625; 9.71749E-5
6468.750000; 1.02529E-4
6474.609375; 1.01691E-4
6480.468750; 9.73178E-5
6486.328125; 9.81122E-5
6492.187500; 1.00704E-4
6498.046875; 1.04934E-4
6503.906250; 1.08445E-4
6509.765625; 1.04909E-4
6515.625000; 1.09883E-4
6521.484375; 1.05478E-4
6527.343750; 1.16680E-4
6533.203125; 1.08644E-4
6539.062500; 9.08108E-5
6544.921875; 8.91652E-5
6550.781250; 1.06376E-4
6556.640625; 1.02406E-4
6562.500000; 1.03181E-4
6568.359375; 1.12081E-4
6574.218750; 1.01962E-4
6580.078125; 1.03963E-4
6585.937500; 1.16470E-4
6591.796875; 1.13681E-4
6597.656250; 9.74370E-5
6603.515625; 1.04447E-4
6609.375000; 1.08981E-4
6615.234375; 1.00423E-4
6621.093750; 9.79797E-5
6626.953125; 1.11521E-4
6632.812500; 1.10245E-4
6638.671875; 1.09556E-4
6644.531250; 1.09846E-4
6650.390625; 1.04093E-4
6656.250000; 1.04924E-4
6662.109375; 9.79889E-5
6667.968750; 1.01981E-4
6673.828125; 1.14104E-4
6679.687500; 1.12899E-4
6685.546875; 1.13278E-4
6691.406250; 1.04014E-4
6697.265625; 1.09707E-4
6703.125000; 1.05589E-4
6708.984375; 1.03992E-4
6714.843750; 9.86848E-5
6720.703125; 1.00816E-4
6726.562500; 9.86994E-5
6732.421875; 1.05244E-4
6738.281250; 1.10739E-4
6744.140625; 1.02798E-4
6750.000000; 1.12518E-4
6755.859375; 1.21327E-4
6761.718750; 1.08285E-4
6767.578125; 9.89289E-5
6773.437500; 1.08169E-4
6779.296875; 1.10211E-4
6785.156250; 9.88530E-5
6791.015625; 1.02870E-4
6796.875000; 1.06843E-4
6802.734375; 1.00468E-4
6808.593750; 1.19079E-4
6814.453125; 1.15934E-4
6820.312500; 1.05207E-4
6826.171875; 1.05383E-4
6832.031250; 1.02933E-4
6837.890625; 9.18526E-5
6843.750000; 1.03199E-4
6849.609375; 1.07540E-4
6855.468750; 1.11441E-4
6861.328125; 1.00818E-4
6867.187500; 8.84146E-5
6873.046875; 1.03533E-4
6878.906250; 1.03621E-4
6884.765625; 1.07993E-4
6890.625000; 9.27118E-5
6896.484375; 9.91113E-5
6902.343750; 9.52224E-5
6908.203125; 1.00082E-4
6914.062500; 1.11170E-4
6919.921875; 1.19257E-4
6925.781250; 1.06142E-4
6931.640625; 1.06193E-4
6937.500000; 1.11729E-4
6943.359375; 9.88518E-5
6949.218750; 1.07244E-4
6955.078125; 1.08843E-4
6960.937500; 1.12260E-4
6966.796875; 1.09091E-4
6972.656250; 1.08621E-4
6978.515625; 9.88415E-5
6984.375000; 1.10269E-4
6990.234375; 1.15862E-4
6996.093750; 9.93537E-5
7001.953125; 1.11135E-4
7007.812500; 1.08557E-4
7013.671875; 9.72149E-5
7019.531250; 1.04385E-4
7025.390625; 1.01249E-4
7031.250000; 1.00014E-4
7037.109375; 1.12596E-4
7042.968750; 9.84733E-5
7048.828125; 1.01498E-4
7054.687500; 1.13404E-4
7060.546875; 1.03115E-4
7066.406250; 1.07864E-4
7072.265625; 1.11571E-4
7078.125000; 1.18397E-4
7083.984375; 1.04966E-4
7089.843750; 8.51230E-5
7095.703125; 1.02615E-4
7101.562500; 1.04865E-4
7107.421875; 9.84789E-5
7113.281250; 1.03814E-4
7119.140625; 9.98375E-5
7125.000000; 8.59921E-5
7130.859375; 1.04598E-4
7136.718750; 1.00794E-4
7142.578125; 9.63388E-5
7148.437500; 9.27737E-5
7154.296875; 9.60998E-5
7160.156250; 9.43284E-5
7166.015625; 9.11073E-5
7171.875000; 9.11599E-5
7177.734375; 9.52282E-5
7183.593750; 9.41366E-5
7189.453125; 9.72860E-5
7195.312500; 1.05153E-4
7201.171875; 1.08704E-4
7207.031250; 1.04810E-4
7212.890625; 9.35300E-5
7218.750000; 1.01631E-4
7224.609375; 1.10492E-4
7230.468750; 1.08794E-4
7236.328125; 1.09912E-4
7242.187500; 1.05240E-4
7248.046875; 9.66511E-5
7253.906250; 9.72606E-5
7259.765625; 9.73769E-5
7265.625000; 1.04750E-4
7271.484375; 9.78495E-5
7277.343750; 9.52839E-5
7283.203125; 1.00190E-4
7289.062500; 9.27871E-5
7294.921875; 8.98059E-5
7300.781250; 9.89423E-5
7306.640625; 1.00949E-4
7312.500000; 9.79146E-5
7318.359375; 9.75248E-5
7324.218750; 1.00711E-4
7330.078125; 1.06014E-4
7335.937500; 1.07467E-4
7341.796875; 1.06755E-4
7347.656250; 1.10176E-4
7353.515625; 1.12336E-4
7359.375000; 1.03910E-4
7365.234375; 1.11078E-4
7371.093750; 1.07556E-4
7376.953125; 1.01484E-4
7382.812500; 1.03623E-4
7388.671875; 9.68511E-5
7394.531250; 1.04383E-4
7400.390625; 1.09384E-4
7406.250000; 1.06643E-4
7412.109375; 9.92689E-5
7417.968750; 1.06362E-4
7423.828125; 9.94322E-5
7429.687500; 1.11024E-4
7435.546875; 1.03638E-4
7441.406250; 1.03444E-4
7447.265625; 1.09974E-4
7453.125000; 1.12641E-4
7458.984375; 1.09564E-4
7464.843750; 9.19548E-5
7470.703125; 9.78834E-5
7476.562500; 1.05417E-4
7482.421875; 9.57654E-5
7488.281250; 8.99838E-5
7494.140625; 8.41404E-5
7500.000000; 8.97441E-5
7505.859375; 1.04376E-4
7511.718750; 1.03384E-4
7517.578125; 1.03469E-4
7523.437500; 1.05876E-4
7529.296875; 9.63231E-5
7535.156250; 8.62856E-5
7541.015625; 9.98163E-5
7546.875000; 9.99070E-5
7552.734375; 9.01212E-5
7558.593750; 9.97757E-5
7564.453125; 1.05380E-4
7570.312500; 1.01990E-4
7576.171875; 9.45678E-5
7582.031250; 9.48736E-5
7587.890625; 9.59155E-5
7593.750000; 9.19520E-5
7599.609375; 9.92368E-5
7605.468750; 1.04181E-4
7611.328125; 1.05197E-4
7617.187500; 1.07232E-4
7623.046875; 1.00048E-4
7628.906250; 1.02118E-4
7634.765625; 9.80300E-5
7640.625000; 9.95024E-5
7646.484375; 1.01658E-4
7652.343750; 1.08257E-4
7658.203125; 1.13625E-4
7664.062500; 1.14258E-4
7669.921875; 9.86250E-5
7675.781250; 1.01069E-4
7681.640625; 9.81246E-5
7687.500000; 1.04106E-4
7693.359375; 1.03087E-4
7699.218750; 9.19619E-5
7705.078125; 9.54329E-5
7710.937500; 9.99399E-5
7716.796875; 9.28560E-5
7722.656250; 9.93109E-5
7728.515625; 1.09587E-4
7734.375000; 1.08878E-4
7740.234375; 1.01610E-4
7746.093750; 9.70168E-5
7751.953125; 9.46178E-5
7757.812500; 1.03361E-4
7763.671875; 1.06385E-4
7769.531250; 9.96747E-5
7775.390625; 1.10955E-4
7781.250000; 1.05393E-4
7787.109375; 1.00948E-4
7792.968750; 1.18713E-4
7798.828125; 1.11425E-4
7804.687500; 1.04290E-4
7810.546875; 9.58995E-5
7816.406250; 8.77926E-5
7822.265625; 1.04968E-4
7828.125000; 1.13414E-4
7833.984375; 1.06368E-4
7839.843750; 1.00401E-4
7845.703125; 9.89971E-5
7851.562500; 9.57037E-5
7857.421875; 9.95850E-5
7863.281250; 1.07351E-4
7869.140625; 9.44825E-5
7875.000000; 1.06047E-4
7880.859375; 1.21335E-4
7886.718750; 1.10619E-4
7892.578125; 1.06908E-4
7898.437500; 9.35518E-5
7904.296875; 9.08346E-5
7910.156250; 9.97042E-5
7916.015625; 1.02899E-4
7921.875000; 1.00763E-4
7927.734375; 1.01768E-4
7933.593750; 1.01719E-4
7939.453125; 9.99494E-5
7945.312500; 1.03607E-4
7951.171875; 1.07117E-4
7957.031250; 1.04016E-4
7962.890625; 1.11247E-4
7968.750000; 1.09277E-4
7974.609375; 1.09781E-4
7980.468750; 9.98889E-5
7986.328125; 1.03008E-4
7992.187500; 1.04990E-4
7998.046875; 1.01014E-4
8003.906250; 1.00571E-4
8009.765625; 1.02244E-4
8015.625000; 1.07007E-4
8021.484375; 1.03561E-4
8027.343750; 1.00965E-4
8033.203125; 1.15269E-4
8039.062500; 1.07606E-4
8044.921875; 9.64880E-5
8050.781250; 1.04971E-4
8056.640625; 1.06220E-4
8062.500000; 9.92274E-5
8068.359375; 1.11791E-4
8074.218750; 1.07329E-4
8080.078125; 1.00855E-4
8085.937500; 1.07049E-4
8091.796875; 9.96683E-5
8097.656250; 9.70638E-5
8103.515625; 8.87165E-5
8109.375000; 9.07188E-5
8115.234375; 1.04270E-4
8121.093750; 9.78419E-5
8126.953125; 9.40156E-5
8132.812500; 9.58137E-5
8138.671875; 9.95957E-5
8144.531250; 1.08869E-4
8150.390625; 1.13197E-4
8156.250000; 9.15225E-5
8162.109375; 9.25311E-5
8167.968750; 9.81548E-5
8173.828125; 1.05277E-4
8179.687500; 1.11676E-4
8185.546875; 1.07941E-4
8191.406250; 1.08393E-4
8197.265625; 1.15467E-4
8203.125000; 1.03311E-4
8208.984375; 9.80463E-5
8214.843750; 1.06277E-4
8220.703125; 1.12653E-4
8226.562500; 1.10916E-4
8232.421875; 1.12286E-4
8238.281250; 1.00219E-4
8244.140625; 1.06499E-4
8250.000000; 1.10776E-4
8255.859375; 1.01989E-4
8261.718750; 8.94048E-5
8267.578125; 9.95120E-5
8273.437500; 1.13569E-4
8279.296875; 1.05111E-4
8285.156250; 8.90763E-5
8291.015625; 1.09213E-4
8296.875000; 1.14392E-4
8302.734375; 1.04990E-4
8308.593750; 1.02355E-4
8314.453125; 9.49268E-5
8320.312500; 1.05089E-4
8326.171875; 1.07010E-4
8332.031250; 1.00750E-4
8337.890625; 9.75726E-5
8343.750000; 1.08541E-4
8349.609375; 1.03869E-4
8355.468750; 1.05953E-4
8361.328125; 1.01205E-4
8367.187500; 8.77893E-5
8373.046875; 1.01981E-4
8378.906250; 1.17427E-4
8384.765625; 1.12602E-4
8390.625000; 9.75059E-5
8396.484375; 1.03120E-4
8402.343750; 1.05920E-4
8408.203125; 1.18175E-4
8414.062500; 1.13582E-4
8419.921875; 1.06235E-4
8425.781250; 1.12179E-4
8431.640625; 9.74515E-5
8437.500000; 9.72749E-5
8443.359375; 1.00970E-4
8449.218750; 1.09368E-4
8455.078125; 1.02710E-4
8460.937500; 1.12473E-4
8466.796875; 1.10233E-4
8472.656250; 1.08030E-4
8478.515625; 1.01977E-4
8484.375000; 9.76070E-5
8490.234375; 1.10549E-4
8496.093750; 1.01127E-4
8501.953125; 9.87318E-5
8507.812500; 1.08161E-4
8513.671875; 1.10510E-4
8519.531250; 9.10466E-5
8525.390625; 9.36639E-5
8531.250000; 9.69663E-5
8537.109375; 9.72788E-5
8542.968750; 9.55642E-5
8548.828125; 1.05668E-4
8554.687500; 9.75998E-5
8560.546875; 1.04752E-4
8566.406250; 1.16218E-4
8572.265625; 1.10504E-4
8578.125000; 1.00382E-4
8583.984375; 9.73135E-5
8589.843750; 9.92881E-5
8595.703125; 1.02669E-4
8601.562500; 9.80419E-5
8607.421875; 1.10547E-4
8613.281250; 1.16943E-4
8619.140625; 1.06580E-4
8625.000000; 1.02186E-4
8630.859375; 1.05799E-4
8636.718750; 1.04171E-4
8642.578125; 1.01658E-4
8648.437500; 1.01341E-4
8654.296875; 1.04720E-4
8660.156250; 1.08090E-4
8666.015625; 1.02709E-4
8671.875000; 8.99484E-5
8677.734375; 1.08335E-4
8683.593750; 1.11649E-4
8689.453125; 1.05876E-4
8695.312500; 1.02453E-4
8701.171875; 1.06345E-4
8707.031250; 1.11550E-4
8712.890625; 9.31974E-5
8718.750000; 9.36453E-5
8724.609375; 9.67224E-5
8730.468750; 1.05331E-4
8736.328125; 1.05161E-4
8742.187500; 9.47795E-5
8748.046875; 1.00404E-4
8753.906250; 1.11735E-4
8759.765625; 1.03235E-4
8765.625000; 9.42315E-5
8771.484375; 1.07486E-4
8777.343750; 1.12345E-4
8783.203125; 1.11345E-4
8789.062500; 1.12666E-4
8794.921875; 1.01623E-4
8800.781250; 9.94316E-5
8806.640625; 1.05619E-4
8812.500000; 1.12391E-4
8818.359375; 1.01749E-4
8824.218750; 9.80691E-5
8830.078125; 9.81659E-5
8835.937500; 1.07428E-4
8841.796875; 1.05054E-4
8847.656250; 9.67069E-5
8853.515625; 1.08150E-4
8859.375000; 1.06584E-4
8865.234375; 9.91029E-5
8871.093750; 1.04947E-4
8876.953125; 1.06780E-4
8882.812500; 9.88254E-5
8888.671875; 1.03790E-4
8894.531250; 1.00105E-4
8900.390625; 9.84354E-5
8906.250000; 9.66914E-5
8912.109375; 9.63270E-5
8917.968750; 9.98804E-5
8923.828125; 1.01862E-4
8929.687500; 1.07065E-4
8935.546875; 1.11511E-4
8941.406250; 1.02651E-4
8947.265625; 1.01036E-4
8953.125000; 1.02385E-4
8958.984375; 1.09846E-4
8964.843750; 1.03560E-4
8970.703125; 1.09275E-4
8976.562500; 1.00192E-4
8982.421875; 9.64706E-5
8988.281250; 9.74978E-5
8994.140625; 1.03035E-4
9000.000000; 1.16727E-4
9005.859375; 1.16875E-4
9011.718750; 1.03102E-4
9017.578125; 9.64214E-5
9023.437500; 8.80589E-5
9029.296875; 9.03555E-5
9035.156250; 9.94845E-5
9041.015625; 1.04257E-4
9046.875000; 1.08222E-4
9052.734375; 1.10518E-4
9058.593750; 1.04324E-4
9064.453125; 9.92590E-5
9070.312500; 9.91563E-5
9076.171875; 9.16100E-5
9082.031250; 9.81206E-5
9087.890625; 9.62312E-5
9093.750000; 9.77804E-5
9099.609375; 9.99400E-5
9105.468750; 1.06849E-4
9111.328125; 1.06361E-4
9117.187500; 1.07951E-4
9123.046875; 1.08833E-4
9128.906250; 1.04890E-4
9134.765625; 1.01129E-4
9140.625000; 1.14032E-4
9146.484375; 1.13239E-4
9152.343750; 1.02046E-4
9158.203125; 9.35208E-5
9164.062500; 8.65502E-5
9169.921875; 9.98213E-5
9175.781250; 9.64089E-5
9181.640625; 1.02399E-4
9187.500000; 1.10508E-4
9193.359375; 1.11317E-4
9199.218750; 1.00520E-4
9205.078125; 1.08897E-4
9210.937500; 1.07153E-4
9216.796875; 1.04315E-4
9222.656250; 1.01374E-4
9228.515625; 9.53635E-5
9234.375000; 9.53702E-5
9240.234375; 1.05331E-4
9246.093750; 9.84649E-5
9251.953125; 8.85163E-5
9257.812500; 1.02376E-4
9263.671875; 9.78538E-5
9269.531250; 1.01311E-4
9275.390625; 1.05240E-4
9281.250000; 1.15855E-4
9287.109375; 1.15861E-4
9292.968750; 1.09791E-4
9298.828125; 9.37370E-5
9304.687500; 9.64464E-5
9310.546875; 1.13483E-4
9316.406250; 1.02371E-4
9322.265625; 9.56446E-5
9328.125000; 1.00837E-4
9333.984375; 1.04636E-4
9339.843750; 9.65790E-5
9345.703125; 1.00529E-4
9351.562500; 9.58286E-5
9357.421875; 1.07594E-4
9363.281250; 1.04418E-4
9369.140625; 9.36836E-5
9375.000000; 1.04889E-4
9380.859375; 1.04717E-4
9386.718750; 1.02590E-4
9392.578125; 9.98961E-5
9398.437500; 9.92272E-5
9404.296875; 9.97630E-5
9410.156250; 9.98001E-5
9416.015625; 9.37574E-5
9421.875000; 1.04932E-4
9427.734375; 1.03504E-4
9433.593750; 9.77121E-5
9439.453125; 9.59490E-5
9445.312500; 1.15162E-4
9451.171875; 1.16394E-4
9457.031250; 1.04323E-4
9462.890625; 1.01517E-4
9468.750000; 1.01943E-4
9474.609375; 9.69607E-5
9480.468750; 9.82519E-5
9486.328125; 1.13175E-4
9492.187500; 1.13365E-4
9498.046875; 9.81382E-5
9503.906250; 9.39340E-5
9509.765625; 9.08040E-5
9515.625000; 9.96050E-5
9521.484375; 1.07582E-4
9527.343750; 1.07078E-4
9533.203125; 9.99094E-5
9539.062500; 1.00472E-4
9544.921875; 1.02141E-4
9550.781250; 9.91348E-5
9556.640625; 1.07283E-4
9562.500000; 1.07635E-4
9568.359375; 9.93329E-5
9574.218750; 9.34171E-5
9580.078125; 9.68142E-5
9585.937500; 1.06042E-4
9591.796875; 9.34863E-5
9597.656250; 9.70870E-5
9603.515625; 1.06874E-4
9609.375000; 1.04184E-4
9615.234375; 1.12005E-4
9621.093750; 1.16464E-4
9626.953125; 1.09135E-4
9632.812500; 1.09375E-4
9638.671875; 1.10346E-4
9644.531250; 1.06477E-4
9650.390625; 1.02292E-4
9656.250000; 9.89669E-5
9662.109375; 1.02652E-4
9667.968750; 1.07258E-4
9673.828125; 8.77029E-5
9679.687500; 9.44187E-5
9685.546875; 9.75136E-5
9691.406250; 9.86703E-5
9697.265625; 9.93417E-5
9703.125000; 1.11657E-4
9708.984375; 1.08877E-4
9714.843750; 1.01899E-4
9720.703125; 1.04456E-4
9726.562500; 1.02998E-4
9732.421875; 1.08098E-4
9738.281250; 1.15062E-4
9744.140625; 1.06140E-4
9750.000000; 1.02440E-4
9755.859375; 1.02454E-4
9761.718750; 9.92724E-5
9767.578125; 1.00717E-4
9773.437500; 1.13796E-4
9779.296875; 1.09093E-4
9785.156250; 9.65904E-5
9791.015625; 1.01431E-4
9796.875000; 1.00553E-4
9802.734375; 1.07956E-4
9808.593750; 1.01225E-4
9814.453125; 1.01936E-4
9820.312500; 1.06558E-4
9826.171875; 1.08501E-4
9832.031250; 1.01891E-4
9837.890625; 9.71846E-5
9843.750000; 8.82377E-5
9849.609375; 1.02015E-4
9855.468750; 1.05467E-4
9861.328125; 1.06868E-4
9867.187500; 9.53910E-5
9873.046875; 9.32688E-5
9878.906250; 9.90659E-5
9884.765625; 1.08607E-4
9890.625000; 1.15262E-4
9896.484375; 1.14259E-4
9902.343750; 1.14793E-4
9908.203125; 9.93470E-5
9914.062500; 9.67205E-5
9919.921875; 1.12909E-4
9925.781250; 1.08180E-4
9931.640625; 1.05014E-4
9937.500000; 1.05932E-4
9943.359375; 1.14546E-4
9949.218750; 1.14212E-4
9955.078125; 1.12612E-4
9960.937500; 9.64968E-5
9966.796875; 9.93138E-5
9972.656250; 1.02426E-4
9978.515625; 9.85863E-5
9984.375000; 9.79360E-5
9990.234375; 9.41247E-5
9996.093750; 9.39475E-5
10001.953125; 1.00688E-4
10007.812500; 1.01779E-4
10013.671875; 1.07373E-4
10019.531250; 1.04250E-4
10025.390625; 9.99557E-5
10031.250000; 1.04499E-4
10037.109375; 1.09190E-4
10042.968750; 1.09311E-4
10048.828125; 1.07244E-4
10054.687500; 9.47484E-5
10060.546875; 9.41196E-5
10066.406250; 1.05726E-4
10072.265625; 9.28243E-5
10078.125000; 9.72326E-5
10083.984375; 1.00382E-4
10089.843750; 9.70638E-5
10095.703125; 9.93461E-5
10101.562500; 9.62854E-5
10107.421875; 1.04985E-4
10113.281250; 1.11235E-4
10119.140625; 1.19130E-4
10125.000000; 9.69014E-5
10130.859375; 9.12430E-5
10136.718750; 1.13250E-4
10142.578125; 9.88691E-5
10148.437500; 1.02534E-4
10154.296875; 1.07910E-4
10160.156250; 9.95050E-5
10166.015625; 9.40996E-5
10171.875000; 1.01254E-4
10177.734375; 1.06074E-4
10183.593750; 1.00483E-4
10189.453125; 1.06910E-4
10195.312500; 1.14917E-4
10201.171875; 9.51330E-5
10207.031250; 9.41257E-5
10212.890625; 9.61822E-5
10218.750000; 9.22737E-5
10224.609375; 9.65137E-5
10230.468750; 1.04144E-4
10236.328125; 1.08035E-4
10242.187500; 1.03623E-4
10248.046875; 1.03511E-4
10253.906250; 1.07338E-4
10259.765625; 1.10417E-4
10265.625000; 1.11388E-4
10271.484375; 9.93434E-5
10277.343750; 9.71666E-5
10283.203125; 1.06438E-4
10289.062500; 1.09290E-4
10294.921875; 1.05699E-4
10300.781250; 1.07456E-4
10306.640625; 1.04385E-4
10312.500000; 1.02760E-4
10318.359375; 9.65603E-5
10324.218750; 1.05861E-4
10330.078125; 1.08505E-4
10335.937500; 1.03831E-4
10341.796875; 1.03109E-4
10347.656250; 1.02644E-4
10353.515625; 1.04301E-4
10359.375000; 1.04031E-4
10365.234375; 1.18548E-4
10371.093750; 1.16174E-4
10376.953125; 1.02698E-4
10382.812500; 9.85104E-5
10388.671875; 9.69691E-5
10394.531250; 1.01192E-4
10400.390625; 1.07546E-4
10406.250000; 1.05075E-4
10412.109375; 9.29775E-5
10417.968750; 8.67100E-5
10423.828125; 1.00395E-4
10429.687500; 1.02461E-4
10435.546875; 1.07609E-4
10441.406250; 9.74265E-5
10447.265625; 8.54896E-5
10453.125000; 9.68770E-5
10458.984375; 1.02189E-4
10464.843750; 1.07693E-4
10470.703125; 1.03648E-4
10476.562500; 9.68162E-5
10482.421875; 1.02267E-4
10488.281250; 9.93143E-5
10494.140625; 9.81570E-5
10500.000000; 9.47562E-5
10505.859375; 9.54590E-5
10511.718750; 1.01427E-4
10517.578125; 1.02071E-4
10523.437500; 9.41674E-5
10529.296875; 9.98786E-5
10535.156250; 9.48377E-5
10541.015625; 8.75579E-5
10546.875000; 1.00656E-4
10552.734375; 1.07804E-4
10558.593750; 9.64470E-5
10564.453125; 8.77214E-5
10570.312500; 9.52624E-5
10576.171875; 1.01977E-4
10582.031250; 1.12497E-4
10587.890625; 1.09109E-4
10593.750000; 1.01600E-4
10599.609375; 1.02203E-4
10605.468750; 1.07673E-4
10611.328125; 1.02141E-4
10617.187500; 9.70398E-5
10623.046875; 1.05805E-4
10628.906250; 1.16865E-4
10634.765625; 9.76551E-5
10640.625000; 8.76829E-5
10646.484375; 9.32972E-5
10652.343750; 1.03592E-4
10658.203125; 9.49335E-5
10664.062500; 9.77805E-5
10669.921875; 1.03974E-4
10675.781250; 1.05558E-4
10681.640625; 1.09619E-4
10687.500000; 9.53694E-5
10693.359375; 8.61774E-5
10699.218750; 9.56221E-5
10705.078125; 9.63883E-5
10710.937500; 1.02066E-4
10716.796875; 1.01076E-4
10722.656250; 1.04432E-4
10728.515625; 1.19334E-4
10734.375000; 1.07833E-4
10740.234375; 1.11934E-4
10746.093750; 1.09661E-4
10751.953125; 1.07319E-4
10757.812500; 9.25235E-5
10763.671875; 1.00196E-4
10769.531250; 9.97440E-5
10775.390625; 9.48964E-5
10781.250000; 1.08016E-4
10787.109375; 1.12115E-4
10792.968750; 1.02209E-4
10798.828125; 1.03299E-4
10804.687500; 1.05299E-4
10810.546875; 1.11616E-4
10816.406250; 1.05381E-4
10822.265625; 1.06112E-4
10828.125000; 9.99550E-5
10833.984375; 1.03903E-4
10839.843750; 1.14265E-4
10845.703125; 1.01458E-4
10851.562500; 1.03051E-4
10857.421875; 1.01290E-4
10863.281250; 9.30942E-5
10869.140625; 1.06978E-4
10875.000000; 1.11856E-4
10880.859375; 1.01602E-4
10886.718750; 1.04271E-4
10892.578125; 1.12463E-4
10898.437500; 9.71773E-5
10904.296875; 1.12255E-4
10910.156250; 1.16727E-4
10916.015625; 1.05806E-4
10921.875000; 1.02562E-4
10927.734375; 1.12500E-4
10933.593750; 1.08429E-4
10939.453125; 9.86308E-5
10945.312500; 1.01718E-4
10951.171875; 1.01644E-4
10957.031250; 9.82426E-5
10962.890625; 1.01183E-4
10968.750000; 1.01608E-4
10974.609375; 9.78236E-5
10980.468750; 1.00163E-4
10986.328125; 1.03327E-4
10992.187500; 9.96551E-5
10998.046875; 1.03667E-4
11003.906250; 1.06410E-4
11009.765625; 1.12624E-4
11015.625000; 1.04942E-4
11021.484375; 1.09144E-4
11027.343750; 9.61079E-5
11033.203125; 8.22982E-5
11039.062500; 9.86171E-5
11044.921875; 1.00637E-4
11050.781250; 1.00261E-4
11056.640625; 9.97332E-5
11062.500000; 1.09851E-4
11068.359375; 1.05334E-4
11074.218750; 1.03503E-4
11080.078125; 9.84834E-5
11085.937500; 9.65737E-5
11091.796875; 9.71113E-5
11097.656250; 1.03211E-4
11103.515625; 1.09076E-4
11109.375000; 1.11608E-4
11115.234375; 1.00225E-4
11121.093750; 1.02244E-4
11126.953125; 9.45685E-5
11132.812500; 8.69754E-5
11138.671875; 9.97675E-5
11144.531250; 1.03686E-4
11150.390625; 1.03579E-4
11156.250000; 9.93999E-5
11162.109375; 1.09559E-4
11167.968750; 1.10442E-4
11173.828125; 1.03563E-4
11179.687500; 8.91091E-5
11185.546875; 9.11961E-5
11191.406250; 9.33557E-5
11197.265625; 9.65581E-5
11203.125000; 1.07733E-4
11208.984375; 1.01054E-4
11214.843750; 8.96974E-5
11220.703125; 9.32127E-5
11226.562500; 1.03812E-4
11232.421875; 9.68387E-5
11238.281250; 9.68020E-5
11244.140625; 1.00888E-4
11250.000000; 1.11177E-4
11255.859375; 1.12936E-4
11261.718750; 1.06440E-4
11267.578125; 1.12894E-4
11273.437500; 1.03940E-4
11279.296875; 1.02696E-4
11285.156250; 1.04014E-4
11291.015625; 1.00823E-4
11296.875000; 1.04064E-4
11302.734375; 1.01685E-4
11308.593750; 9.97943E-5
11314.453125; 1.00349E-4
11320.312500; 1.02498E-4
11326.171875; 1.00772E-4
11332.031250; 9.98601E-5
11337.890625; 1.05913E-4
11343.750000; 1.03959E-4
11349.609375; 1.05001E-4
11355.468750; 1.09740E-4
11361.328125; 1.05279E-4
11367.187500; 9.63224E-5
11373.046875; 9.93013E-5
11378.906250; 1.06309E-4
11384.765625; 9.65734E-5
11390.625000; 8.94135E-5
11396.484375; 8.95116E-5
11402.343750; 9.50377E-5
11408.203125; 9.63889E-5
11414.062500; 1.12159E-4
11419.921875; 1.06490E-4
11425.781250; 8.17802E-5
11431.640625; 1.00486E-4
11437.500000; 1.05305E-4
11443.359375; 1.03569E-4
11449.218750; 1.03600E-4
11455.078125; 9.20928E-5
11460.937500; 9.90643E-5
11466.796875; 1.07135E-4
11472.656250; 1.07472E-4
11478.515625; 1.02487E-4
11484.375000; 1.14163E-4
11490.234375; 1.05874E-4
11496.093750; 1.01378E-4
11501.953125; 1.08817E-4
11507.812500; 1.21865E-4
11513.671875; 1.17058E-4
11519.531250; 9.49147E-5
11525.390625; 9.43893E-5
11531.250000; 9.16475E-5
11537.109375; 8.89833E-5
11542.968750; 1.00666E-4
11548.828125; 1.04395E-4
11554.687500; 1.12930E-4
11560.546875; 1.09165E-4
11566.406250; 1.03519E-4
11572.265625; 9.95258E-5
11578.125000; 9.42041E-5
11583.984375; 9.10149E-5
11589.843750; 9.44043E-5
11595.703125; 1.13348E-4
11601.562500; 1.04283E-4
11607.421875; 1.07909E-4
11613.281250; 1.11624E-4
11619.140625; 1.22375E-4
11625.000000; 1.07717E-4
11630.859375; 8.76546E-5
11636.718750; 9.16582E-5
11642.578125; 9.43451E-5
11648.437500; 1.03393E-4
11654.296875; 1.12340E-4
11660.156250; 1.01898E-4
11666.015625; 9.62085E-5
11671.875000; 1.02107E-4
11677.734375; 1.01875E-4
11683.593750; 9.19961E-5
11689.453125; 9.39635E-5
11695.312500; 1.08736E-4
11701.171875; 1.06633E-4
11707.031250; 1.09522E-4
11712.890625; 1.09136E-4
11718.750000; 9.78458E-5
11724.609375; 9.86303E-5
11730.468750; 1.04156E-4
11736.328125; 1.03932E-4
11742.187500; 1.11227E-4
11748.046875; 1.12241E-4
11753.906250; 1.01009E-4
11759.765625; 9.55619E-5
11765.625000; 9.11506E-5
11771.484375; 1.02055E-4
11777.343750; 9.87612E-5
11783.203125; 1.04048E-4
11789.062500; 9.85144E-5
11794.921875; 1.04436E-4
11800.781250; 1.11769E-4
11806.640625; 1.06816E-4
11812.500000; 9.37776E-5
11818.359375; 9.07464E-5
11824.218750; 1.01648E-4
11830.078125; 1.04109E-4
11835.937500; 1.03491E-4
11841.796875; 1.00563E-4
11847.656250; 1.04370E-4
11853.515625; 1.09802E-4
11859.375000; 1.02055E-4
11865.234375; 1.03322E-4
11871.093750; 9.88525E-5
11876.953125; 1.01242E-4
11882.812500; 1.02989E-4
11888.671875; 1.00719E-4
11894.531250; 1.01254E-4
11900.390625; 1.05022E-4
11906.250000; 1.01176E-4
11912.109375; 1.09363E-4
11917.968750; 1.03329E-4
11923.828125; 9.50560E-5
11929.687500; 1.00639E-4
11935.546875; 9.29508E-5
11941.406250; 9.27948E-5
11947.265625; 9.74323E-5
11953.125000; 9.63866E-5
11958.984375; 1.03900E-4
11964.843750; 1.11239E-4
11970.703125; 1.12493E-4
11976.562500; 1.12174E-4
11982.421875; 1.02783E-4
11988.281250; 1.02145E-4
11994.140625; 1.03219E-4
12000.000000; 1.08902E-4
12005.859375; 1.03546E-4
12011.718750; 9.60084E-5
12017.578125; 9.79770E-5
12023.437500; 1.08388E-4
12029.296875; 9.67098E-5
12035.156250; 1.03087E-4
12041.015625; 1.10351E-4
12046.875000; 9.28625E-5
12052.734375; 9.56047E-5
12058.593750; 9.57591E-5
12064.453125; 9.77916E-5
12070.312500; 1.04656E-4
12076.171875; 1.01620E-4
12082.031250; 1.13086E-4
12087.890625; 1.03018E-4
12093.750000; 9.57389E-5
12099.609375; 1.04748E-4
12105.468750; 1.01579E-4
12111.328125; 1.01654E-4
12117.187500; 1.02837E-4
12123.046875; 9.75202E-5
12128.906250; 9.41677E-5
12134.765625; 9.68154E-5
12140.625000; 1.01181E-4
12146.484375; 1.05757E-4
12152.343750; 9.95476E-5
12158.203125; 8.65786E-5
12164.062500; 8.42303E-5
12169.921875; 8.54072E-5
12175.781250; 1.02805E-4
12181.640625; 1.07511E-4
12187.500000; 1.06217E-4
12193.359375; 9.80104E-5
12199.218750; 9.76177E-5
12205.078125; 1.00777E-4
12210.937500; 1.09322E-4
12216.796875; 9.68504E-5
12222.656250; 9.82570E-5
12228.515625; 8.82068E-5
12234.375000; 9.24304E-5
12240.234375; 9.34704E-5
12246.093750; 9.47977E-5
12251.953125; 9.81098E-5
12257.812500; 1.05322E-4
12263.671875; 9.68185E-5
12269.531250; 1.11703E-4
12275.390625; 1.08169E-4
12281.250000; 1.03390E-4
12287.109375; 9.56198E-5
12292.968750; 1.01799E-4
12298.828125; 1.07797E-4
12304.687500; 9.17611E-5
12310.546875; 9.51931E-5
12316.406250; 9.82945E-5
12322.265625; 1.01426E-4
12328.125000; 9.77722E-5
12333.984375; 1.10422E-4
12339.843750; 1.03532E-4
12345.703125; 1.00021E-4
12351.562500; 1.04069E-4
12357.421875; 9.58786E-5
12363.281250; 9.28086E-5
12369.140625; 9.70627E-5
12375.000000; 9.97123E-5
12380.859375; 1.01716E-4
12386.718750; 1.06454E-4
12392.578125; 1.01720E-4
12398.437500; 9.35107E-5
12404.296875; 1.00959E-4
12410.156250; 1.16444E-4
12416.015625; 1.17516E-4
12421.875000; 1.09115E-4
12427.734375; 1.05241E-4
12433.593750; 9.60469E-5
12439.453125; 9.84661E-5
12445.312500; 9.60554E-5
12451.171875; 9.45769E-5
12457.031250; 1.06029E-4
12462.890625; 1.11161E-4
12468.750000; 1.07799E-4
12474.609375; 1.12307E-4
12480.468750; 1.15450E-4
12486.328125; 9.97742E-5
12492.187500; 1.16967E-4
12498.046875; 1.21646E-4
12503.906250; 1.02284E-4
12509.765625; 1.03689E-4
12515.625000; 1.04529E-4
12521.484375; 9.87056E-5
12527.343750; 1.05566E-4
12533.203125; 1.09942E-4
12539.062500; 9.35920E-5
12544.921875; 9.07802E-5
12550.781250; 9.82041E-5
12556.640625; 1.05828E-4
12562.500000; 1.09114E-4
12568.359375; 9.76016E-5
12574.218750; 9.57400E-5
12580.078125; 9.27643E-5
12585.937500; 9.56171E-5
12591.796875; 1.10579E-4
12597.656250; 1.11349E-4
12603.515625; 1.12742E-4
12609.375000; 1.08498E-4
12615.234375; 1.05141E-4
12621.093750; 9.31025E-5
12626.953125; 9.72557E-5
12632.812500; 1.09290E-4
12638.671875; 9.86012E-5
12644.531250; 9.40538E-5
12650.390625; 9.91840E-5
12656.250000; 9.51891E-5
12662.109375; 1.02559E-4
12667.968750; 1.12727E-4
12673.828125; 1.00675E-4
12679.687500; 1.14958E-4
12685.546875; 1.15560E-4
12691.406250; 1.04976E-4
12697.265625; 1.10809E-4
12703.125000; 1.09123E-4
12708.984375; 1.04087E-4
12714.843750; 9.79553E-5
12720.703125; 9.69385E-5
12726.562500; 1.00944E-4
12732.421875; 1.07101E-4
12738.281250; 1.06010E-4
12744.140625; 1.00739E-4
12750.000000; 1.12610E-4
12755.859375; 1.01916E-4
12761.718750; 8.32843E-5
12767.578125; 9.24828E-5
12773.437500; 9.52400E-5
12779.296875; 9.96775E-5
12785.156250; 9.99794E-5
12791.015625; 9.63600E-5
12796.875000; 1.09521E-4
12802.734375; 9.76948E-5
12808.593750; 9.34888E-5
12814.453125; 1.09688E-4
12820.312500; 1.02321E-4
12826.171875; 1.01528E-4
12832.031250; 1.03427E-4
12837.890625; 1.07746E-4
12843.750000; 1.13200E-4
12849.609375; 9.94180E-5
12855.468750; 8.12613E-5
12861.328125; 9.10873E-5
12867.187500; 8.73088E-5
12873.046875; 9.23502E-5
12878.906250; 9.33495E-5
12884.765625; 8.82081E-5
12890.625000; 9.68378E-5
12896.484375; 1.00423E-4
12902.343750; 9.88677E-5
12908.203125; 9.64699E-5
12914.062500; 9.97686E-5
12919.921875; 9.60512E-5
12925.781250; 9.17224E-5
12931.640625; 9.14052E-5
12937.500000; 1.07651E-4
12943.359375; 1.17210E-4
12949.218750; 1.07769E-4
12955.078125; 1.01608E-4
12960.937500; 1.06221E-4
12966.796875; 9.44766E-5
12972.656250; 1.00769E-4
12978.515625; 1.03873E-4
12984.375000; 9.62677E-5
12990.234375; 9.43759E-5
12996.093750; 9.78296E-5
13001.953125; 9.85209E-5
13007.812500; 1.01936E-4
13013.671875; 9.78113E-5
13019.531250; 9.78913E-5
13025.390625; 9.26051E-5
13031.250000; 9.02213E-5
13037.109375; 9.88301E-5
13042.968750; 9.24054E-5
13048.828125; 1.03278E-4
13054.687500; 1.00264E-4
13060.546875; 9.76597E-5
13066.406250; 9.61189E-5
13072.265625; 9.32066E-5
13078.125000; 9.33689E-5
13083.984375; 1.00292E-4
13089.843750; 1.04046E-4
13095.703125; 1.14538E-4
13101.562500; 1.17012E-4
13107.421875; 1.04084E-4
13113.281250; 1.00961E-4
13119.140625; 9.43677E-5
13125.000000; 1.00539E-4
13130.859375; 1.10422E-4
13136.718750; 1.03514E-4
13142.578125; 9.89178E-5
13148.437500; 9.06052E-5
13154.296875; 8.75538E-5
13160.156250; 9.19861E-5
13166.015625; 9.54908E-5
13171.875000; 1.06997E-4
13177.734375; 1.16040E-4
13183.593750; 1.07201E-4
13189.453125; 1.14119E-4
13195.312500; 1.03229E-4
13201.171875; 1.05386E-4
13207.031250; 1.17350E-4
13212.890625; 9.11814E-5
13218.750000; 1.00550E-4
13224.609375; 1.04747E-4
13230.468750; 9.96747E-5
13236.328125; 9.59022E-5
13242.187500; 1.04021E-4
13248.046875; 1.01788E-4
13253.906250; 1.08502E-4
13259.765625; 9.93993E-5
13265.625000; 9.74961E-5
13271.484375; 9.88968E-5
13277.343750; 9.70662E-5
13283.203125; 1.04038E-4
13289.062500; 1.08219E-4
13294.921875; 1.13505E-4
13300.781250; 1.05528E-4
13306.640625; 9.26300E-5
13312.500000; 1.01837E-4
13318.359375; 1.02182E-4
13324.218750; 1.02002E-4
13330.078125; 1.08832E-4
13335.937500; 1.10284E-4
13341.796875; 1.15204E-4
13347.656250; 1.03075E-4
13353.515625; 9.58366E-5
13359.375000; 9.45924E-5
13365.234375; 1.00129E-4
13371.093750; 9.97523E-5
13376.953125; 1.00045E-4
13382.812500; 1.01758E-4
13388.671875; 1.04123E-4
13394.531250; 9.81208E-5
13400.390625; 1.02244E-4
13406.250000; 1.03503E-4
13412.109375; 9.19422E-5
13417.968750; 9.99881E-5
13423.828125; 1.01218E-4
13429.687500; 1.04979E-4
13435.546875; 1.15654E-4
13441.406250; 1.16841E-4
13447.265625; 1.07019E-4
13453.125000; 1.01006E-4
13458.984375; 9.83491E-5
13464.843750; 1.01906E-4
13470.703125; 9.81517E-5
13476.562500; 9.57818E-5
13482.421875; 1.04527E-4
13488.281250; 1.10486E-4
13494.140625; 1.13948E-4
13500.000000; 1.06776E-4
13505.859375; 1.00284E-4
13511.718750; 1.05113E-4
13517.578125; 9.07464E-5
13523.437500; 9.55995E-5
13529.296875; 9.60573E-5
13535.156250; 9.42435E-5
13541.015625; 9.25955E-5
13546.875000; 1.06287E-4
13552.734375; 1.01000E-4
13558.593750; 9.15492E-5
13564.453125; 9.90358E-5
13570.312500; 9.96555E-5
13576.171875; 9.67628E-5
13582.031250; 9.81721E-5
13587.890625; 1.01185E-4
13593.750000; 9.73945E-5
13599.609375; 1.04709E-4
13605.468750; 1.09233E-4
13611.328125; 9.23941E-5
13617.187500; 9.80168E-5
13623.046875; 1.11872E-4
13628.906250; 1.05354E-4
13634.765625; 1.05018E-4
13640.625000; 1.10111E-4
13646.484375; 1.11354E-4
13652.343750; 1.05980E-4
13658.203125; 1.09558E-4
13664.062500; 1.07670E-4
13669.921875; 1.00841E-4
13675.781250; 1.07606E-4
13681.640625; 1.08526E-4
13687.500000; 9.25738E-5
13693.359375; 9.37630E-5
13699.218750; 1.12463E-4
13705.078125; 1.05457E-4
13710.937500; 9.55516E-5
13716.796875; 9.24379E-5
13722.656250; 9.59781E-5
13728.515625; 9.57599E-5
13734.375000; 1.02075E-4
13740.234375; 1.00893E-4
13746.093750; 9.52283E-5
13751.953125; 1.04456E-4
13757.812500; 1.03065E-4
13763.671875; 1.00742E-4
13769.531250; 1.05565E-4
13775.390625; 1.00485E-4
13781.250000; 9.83205E-5
13787.109375; 1.11503E-4
13792.968750; 1.12877E-4
13798.828125; 9.75879E-5
13804.687500; 9.17484E-5
13810.546875; 9.87498E-5
13816.406250; 1.05161E-4
13822.265625; 9.38944E-5
13828.125000; 1.02309E-4
13833.984375; 1.06637E-4
13839.843750; 1.10861E-4
13845.703125; 9.93085E-5
13851.562500; 1.04428E-4
13857.421875; 1.02074E-4
13863.281250; 1.14986E-4
13869.140625; 1.13893E-4
13875.000000; 9.88766E-5
13880.859375; 9.96847E-5
13886.718750; 1.01628E-4
13892.578125; 1.03802E-4
13898.437500; 1.04768E-4
13904.296875; 9.19488E-5
13910.156250; 1.07498E-4
13916.015625; 9.91445E-5
13921.875000; 9.10895E-5
13927.734375; 9.07200E-5
13933.593750; 9.94648E-5
13939.453125; 8.56760E-5
13945.312500; 8.96178E-5
13951.171875; 1.06177E-4
13957.031250; 1.06971E-4
13962.890625; 1.05582E-4
13968.750000; 1.02422E-4
13974.609375; 9.68574E-5
13980.468750; 1.05043E-4
13986.328125; 1.07389E-4
13992.187500; 9.96468E-5
13998.046875; 9.92194E-5
14003.906250; 1.09775E-4
14009.765625; 1.02839E-4
14015.625000; 9.31000E-5
14021.484375; 1.00947E-4
14027.343750; 1.10762E-4
14033.203125; 1.05698E-4
14039.062500; 1.09735E-4
14044.921875; 1.07463E-4
14050.781250; 9.81749E-5
14056.640625; 9.72040E-5
14062.500000; 9.84661E-5
14068.359375; 1.03612E-4
14074.218750; 1.11391E-4
14080.078125; 1.01804E-4
14085.937500; 1.03017E-4
14091.796875; 9.53116E-5
14097.656250; 9.97167E-5
14103.515625; 1.10666E-4
14109.375000; 9.40098E-5
14115.234375; 9.37827E-5
14121.093750; 9.76738E-5
14126.953125; 9.74207E-5
14132.812500; 1.02353E-4
14138.671875; 1.11665E-4
14144.531250; 1.15004E-4
14150.390625; 1.01538E-4
14156.250000; 1.07386E-4
14162.109375; 1.03908E-4
14167.968750; 8.60347E-5
14173.828125; 8.76268E-5
14179.687500; 9.45840E-5
14185.546875; 1.01854E-4
14191.406250; 1.06494E-4
14197.265625; 1.13442E-4
14203.125000; 1.06140E-4
14208.984375; 1.07777E-4
14214.843750; 1.12403E-4
14220.703125; 9.53898E-5
14226.562500; 9.44265E-5
14232.421875; 9.48984E-5
14238.281250; 9.28273E-5
14244.140625; 9.29623E-5
14250.000000; 9.52901E-5
14255.859375; 1.02034E-4
14261.718750; 1.06346E-4
14267.578125; 1.09216E-4
14273.437500; 1.11222E-4
14279.296875; 1.05889E-4
14285.156250; 1.08900E-4
14291.015625; 9.63062E-5
14296.875000; 9.06494E-5
14302.734375; 9.59941E-5
14308.593750; 8.95348E-5
14314.453125; 9.04415E-5
14320.312500; 9.14877E-5
14326.171875; 1.00886E-4
14332.031250; 1.05151E-4
14337.890625; 9.95578E-5
14343.750000; 1.05593E-4
14349.609375; 1.00994E-4
14355.468750; 9.94147E-5
14361.328125; 9.76612E-5
14367.187500; 1.04893E-4
14373.046875; 1.07575E-4
14378.906250; 1.05518E-4
14384.765625; 9.31380E-5
14390.625000; 9.78823E-5
14396.484375; 9.39883E-5
14402.343750; 9.58115E-5
14408.203125; 1.09483E-4
14414.062500; 9.94488E-5
14419.921875; 1.11049E-4
14425.781250; 1.15421E-4
14431.640625; 1.04376E-4
14437.500000; 9.96531E-5
14443.359375; 9.38811E-5
14449.218750; 1.02922E-4
14455.078125; 1.07020E-4
14460.937500; 1.09685E-4
14466.796875; 1.12768E-4
14472.656250; 1.01439E-4
14478.515625; 9.97255E-5
14484.375000; 9.40750E-5
14490.234375; 1.04767E-4
14496.093750; 9.76001E-5
14501.953125; 9.34354E-5
14507.812500; 9.25731E-5
14513.671875; 9.81130E-5
14519.531250; 9.73783E-5
14525.390625; 1.04961E-4
14531.250000; 1.04372E-4
14537.109375; 9.19756E-5
14542.968750; 9.98254E-5
14548.828125; 1.06845E-4
14554.687500; 9.83204E-5
14560.546875; 1.04305E-4
14566.406250; 1.10102E-4
14572.265625; 1.02018E-4
14578.125000; 9.60019E-5
14583.984375; 9.34647E-5
14589.843750; 9.53580E-5
14595.703125; 1.14055E-4
14601.562500; 9.80650E-5
14607.421875; 1.02490E-4
14613.281250; 1.05402E-4
14619.140625; 1.02752E-4
14625.000000; 1.05994E-4
14630.859375; 9.69454E-5
14636.718750; 1.06062E-4
14642.578125; 1.00159E-4
14648.437500; 9.94714E-5
14654.296875; 9.51331E-5
14660.156250; 9.17245E-5
14666.015625; 9.81439E-5
14671.875000; 1.01006E-4
14677.734375; 1.00456E-4
14683.593750; 9.82153E-5
14689.453125; 1.04252E-4
14695.312500; 9.86256E-5
14701.171875; 9.87799E-5
14707.031250; 9.12410E-5
14712.890625; 9.91567E-5
14718.750000; 9.92975E-5
14724.609375; 7.97211E-5
14730.468750; 8.94701E-5
14736.328125; 9.68503E-5
14742.187500; 9.23233E-5
14748.046875; 8.59922E-5
14753.906250; 1.01212E-4
14759.765625; 9.25449E-5
14765.625000; 9.10651E-5
14771.484375; 9.62288E-5
14777.343750; 9.44561E-5
14783.203125; 1.00525E-4
14789.062500; 1.05250E-4
14794.921875; 1.00799E-4
14800.781250; 9.51193E-5
14806.640625; 9.37399E-5
14812.500000; 1.01076E-4
14818.359375; 9.70340E-5
14824.218750; 9.84573E-5
14830.078125; 1.02736E-4
14835.937500; 9.42131E-5
14841.796875; 1.01483E-4
14847.656250; 1.12920E-4
14853.515625; 1.01711E-4
14859.375000; 9.43893E-5
14865.234375; 9.88608E-5
14871.093750; 1.02350E-4
14876.953125; 1.11524E-4
14882.812500; 1.10747E-4
14888.671875; 1.09981E-4
14894.531250; 1.06416E-4
14900.390625; 1.06951E-4
14906.250000; 1.04604E-4
14912.109375; 9.80811E-5
14917.968750; 9.24610E-5
14923.828125; 9.24145E-5
14929.687500; 9.95361E-5
14935.546875; 9.62644E-5
14941.406250; 8.47646E-5
14947.265625; 9.31289E-5
14953.125000; 9.94456E-5
14958.984375; 1.05891E-4
14964.843750; 1.04684E-4
14970.703125; 9.97085E-5
14976.562500; 1.05432E-4
14982.421875; 9.26740E-5
14988.281250; 9.89376E-5
14994.140625; 9.84111E-5
15000.000000; 9.17019E-5
15005.859375; 9.27143E-5
15011.718750; 9.64603E-5
15017.578125; 1.08222E-4
15023.437500; 1.15353E-4
15029.296875; 1.05403E-4
15035.156250; 1.10300E-4
15041.015625; 1.02007E-4
15046.875000; 1.04160E-4
15052.734375; 1.02647E-4
15058.593750; 1.02168E-4
15064.453125; 9.79049E-5
15070.312500; 1.01119E-4
15076.171875; 8.98350E-5
15082.031250; 8.81782E-5
15087.890625; 9.07019E-5
15093.750000; 9.47723E-5
15099.609375; 9.82837E-5
15105.468750; 1.07987E-4
15111.328125; 1.11490E-4
15117.187500; 1.03712E-4
15123.046875; 8.73958E-5
15128.906250; 9.57011E-5
15134.765625; 9.97191E-5
15140.625000; 1.05246E-4
15146.484375; 1.04969E-4
15152.343750; 9.78178E-5
15158.203125; 8.79529E-5
15164.062500; 1.01286E-4
15169.921875; 9.25417E-5
15175.781250; 9.14413E-5
15181.640625; 9.87355E-5
15187.500000; 9.93300E-5
15193.359375; 1.03969E-4
15199.218750; 9.98258E-5
15205.078125; 9.75847E-5
15210.937500; 8.74295E-5
15216.796875; 8.89822E-5
15222.656250; 1.01002E-4
15228.515625; 9.91630E-5
15234.375000; 8.94193E-5
15240.234375; 9.30390E-5
15246.093750; 9.72366E-5
15251.953125; 9.78196E-5
15257.812500; 1.07024E-4
15263.671875; 1.00450E-4
15269.531250; 9.88951E-5
15275.390625; 1.02208E-4
15281.250000; 1.03294E-4
15287.109375; 1.04970E-4
15292.968750; 1.11167E-4
15298.828125; 1.00911E-4
15304.687500; 9.55291E-5
15310.546875; 9.29001E-5
15316.406250; 9.99573E-5
15322.265625; 1.08443E-4
15328.125000; 9.59836E-5
15333.984375; 1.02035E-4
15339.843750; 1.02261E-4
15345.703125; 9.64989E-5
15351.562500; 9.73273E-5
15357.421875; 9.45648E-5
15363.281250; 9.25214E-5
15369.140625; 9.43138E-5
15375.000000; 1.01907E-4
15380.859375; 1.06889E-4
15386.718750; 9.85584E-5
15392.578125; 1.00402E-4
15398.437500; 9.32428E-5
15404.296875; 1.07588E-4
15410.156250; 1.08825E-4
15416.015625; 1.03848E-4
15421.875000; 9.90791E-5
15427.734375; 1.01289E-4
15433.593750; 1.02099E-4
15439.453125; 1.09250E-4
15445.312500; 9.26952E-5
15451.171875; 8.92523E-5
15457.031250; 9.97428E-5
15462.890625; 1.10022E-4
15468.750000; 1.08596E-4
15474.609375; 9.71067E-5
15480.468750; 1.03119E-4
15486.328125; 1.08960E-4
15492.187500; 9.93168E-5
15498.046875; 1.00854E-4
15503.906250; 9.60557E-5
15509.765625; 8.76269E-5
15515.625000; 1.00968E-4
15521.484375; 1.09929E-4
15527.343750; 1.08185E-4
15533.203125; 1.03350E-4
15539.062500; 9.11633E-5
15544.921875; 8.92632E-5
15550.781250; 9.83387E-5
15556.640625; 1.03389E-4
15562.500000; 9.41606E-5
15568.359375; 1.00607E-4
15574.218750; 1.02817E-4
15580.078125; 9.33911E-5
15585.937500; 9.99802E-5
15591.796875; 9.59943E-5
15597.656250; 9.72665E-5
15603.515625; 9.71272E-5
15609.375000; 9.80866E-5
15615.234375; 9.38898E-5
15621.093750; 9.76057E-5
15626.953125; 1.06163E-4
15632.812500; 9.85079E-5
15638.671875; 1.02372E-4
15644.531250; 1.08838E-4
15650.390625; 1.01865E-4
15656.250000; 9.21874E-5
15662.109375; 9.41707E-5
15667.968750; 9.76861E-5
15673.828125; 1.00780E-4
15679.687500; 9.91172E-5
15685.546875; 9.84721E-5
15691.406250; 9.60281E-5
15697.265625; 1.04550E-4
15703.125000; 9.82369E-5
15708.984375; 9.79421E-5
15714.843750; 1.07502E-4
15720.703125; 1.08764E-4
15726.562500; 1.02319E-4
15732.421875; 1.05282E-4
15738.281250; 1.01322E-4
15744.140625; 1.04911E-4
15750.000000; 1.00511E-4
15755.859375; 8.98086E-5
15761.718750; 9.43225E-5
15767.578125; 9.16203E-5
15773.437500; 8.73102E-5
15779.296875; 1.01428E-4
15785.156250; 1.01251E-4
15791.015625; 1.02613E-4
15796.875000; 1.00116E-4
15802.734375; 1.07199E-4
15808.593750; 1.06786E-4
15814.453125; 1.02634E-4
15820.312500; 9.98261E-5
15826.171875; 8.98845E-5
15832.031250; 9.51234E-5
15837.890625; 1.12576E-4
15843.750000; 1.09343E-4
15849.609375; 9.81461E-5
15855.468750; 9.50695E-5
15861.328125; 9.65050E-5
15867.187500; 9.65326E-5
15873.046875; 9.89099E-5
15878.906250; 1.05615E-4
15884.765625; 9.92568E-5
15890.625000; 9.41405E-5
15896.484375; 9.28970E-5
15902.343750; 9.30726E-5
15908.203125; 1.01685E-4
15914.062500; 9.98271E-5
15919.921875; 9.95046E-5
15925.781250; 1.01328E-4
15931.640625; 1.03957E-4
15937.500000; 1.00218E-4
15943.359375; 9.98775E-5
15949.218750; 1.07343E-4
15955.078125; 1.08171E-4
15960.937500; 9.90640E-5
15966.796875; 1.05628E-4
15972.656250; 1.04682E-4
15978.515625; 1.05262E-4
15984.375000; 9.51480E-5
15990.234375; 9.26842E-5
15996.093750; 1.03255E-4
16001.953125; 9.49662E-5
16007.812500; 8.18067E-5
16013.671875; 1.00665E-4
16019.531250; 1.06225E-4
16025.390625; 8.69395E-5
16031.250000; 8.80231E-5
16037.109375; 8.57791E-5
16042.968750; 7.86867E-5
16048.828125; 9.70552E-5
16054.687500; 8.92296E-5
16060.546875; 8.69139E-5
16066.406250; 1.06957E-4
16072.265625; 1.17899E-4
16078.125000; 1.09631E-4
16083.984375; 1.06861E-4
16089.843750; 9.60995E-5
16095.703125; 9.08501E-5
16101.562500; 9.33329E-5
16107.421875; 8.90377E-5
16113.281250; 9.22082E-5
16119.140625; 1.02591E-4
16125.000000; 9.12001E-5
16130.859375; 8.78195E-5
16136.718750; 9.97382E-5
16142.578125; 1.06049E-4
16148.437500; 9.77150E-5
16154.296875; 9.60414E-5
16160.156250; 9.49177E-5
16166.015625; 9.79968E-5
16171.875000; 9.56499E-5
16177.734375; 9.21548E-5
16183.593750; 1.10545E-4
16189.453125; 1.06956E-4
16195.312500; 1.02406E-4
16201.171875; 8.76628E-5
16207.031250; 7.74942E-5
16212.890625; 8.88973E-5
16218.750000; 9.86635E-5
16224.609375; 9.07906E-5
16230.468750; 9.01881E-5
16236.328125; 9.42195E-5
16242.187500; 9.60911E-5
16248.046875; 9.94518E-5
16253.906250; 8.90502E-5
16259.765625; 9.75960E-5
16265.625000; 9.27977E-5
16271.484375; 8.92008E-5
16277.343750; 9.48133E-5
16283.203125; 9.36446E-5
16289.062500; 8.55128E-5
16294.921875; 9.47494E-5
16300.781250; 9.84716E-5
16306.640625; 9.82089E-5
16312.500000; 9.44535E-5
16318.359375; 9.60810E-5
16324.218750; 8.58409E-5
16330.078125; 9.94322E-5
16335.937500; 1.06036E-4
16341.796875; 8.71001E-5
16347.656250; 9.48674E-5
16353.515625; 1.00737E-4
16359.375000; 9.91432E-5
16365.234375; 1.04633E-4
16371.093750; 1.09072E-4
16376.953125; 1.16553E-4
16382.812500; 1.11436E-4
16388.671875; 1.08226E-4
16394.531250; 1.03446E-4
16400.390625; 1.08079E-4
16406.250000; 1.02828E-4
16412.109375; 9.67720E-5
16417.968750; 9.95286E-5
16423.828125; 1.09152E-4
16429.687500; 1.04049E-4
16435.546875; 1.00573E-4
16441.406250; 1.02696E-4
16447.265625; 9.13873E-5
16453.125000; 1.02787E-4
16458.984375; 9.67366E-5
16464.843750; 9.52036E-5
16470.703125; 9.42139E-5
16476.562500; 9.55513E-5
16482.421875; 9.65503E-5
16488.281250; 9.75901E-5
16494.140625; 1.03476E-4
16500.000000; 1.02381E-4
16505.859375; 9.30478E-5
16511.718750; 1.00355E-4
16517.578125; 1.06329E-4
16523.437500; 1.08684E-4
16529.296875; 9.68522E-5
16535.156250; 1.02790E-4
16541.015625; 1.12166E-4
16546.875000; 1.02095E-4
16552.734375; 9.95242E-5
16558.593750; 1.00012E-4
16564.453125; 9.64338E-5
16570.312500; 1.04844E-4
16576.171875; 1.09939E-4
16582.031250; 1.03928E-4
16587.890625; 1.02674E-4
16593.750000; 9.51448E-5
16599.609375; 9.39888E-5
16605.468750; 9.28659E-5
16611.328125; 1.01877E-4
16617.187500; 1.04379E-4
16623.046875; 1.04330E-4
16628.906250; 9.76443E-5
16634.765625; 9.63774E-5
16640.625000; 9.79524E-5
16646.484375; 9.76422E-5
16652.343750; 9.66137E-5
16658.203125; 9.64564E-5
16664.062500; 1.00025E-4
16669.921875; 1.03991E-4
16675.781250; 9.13062E-5
16681.640625; 9.34763E-5
16687.500000; 9.47232E-5
16693.359375; 1.10153E-4
16699.218750; 1.06842E-4
16705.078125; 1.01038E-4
16710.937500; 9.51150E-5
16716.796875; 1.05232E-4
16722.656250; 1.02160E-4
16728.515625; 1.03062E-4
16734.375000; 1.01576E-4
16740.234375; 1.11985E-4
16746.093750; 1.16307E-4
16751.953125; 1.05275E-4
16757.812500; 1.02248E-4
16763.671875; 1.03455E-4
16769.531250; 1.04480E-4
16775.390625; 1.11453E-4
16781.250000; 9.76555E-5
16787.109375; 8.99948E-5
16792.968750; 9.24132E-5
16798.828125; 9.18965E-5
16804.687500; 8.68765E-5
16810.546875; 1.03753E-4
16816.406250; 1.03496E-4
16822.265625; 9.50879E-5
16828.125000; 8.42469E-5
16833.984375; 8.91704E-5
16839.843750; 1.00430E-4
16845.703125; 1.02281E-4
16851.562500; 1.02522E-4
16857.421875; 1.01617E-4
16863.281250; 1.01763E-4
16869.140625; 1.03425E-4
16875.000000; 1.05070E-4
16880.859375; 1.07149E-4
16886.718750; 1.07181E-4
16892.578125; 1.11765E-4
16898.437500; 1.06995E-4
16904.296875; 1.00783E-4
16910.156250; 9.09106E-5
16916.015625; 8.80892E-5
16921.875000; 9.69713E-5
16927.734375; 9.45801E-5
16933.593750; 1.03613E-4
16939.453125; 1.01947E-4
16945.312500; 1.01899E-4
16951.171875; 1.00297E-4
16957.031250; 1.05758E-4
16962.890625; 1.00774E-4
16968.750000; 9.83113E-5
16974.609375; 1.07077E-4
16980.468750; 1.07888E-4
16986.328125; 1.16726E-4
16992.187500; 1.01103E-4
16998.046875; 9.64403E-5
17003.906250; 9.57666E-5
17009.765625; 1.05575E-4
17015.625000; 9.74485E-5
17021.484375; 9.49118E-5
17027.343750; 1.00722E-4
17033.203125; 1.00273E-4
17039.062500; 9.99399E-5
17044.921875; 9.63283E-5
17050.781250; 9.25784E-5
17056.640625; 9.02688E-5
17062.500000; 9.97924E-5
17068.359375; 9.90591E-5
17074.218750; 9.17089E-5
17080.078125; 9.83724E-5
17085.937500; 9.39080E-5
17091.796875; 1.03787E-4
17097.656250; 1.02702E-4
17103.515625; 9.58985E-5
17109.375000; 1.00587E-4
17115.234375; 1.05445E-4
17121.093750; 9.22483E-5
17126.953125; 1.04809E-4
17132.812500; 1.00013E-4
17138.671875; 9.19006E-5
17144.531250; 8.86523E-5
17150.390625; 1.00385E-4
17156.250000; 1.04450E-4
17162.109375; 1.00205E-4
17167.968750; 9.55467E-5
17173.828125; 1.01152E-4
17179.687500; 1.07333E-4
17185.546875; 1.07693E-4
17191.406250; 1.01859E-4
17197.265625; 1.02584E-4
17203.125000; 9.04523E-5
17208.984375; 8.76251E-5
17214.843750; 9.13662E-5
17220.703125; 9.13562E-5
17226.562500; 8.12689E-5
17232.421875; 9.86365E-5
17238.281250; 9.66355E-5
17244.140625; 1.00447E-4
17250.000000; 1.02809E-4
17255.859375; 1.04701E-4
17261.718750; 1.03541E-4
17267.578125; 1.02405E-4
17273.437500; 8.78839E-5
17279.296875; 9.48601E-5
17285.156250; 1.01309E-4
17291.015625; 8.67252E-5
17296.875000; 9.27444E-5
17302.734375; 1.01505E-4
17308.593750; 1.00533E-4
17314.453125; 1.07960E-4
17320.312500; 9.83810E-5
17326.171875; 9.05412E-5
17332.031250; 1.07124E-4
17337.890625; 1.01659E-4
17343.750000; 9.49380E-5
17349.609375; 8.79137E-5
17355.468750; 1.02402E-4
17361.328125; 1.09610E-4
17367.187500; 9.96799E-5
17373.046875; 9.52924E-5
17378.906250; 8.27330E-5
17384.765625; 8.04699E-5
17390.625000; 8.81189E-5
17396.484375; 9.74559E-5
17402.343750; 1.05659E-4
17408.203125; 1.05736E-4
17414.062500; 1.00919E-4
17419.921875; 1.01943E-4
17425.781250; 1.00402E-4
17431.640625; 9.57635E-5
17437.500000; 1.06618E-4
17443.359375; 1.13735E-4
17449.218750; 9.88125E-5
17455.078125; 8.95329E-5
17460.937500; 9.01252E-5
17466.796875; 9.93865E-5
17472.656250; 9.93674E-5
17478.515625; 9.16049E-5
17484.375000; 9.06384E-5
17490.234375; 9.83565E-5
17496.093750; 1.00988E-4
17501.953125; 1.00023E-4
17507.812500; 1.01769E-4
17513.671875; 9.63045E-5
17519.531250; 9.28842E-5
17525.390625; 1.03158E-4
17531.250000; 1.05595E-4
17537.109375; 9.30047E-5
17542.968750; 8.80750E-5
17548.828125; 9.64747E-5
17554.687500; 8.77655E-5
17560.546875; 8.93639E-5
17566.406250; 1.07576E-4
17572.265625; 9.95518E-5
17578.125000; 8.36622E-5
17583.984375; 1.03900E-4
17589.843750; 1.06614E-4
17595.703125; 9.11653E-5
17601.562500; 9.99241E-5
17607.421875; 9.33742E-5
17613.281250; 9.53387E-5
17619.140625; 1.03423E-4
17625.000000; 9.21461E-5
17630.859375; 1.00001E-4
17636.718750; 1.05376E-4
17642.578125; 1.05446E-4
17648.437500; 9.96540E-5
17654.296875; 9.87842E-5
17660.156250; 8.53190E-5
17666.015625; 9.34130E-5
17671.875000; 9.26952E-5
17677.734375; 1.02390E-4
17683.593750; 1.03548E-4
17689.453125; 9.95426E-5
17695.312500; 9.52095E-5
17701.171875; 1.01443E-4
17707.031250; 9.45719E-5
17712.890625; 9.81946E-5
17718.750000; 9.04450E-5
17724.609375; 9.78124E-5
17730.468750; 1.08810E-4
17736.328125; 1.07450E-4
17742.187500; 9.63454E-5
17748.046875; 8.90593E-5
17753.906250; 9.09641E-5
17759.765625; 8.73099E-5
17765.625000; 1.01005E-4
17771.484375; 9.72133E-5
17777.343750; 9.92067E-5
17783.203125; 9.95034E-5
17789.062500; 1.00144E-4
17794.921875; 9.94665E-5
17800.781250; 9.55660E-5
17806.640625; 1.07535E-4
17812.500000; 1.01082E-4
17818.359375; 9.76260E-5
17824.218750; 1.06397E-4
17830.078125; 9.48655E-5
17835.937500; 1.01206E-4
17841.796875; 1.12151E-4
17847.656250; 1.10033E-4
17853.515625; 9.47572E-5
17859.375000; 9.86819E-5
17865.234375; 9.42754E-5
17871.093750; 9.13934E-5
17876.953125; 9.80090E-5
17882.812500; 1.02715E-4
17888.671875; 1.00692E-4
17894.531250; 1.01770E-4
17900.390625; 1.05336E-4
17906.250000; 1.07623E-4
17912.109375; 8.91006E-5
17917.968750; 8.77681E-5
17923.828125; 1.04380E-4
17929.687500; 1.12904E-4
17935.546875; 1.04855E-4
17941.406250; 1.07825E-4
17947.265625; 1.07498E-4
17953.125000; 1.03664E-4
17958.984375; 9.23905E-5
17964.843750; 1.05986E-4
17970.703125; 9.70543E-5
17976.562500; 1.00424E-4
17982.421875; 1.03479E-4
17988.281250; 1.11356E-4
17994.140625; 1.17599E-4
18000.000000; 1.11548E-4
18005.859375; 1.05139E-4
18011.718750; 1.01982E-4
18017.578125; 9.36976E-5
18023.437500; 8.96919E-5
18029.296875; 8.77501E-5
18035.156250; 8.80905E-5
18041.015625; 9.62569E-5
18046.875000; 1.02755E-4
18052.734375; 1.02943E-4
18058.593750; 1.01490E-4
18064.453125; 1.03020E-4
18070.312500; 9.92069E-5
18076.171875; 1.09761E-4
18082.031250; 1.06421E-4
18087.890625; 9.01029E-5
18093.750000; 8.02542E-5
18099.609375; 9.38521E-5
18105.468750; 1.04779E-4
18111.328125; 1.01244E-4
18117.187500; 9.72019E-5
18123.046875; 9.23988E-5
18128.906250; 1.04040E-4
18134.765625; 9.85561E-5
18140.625000; 9.85738E-5
18146.484375; 9.34616E-5
18152.343750; 9.36121E-5
18158.203125; 1.08495E-4
18164.062500; 1.06292E-4
18169.921875; 1.01863E-4
18175.781250; 9.60058E-5
18181.640625; 9.90012E-5
18187.500000; 1.00117E-4
18193.359375; 9.47730E-5
18199.218750; 9.46715E-5
18205.078125; 1.03021E-4
18210.937500; 9.85208E-5
18216.796875; 9.63918E-5
18222.656250; 8.87115E-5
18228.515625; 8.02527E-5
18234.375000; 8.97770E-5
18240.234375; 1.05892E-4
18246.093750; 1.08305E-4
18251.953125; 9.78443E-5
18257.812500; 9.09053E-5
18263.671875; 1.04676E-4
18269.531250; 1.02977E-4
18275.390625; 9.82894E-5
18281.250000; 9.72254E-5
18287.109375; 1.08706E-4
18292.968750; 1.11170E-4
18298.828125; 9.32347E-5
18304.687500; 9.40013E-5
18310.546875; 9.52317E-5
18316.406250; 8.82908E-5
18322.265625; 1.00194E-4
18328.125000; 1.01088E-4
18333.984375; 1.07241E-4
18339.843750; 1.02752E-4
18345.703125; 1.04804E-4
18351.562500; 9.84736E-5
18357.421875; 9.92132E-5
18363.281250; 9.54953E-5
18369.140625; 9.11229E-5
18375.000000; 9.46330E-5
18380.859375; 9.60228E-5
18386.718750; 1.00512E-4
18392.578125; 1.07908E-4
18398.437500; 1.01301E-4
18404.296875; 9.50937E-5
18410.156250; 1.05252E-4
18416.015625; 1.00048E-4
18421.875000; 9.32815E-5
18427.734375; 9.46324E-5
18433.593750; 1.01065E-4
18439.453125; 1.01027E-4
18445.312500; 1.09011E-4
18451.171875; 1.09195E-4
18457.031250; 9.60169E-5
18462.890625; 9.23602E-5
18468.750000; 9.25433E-5
18474.609375; 9.02460E-5
18480.468750; 9.83247E-5
18486.328125; 1.07645E-4
18492.187500; 1.00547E-4
18498.046875; 1.01245E-4
18503.906250; 9.25291E-5
18509.765625; 9.96083E-5
18515.625000; 9.72244E-5
18521.484375; 9.95965E-5
18527.343750; 1.06038E-4
18533.203125; 1.08217E-4
18539.062500; 1.04581E-4
18544.921875; 1.12261E-4
18550.781250; 1.13326E-4
18556.640625; 1.03665E-4
18562.500000; 9.69118E-5
18568.359375; 9.64352E-5
18574.218750; 9.30976E-5
18580.078125; 9.26722E-5
18585.937500; 8.70086E-5
18591.796875; 8.60782E-5
18597.656250; 9.40831E-5
18603.515625; 1.02509E-4
18609.375000; 1.03307E-4
18615.234375; 1.07124E-4
18621.093750; 9.90178E-5
18626.953125; 9.94386E-5
18632.812500; 1.04921E-4
18638.671875; 1.04173E-4
18644.531250; 9.18288E-5
18650.390625; 9.42710E-5
18656.250000; 9.46411E-5
18662.109375; 9.88348E-5
18667.968750; 1.02776E-4
18673.828125; 1.04905E-4
18679.687500; 8.73280E-5
18685.546875; 8.18448E-5
18691.406250; 9.79936E-5
18697.265625; 9.73685E-5
18703.125000; 1.01186E-4
18708.984375; 1.02463E-4
18714.843750; 9.73752E-5
18720.703125; 9.14245E-5
18726.562500; 9.58295E-5
18732.421875; 9.94710E-5
18738.281250; 9.85165E-5
18744.140625; 9.10630E-5
18750.000000; 9.74945E-5
18755.859375; 1.04113E-4
18761.718750; 9.93176E-5
18767.578125; 1.04787E-4
18773.437500; 1.03747E-4
18779.296875; 1.00873E-4
18785.156250; 9.56347E-5
18791.015625; 9.70223E-5
18796.875000; 9.20419E-5
18802.734375; 9.19938E-5
18808.593750; 1.10214E-4
18814.453125; 9.44680E-5
18820.312500; 9.41075E-5
18826.171875; 8.92940E-5
18832.031250; 8.70288E-5
18837.890625; 9.99291E-5
18843.750000; 1.10281E-4
18849.609375; 9.45920E-5
18855.468750; 9.24072E-5
18861.328125; 9.69546E-5
18867.187500; 8.58109E-5
18873.046875; 8.91500E-5
18878.906250; 9.18240E-5
18884.765625; 9.79824E-5
18890.625000; 1.04168E-4
18896.484375; 1.16535E-4
18902.343750; 1.14441E-4
18908.203125; 9.78659E-5
18914.062500; 9.49662E-5
18919.921875; 1.00396E-4
18925.781250; 1.04660E-4
18931.640625; 1.02480E-4
18937.500000; 9.56831E-5
18943.359375; 8.45806E-5
18949.218750; 7.91952E-5
18955.078125; 9.02610E-5
18960.937500; 8.75023E-5
18966.796875; 8.12681E-5
18972.656250; 9.60052E-5
18978.515625; 9.67003E-5
18984.375000; 9.66709E-5
18990.234375; 9.54196E-5
18996.093750; 9.33170E-5
19001.953125; 1.06521E-4
19007.812500; 1.02018E-4
19013.671875; 8.74814E-5
19019.531250; 1.01660E-4
19025.390625; 1.01492E-4
19031.250000; 1.01797E-4
19037.109375; 9.89079E-5
19042.968750; 1.02644E-4
19048.828125; 1.00557E-4
19054.687500; 1.10737E-4
19060.546875; 1.01699E-4
19066.406250; 1.02675E-4
19072.265625; 1.08302E-4
19078.125000; 9.52945E-5
19083.984375; 9.80353E-5
19089.843750; 1.08443E-4
19095.703125; 1.02801E-4
19101.562500; 9.79265E-5
19107.421875; 9.71056E-5
19113.281250; 9.63943E-5
19119.140625; 9.32782E-5
19125.000000; 9.62383E-5
19130.859375; 9.93694E-5
19136.718750; 1.04986E-4
19142.578125; 1.10925E-4
19148.437500; 9.88912E-5
19154.296875; 9.73373E-5
19160.156250; 1.01416E-4
19166.015625; 9.44180E-5
19171.875000; 9.41645E-5
19177.734375; 9.70228E-5
19183.593750; 9.41817E-5
19189.453125; 8.75621E-5
19195.312500; 9.02381E-5
19201.171875; 9.78275E-5
19207.031250; 9.51442E-5
19212.890625; 1.00594E-4
19218.750000; 9.51898E-5
19224.609375; 9.28657E-5
19230.468750; 1.05956E-4
19236.328125; 9.77214E-5
19242.187500; 8.38756E-5
19248.046875; 9.14464E-5
19253.906250; 8.69517E-5
19259.765625; 9.57424E-5
19265.625000; 9.96611E-5
19271.484375; 9.89194E-5
19277.343750; 1.03112E-4
19283.203125; 1.13631E-4
19289.062500; 9.97962E-5
19294.921875; 1.03144E-4
19300.781250; 1.04414E-4
19306.640625; 9.69584E-5
19312.500000; 9.36246E-5
19318.359375; 8.90644E-5
19324.218750; 1.00864E-4
19330.078125; 9.81514E-5
19335.937500; 9.63803E-5
19341.796875; 9.21669E-5
19347.656250; 9.72706E-5
19353.515625; 9.80844E-5
19359.375000; 9.47143E-5
19365.234375; 1.06918E-4
19371.093750; 1.02928E-4
19376.953125; 1.01088E-4
19382.812500; 9.94465E-5
19388.671875; 9.85180E-5
19394.531250; 8.33524E-5
19400.390625; 8.65929E-5
19406.250000; 8.58465E-5
19412.109375; 9.27950E-5
19417.968750; 9.21831E-5
19423.828125; 9.81014E-5
19429.687500; 9.32340E-5
19435.546875; 9.76066E-5
19441.406250; 9.33414E-5
19447.265625; 1.02967E-4
19453.125000; 9.63683E-5
19458.984375; 9.26361E-5
19464.843750; 9.41749E-5
19470.703125; 1.02613E-4
19476.562500; 1.01790E-4
19482.421875; 1.02914E-4
19488.281250; 1.06077E-4
19494.140625; 1.04130E-4
19500.000000; 1.03401E-4
19505.859375; 1.02353E-4
19511.718750; 9.25253E-5
19517.578125; 1.01147E-4
19523.437500; 9.66670E-5
19529.296875; 8.62882E-5
19535.156250; 9.10865E-5
19541.015625; 9.65760E-5
19546.875000; 1.02747E-4
19552.734375; 8.92120E-5
19558.593750; 8.20914E-5
19564.453125; 8.96066E-5
19570.312500; 9.64375E-5
19576.171875; 9.66573E-5
19582.031250; 1.00766E-4
19587.890625; 1.09771E-4
19593.750000; 9.83754E-5
19599.609375; 9.55983E-5
19605.468750; 1.02527E-4
19611.328125; 9.90245E-5
19617.187500; 9.02738E-5
19623.046875; 1.01444E-4
19628.906250; 9.83119E-5
19634.765625; 9.35830E-5
19640.625000; 8.71890E-5
19646.484375; 8.62311E-5
19652.343750; 8.88940E-5
19658.203125; 1.01284E-4
19664.062500; 9.95420E-5
19669.921875; 9.30979E-5
19675.781250; 9.09159E-5
19681.640625; 9.68631E-5
19687.500000; 9.45981E-5
19693.359375; 9.31229E-5
19699.218750; 9.69272E-5
19705.078125; 9.51771E-5
19710.937500; 9.41490E-5
19716.796875; 9.04762E-5
19722.656250; 9.26221E-5
19728.515625; 9.34901E-5
19734.375000; 9.69517E-5
19740.234375; 9.60406E-5
19746.093750; 9.45150E-5
19751.953125; 8.22588E-5
19757.812500; 1.00144E-4
19763.671875; 1.02388E-4
19769.531250; 9.65971E-5
19775.390625; 9.53197E-5
19781.250000; 9.90478E-5
19787.109375; 1.05434E-4
19792.968750; 9.95029E-5
19798.828125; 9.01865E-5
19804.687500; 9.74680E-5
19810.546875; 1.05156E-4
19816.406250; 8.76513E-5
19822.265625; 9.00222E-5
19828.125000; 9.69698E-5
19833.984375; 1.03456E-4
19839.843750; 1.10228E-4
19845.703125; 1.01548E-4
19851.562500; 1.03173E-4
19857.421875; 9.60428E-5
19863.281250; 9.35848E-5
19869.140625; 1.01732E-4
19875.000000; 9.19769E-5
19880.859375; 8.85047E-5
19886.718750; 8.47421E-5
19892.578125; 9.52563E-5
19898.437500; 1.00644E-4
19904.296875; 9.86779E-5
19910.156250; 9.53766E-5
19916.015625; 8.96968E-5
19921.875000; 9.50736E-5
19927.734375; 9.96589E-5
19933.593750; 1.03901E-4
19939.453125; 1.03529E-4
19945.312500; 1.01829E-4
19951.171875; 9.93191E-5
19957.031250; 9.29575E-5
19962.890625; 9.34435E-5
19968.750000; 9.73451E-5
19974.609375; 8.85352E-5
19980.468750; 9.85794E-5
19986.328125; 9.99645E-5
19992.187500; 1.00056E-4
19998.046875; 1.08409E-4
20003.906250; 1.04243E-4
20009.765625; 1.02975E-4
20015.625000; 1.01478E-4
20021.484375; 8.48738E-5
20027.343750; 9.51301E-5
20033.203125; 9.60510E-5
20039.062500; 1.07493E-4
20044.921875; 1.04260E-4
20050.781250; 1.10361E-4
20056.640625; 1.11899E-4
20062.500000; 9.84560E-5
20068.359375; 9.65794E-5
20074.218750; 1.01714E-4
20080.078125; 1.03403E-4
20085.937500; 9.52287E-5
20091.796875; 8.63641E-5
20097.656250; 8.60184E-5
20103.515625; 9.92466E-5
20109.375000; 1.01436E-4
20115.234375; 1.00453E-4
20121.093750; 9.09976E-5
20126.953125; 9.84041E-5
20132.812500; 9.69471E-5
20138.671875; 1.00566E-4
20144.531250; 1.13158E-4
20150.390625; 1.07753E-4
20156.250000; 1.02572E-4
20162.109375; 9.25438E-5
20167.968750; 9.54696E-5
20173.828125; 1.07067E-4
20179.687500; 1.07105E-4
20185.546875; 9.94008E-5
20191.406250; 9.35364E-5
20197.265625; 8.62274E-5
20203.125000; 8.99642E-5
20208.984375; 9.84080E-5
20214.843750; 9.75659E-5
20220.703125; 1.06184E-4
20226.562500; 9.88713E-5
20232.421875; 9.88389E-5
20238.281250; 1.05547E-4
20244.140625; 1.01338E-4
20250.000000; 9.81642E-5
20255.859375; 9.30826E-5
20261.718750; 9.27308E-5
20267.578125; 8.85206E-5
20273.437500; 9.71261E-5
20279.296875; 8.96903E-5
20285.156250; 9.22184E-5
20291.015625; 1.04088E-4
20296.875000; 1.05997E-4
20302.734375; 9.94400E-5
20308.593750; 9.56357E-5
20314.453125; 1.00374E-4
20320.312500; 9.81699E-5
20326.171875; 9.95896E-5
20332.031250; 1.05864E-4
20337.890625; 9.33972E-5
20343.750000; 8.84507E-5
20349.609375; 8.79090E-5
20355.468750; 9.16405E-5
20361.328125; 9.96493E-5
20367.187500; 9.67584E-5
20373.046875; 1.06379E-4
20378.906250; 9.77572E-5
20384.765625; 8.89923E-5
20390.625000; 9.32329E-5
20396.484375; 1.01267E-4
20402.343750; 9.66422E-5
20408.203125; 1.00681E-4
20414.062500; 9.77071E-5
20419.921875; 1.06409E-4
20425.781250; 1.03861E-4
20431.640625; 9.47752E-5
20437.500000; 8.88663E-5
20443.359375; 9.24475E-5
20449.218750; 9.85058E-5
20455.078125; 8.39589E-5
20460.937500; 9.11818E-5
20466.796875; 1.08185E-4
20472.656250; 1.09302E-4
20478.515625; 9.01441E-5
20484.375000; 8.44556E-5
20490.234375; 1.00834E-4
20496.093750; 1.04650E-4
20501.953125; 9.37951E-5
20507.812500; 9.32939E-5
20513.671875; 1.01748E-4
20519.531250; 1.00811E-4
20525.390625; 8.68067E-5
20531.250000; 9.96488E-5
20537.109375; 9.35462E-5
20542.968750; 8.66600E-5
20548.828125; 9.52611E-5
20554.687500; 9.82996E-5
20560.546875; 9.71946E-5
20566.406250; 1.00182E-4
20572.265625; 1.10188E-4
20578.125000; 9.67589E-5
20583.984375; 8.47111E-5
20589.843750; 8.49634E-5
20595.703125; 8.65919E-5
20601.562500; 9.05527E-5
20607.421875; 9.70370E-5
20613.281250; 1.00403E-4
20619.140625; 9.36798E-5
20625.000000; 9.11316E-5
20630.859375; 9.00164E-5
20636.718750; 8.79692E-5
20642.578125; 9.64758E-5
20648.437500; 9.92585E-5
20654.296875; 1.00914E-4
20660.156250; 1.06754E-4
20666.015625; 1.03271E-4
20671.875000; 9.57305E-5
20677.734375; 9.08598E-5
20683.593750; 9.43738E-5
20689.453125; 9.94635E-5
20695.312500; 9.12450E-5
20701.171875; 8.86289E-5
20707.031250; 9.39068E-5
20712.890625; 9.68452E-5
20718.750000; 1.01950E-4
20724.609375; 1.01664E-4
20730.468750; 1.03577E-4
20736.328125; 8.69285E-5
20742.187500; 8.32327E-5
20748.046875; 8.79551E-5
20753.906250; 9.89126E-5
20759.765625; 9.23613E-5
20765.625000; 9.96375E-5
20771.484375; 1.08356E-4
20777.343750; 9.33245E-5
20783.203125; 9.24728E-5
20789.062500; 8.43408E-5
20794.921875; 8.38055E-5
20800.781250; 9.53640E-5
20806.640625; 9.97512E-5
20812.500000; 1.00925E-4
20818.359375; 9.72798E-5
20824.218750; 9.27171E-5
20830.078125; 9.70901E-5
20835.937500; 9.02186E-5
20841.796875; 8.70338E-5
20847.656250; 9.72314E-5
20853.515625; 9.89107E-5
20859.375000; 1.00915E-4
20865.234375; 1.06191E-4
20871.093750; 1.00044E-4
20876.953125; 8.97149E-5
20882.812500; 9.14610E-5
20888.671875; 8.96266E-5
20894.531250; 9.66645E-5
20900.390625; 9.54980E-5
20906.250000; 9.56638E-5
20912.109375; 8.44813E-5
20917.968750; 8.97889E-5
20923.828125; 1.01879E-4
20929.687500; 1.01832E-4
20935.546875; 9.68104E-5
20941.406250; 9.84990E-5
20947.265625; 9.97503E-5
20953.125000; 9.87228E-5
20958.984375; 9.15690E-5
20964.843750; 9.44841E-5
20970.703125; 9.08679E-5
20976.562500; 8.69382E-5
20982.421875; 9.47973E-5
20988.281250; 9.67397E-5
20994.140625; 1.07038E-4
21000.000000; 9.22949E-5
21005.859375; 9.31502E-5
21011.718750; 9.55449E-5
21017.578125; 9.46022E-5
21023.437500; 1.00827E-4
21029.296875; 9.50745E-5
21035.156250; 9.58178E-5
21041.015625; 9.78346E-5
21046.875000; 1.03814E-4
21052.734375; 1.02553E-4
21058.593750; 9.20108E-5
21064.453125; 9.81362E-5
21070.312500; 9.33464E-5
21076.171875; 9.17331E-5
21082.031250; 9.96181E-5
21087.890625; 9.39871E-5
21093.750000; 8.28134E-5
21099.609375; 8.01108E-5
21105.468750; 8.40087E-5
21111.328125; 9.84465E-5
21117.187500; 1.08548E-4
21123.046875; 1.02278E-4
21128.906250; 9.37786E-5
21134.765625; 9.20115E-5
21140.625000; 8.81627E-5
21146.484375; 8.36559E-5
21152.343750; 9.40843E-5
21158.203125; 9.87744E-5
21164.062500; 9.55233E-5
21169.921875; 9.19248E-5
21175.781250; 9.92159E-5
21181.640625; 8.93202E-5
21187.500000; 1.02460E-4
21193.359375; 1.06267E-4
21199.218750; 1.04827E-4
21205.078125; 1.00511E-4
21210.937500; 1.05044E-4
21216.796875; 9.70887E-5
21222.656250; 9.50252E-5
21228.515625; 9.21690E-5
21234.375000; 9.87702E-5
21240.234375; 1.03155E-4
21246.093750; 9.63067E-5
21251.953125; 1.03297E-4
21257.812500; 1.04011E-4
21263.671875; 9.73138E-5
21269.531250; 9.62408E-5
21275.390625; 9.58440E-5
21281.250000; 9.28409E-5
21287.109375; 9.06538E-5
21292.968750; 8.64938E-5
21298.828125; 8.70316E-5
21304.687500; 8.19463E-5
21310.546875; 9.27944E-5
21316.406250; 9.47290E-5
21322.265625; 8.28337E-5
21328.125000; 8.81085E-5
21333.984375; 1.04425E-4
21339.843750; 9.45096E-5
21345.703125; 1.03049E-4
21351.562500; 1.13733E-4
21357.421875; 9.91499E-5
21363.281250; 9.36915E-5
21369.140625; 9.05952E-5
21375.000000; 1.09038E-4
21380.859375; 1.05000E-4
21386.718750; 8.85127E-5
21392.578125; 9.58041E-5
21398.437500; 8.05145E-5
21404.296875; 8.58156E-5
21410.156250; 9.57442E-5
21416.015625; 9.15968E-5
21421.875000; 8.52903E-5
21427.734375; 9.16636E-5
21433.593750; 9.98566E-5
21439.453125; 9.40912E-5
21445.312500; 9.56429E-5
21451.171875; 9.54066E-5
21457.031250; 8.01015E-5
21462.890625; 8.38820E-5
21468.750000; 9.36084E-5
21474.609375; 8.68222E-5
21480.468750; 9.11991E-5
21486.328125; 9.17824E-5
21492.187500; 9.09877E-5
21498.046875; 9.57483E-5
21503.906250; 9.66697E-5
21509.765625; 1.12476E-4
21515.625000; 1.04697E-4
21521.484375; 9.38223E-5
21527.343750; 9.65583E-5
21533.203125; 9.94303E-5
21539.062500; 9.93281E-5
21544.921875; 1.10478E-4
21550.781250; 1.09524E-4
21556.640625; 9.63617E-5
21562.500000; 9.07507E-5
21568.359375; 8.87308E-5
21574.218750; 7.67659E-5
21580.078125; 9.19481E-5
21585.937500; 9.86738E-5
21591.796875; 1.00067E-4
21597.656250; 9.22711E-5
21603.515625; 9.52089E-5
21609.375000; 9.90899E-5
21615.234375; 9.63263E-5
21621.093750; 1.01589E-4
21626.953125; 9.78338E-5
21632.812500; 8.69745E-5
21638.671875; 9.02028E-5
21644.531250; 9.71076E-5
21650.390625; 9.34213E-5
21656.250000; 1.01701E-4
21662.109375; 1.08981E-4
21667.968750; 1.02884E-4
21673.828125; 8.94819E-5
21679.687500; 8.89774E-5
21685.546875; 9.47847E-5
21691.406250; 9.91614E-5
21697.265625; 1.05027E-4
21703.125000; 9.74554E-5
21708.984375; 8.84267E-5
21714.843750; 8.90069E-5
21720.703125; 9.14049E-5
21726.562500; 9.55092E-5
21732.421875; 1.01856E-4
21738.281250; 9.82086E-5
21744.140625; 9.39505E-5
21750.000000; 9.82678E-5
21755.859375; 9.21394E-5
21761.718750; 9.08175E-5
21767.578125; 1.01646E-4
21773.437500; 9.82458E-5
21779.296875; 9.87122E-5
21785.156250; 9.68443E-5
21791.015625; 9.54088E-5
21796.875000; 9.97785E-5
21802.734375; 8.86670E-5
21808.593750; 8.86196E-5
21814.453125; 9.70933E-5
21820.312500; 9.65343E-5
21826.171875; 8.63183E-5
21832.031250; 9.00793E-5
21837.890625; 1.07628E-4
21843.750000; 1.05597E-4
21849.609375; 9.52040E-5
21855.468750; 1.05306E-4
21861.328125; 9.41993E-5
21867.187500; 9.15020E-5
21873.046875; 8.95425E-5
21878.906250; 9.78636E-5
21884.765625; 9.81432E-5
21890.625000; 9.42156E-5
21896.484375; 9.05914E-5
21902.343750; 9.88088E-5
21908.203125; 9.78134E-5
21914.062500; 8.57664E-5
21919.921875; 1.02857E-4
21925.781250; 1.01754E-4
21931.640625; 8.99188E-5
21937.500000; 8.88799E-5
21943.359375; 9.13062E-5
21949.218750; 9.70246E-5
21955.078125; 9.27274E-5
21960.937500; 9.58552E-5
21966.796875; 9.57096E-5
21972.656250; 9.27485E-5
21978.515625; 9.04950E-5
21984.375000; 8.33190E-5
21990.234375; 8.73590E-5
21996.093750; 9.82265E-5
22001.953125; 9.98373E-5
22007.812500; 9.75819E-5
22013.671875; 8.65070E-5
22019.531250; 8.51462E-5
22025.390625; 8.77699E-5
22031.250000; 9.63481E-5
22037.109375; 9.81724E-5
22042.968750; 1.05130E-4
22048.828125; 1.02547E-4
22054.687500; 9.14813E-5
22060.546875; 8.98658E-5
22066.406250; 9.62039E-5
22072.265625; 9.11201E-5
22078.125000; 9.14504E-5
22083.984375; 9.07010E-5
22089.843750; 9.41813E-5
22095.703125; 9.21012E-5
22101.562500; 9.94619E-5
22107.421875; 8.62380E-5
22113.281250; 8.59731E-5
22119.140625; 8.67027E-5
22125.000000; 8.75272E-5
22130.859375; 9.45894E-5
22136.718750; 9.35140E-5
22142.578125; 9.66677E-5
22148.437500; 8.53760E-5
22154.296875; 9.35490E-5
22160.156250; 8.88442E-5
22166.015625; 8.66178E-5
22171.875000; 9.45071E-5
22177.734375; 1.06445E-4
22183.593750; 9.94045E-5
22189.453125; 8.80248E-5
22195.312500; 9.00052E-5
22201.171875; 9.63413E-5
22207.031250; 8.74980E-5
22212.890625; 8.68315E-5
22218.750000; 1.05770E-4
22224.609375; 1.06421E-4
22230.468750; 1.05808E-4
22236.328125; 9.73096E-5
22242.187500; 9.45448E-5
22248.046875; 8.69725E-5
22253.906250; 9.07485E-5
22259.765625; 9.69882E-5
22265.625000; 9.44248E-5
22271.484375; 8.91076E-5
22277.343750; 8.70522E-5
22283.203125; 9.56862E-5
22289.062500; 9.07179E-5
22294.921875; 9.43599E-5
22300.781250; 9.51694E-5
22306.640625; 8.96923E-5
22312.500000; 9.42059E-5
22318.359375; 9.41537E-5
22324.218750; 8.97700E-5
22330.078125; 8.69950E-5
22335.937500; 9.17195E-5
22341.796875; 9.36000E-5
22347.656250; 8.28575E-5
22353.515625; 8.73982E-5
22359.375000; 8.93035E-5
22365.234375; 9.23676E-5
22371.093750; 9.85927E-5
22376.953125; 9.36283E-5
22382.812500; 8.86842E-5
22388.671875; 8.42072E-5
22394.531250; 9.01988E-5
22400.390625; 9.98896E-5
22406.250000; 9.55299E-5
22412.109375; 9.32615E-5
22417.968750; 1.03502E-4
22423.828125; 9.09932E-5
22429.687500; 8.65130E-5
22435.546875; 8.25531E-5
22441.406250; 8.66951E-5
22447.265625; 8.06866E-5
22453.125000; 8.92966E-5
22458.984375; 1.02002E-4
22464.843750; 8.77993E-5
22470.703125; 8.26594E-5
22476.562500; 8.82508E-5
22482.421875; 7.60163E-5
22488.281250; 7.94875E-5
22494.140625; 9.01969E-5
22500.000000; 9.00328E-5
22505.859375; 8.57620E-5
22511.718750; 9.22342E-5
22517.578125; 9.46006E-5
22523.437500; 9.16805E-5
22529.296875; 8.50382E-5
22535.156250; 9.13699E-5
22541.015625; 9.60109E-5
22546.875000; 9.67174E-5
22552.734375; 9.67210E-5
22558.593750; 8.56603E-5
22564.453125; 8.08125E-5
22570.312500; 8.86809E-5
22576.171875; 9.64653E-5
22582.031250; 9.22920E-5
22587.890625; 9.20840E-5
22593.750000; 8.42058E-5
22599.609375; 9.13530E-5
22605.468750; 8.29878E-5
22611.328125; 8.67373E-5
22617.187500; 9.91897E-5
22623.046875; 9.24219E-5
22628.906250; 8.14916E-5
22634.765625; 7.82987E-5
22640.625000; 8.19942E-5
22646.484375; 8.18207E-5
22652.343750; 7.67605E-5
22658.203125; 8.14613E-5
22664.062500; 8.00320E-5
22669.921875; 8.22960E-5
22675.781250; 7.99916E-5
22681.640625; 9.03941E-5
22687.500000; 8.13262E-5
22693.359375; 7.53563E-5
22699.218750; 7.69992E-5
22705.078125; 8.10460E-5
22710.937500; 8.33095E-5
22716.796875; 8.19049E-5
22722.656250; 8.61017E-5
22728.515625; 8.53023E-5
22734.375000; 8.38684E-5
22740.234375; 8.07207E-5
22746.093750; 8.15151E-5
22751.953125; 6.82954E-5
22757.812500; 7.93461E-5
22763.671875; 8.35931E-5
22769.531250; 7.89260E-5
22775.390625; 8.26435E-5
22781.250000; 8.35140E-5
22787.109375; 7.76274E-5
22792.968750; 8.19412E-5
22798.828125; 7.91369E-5
22804.687500; 8.11269E-5
22810.546875; 8.72873E-5
22816.406250; 8.22943E-5
22822.265625; 7.47271E-5
22828.125000; 7.15307E-5
22833.984375; 6.74769E-5
22839.843750; 7.62859E-5
22845.703125; 8.66965E-5
22851.562500; 8.38006E-5
22857.421875; 8.13302E-5
22863.281250; 8.15126E-5
22869.140625; 8.10637E-5
22875.000000; 7.46468E-5
22880.859375; 7.85768E-5
22886.718750; 8.57880E-5
22892.578125; 7.73714E-5
22898.437500; 6.98543E-5
22904.296875; 7.85317E-5
22910.156250; 7.66432E-5
22916.015625; 7.07472E-5
22921.875000; 7.73664E-5
22927.734375; 8.00277E-5
22933.593750; 6.89741E-5
22939.453125; 7.16398E-5
22945.312500; 6.98138E-5
22951.171875; 7.34797E-5
22957.031250; 6.85765E-5
22962.890625; 7.23125E-5
22968.750000; 7.43073E-5
22974.609375; 7.82360E-5
22980.468750; 7.60953E-5
22986.328125; 6.88944E-5
22992.187500; 6.46253E-5
22998.046875; 6.39360E-5
23003.906250; 6.54140E-5
23009.765625; 6.96094E-5
23015.625000; 6.79100E-5
23021.484375; 6.75291E-5
23027.343750; 6.62759E-5
23033.203125; 7.23499E-5
23039.062500; 7.29661E-5
23044.921875; 7.16348E-5
23050.781250; 6.63215E-5
23056.640625; 7.39865E-5
23062.500000; 7.58815E-5
23068.359375; 6.24283E-5
23074.218750; 6.63283E-5
23080.078125; 6.68579E-5
23085.937500; 6.55044E-5
23091.796875; 6.66921E-5
23097.656250; 6.94705E-5
23103.515625; 6.56424E-5
23109.375000; 6.24259E-5
23115.234375; 5.90566E-5
23121.093750; 6.06740E-5
23126.953125; 6.40981E-5
23132.812500; 6.02373E-5
23138.671875; 6.42672E-5
23144.531250; 6.94885E-5
23150.390625; 6.53352E-5
23156.250000; 6.56045E-5
23162.109375; 6.41301E-5
23167.968750; 6.07218E-5
23173.828125; 6.17727E-5
23179.687500; 6.41935E-5
23185.546875; 5.78980E-5
23191.406250; 5.75286E-5
23197.265625; 6.02518E-5
23203.125000; 6.08323E-5
23208.984375; 6.50728E-5
23214.843750; 6.74414E-5
23220.703125; 6.42288E-5
23226.562500; 5.81838E-5
23232.421875; 5.15061E-5
23238.281250; 5.47002E-5
23244.140625; 5.74650E-5
23250.000000; 5.90059E-5
23255.859375; 5.94089E-5
23261.718750; 5.96143E-5
23267.578125; 5.83044E-5
23273.437500; 6.66208E-5
23279.296875; 6.36204E-5
23285.156250; 5.92138E-5
23291.015625; 5.65547E-5
23296.875000; 6.24204E-5
23302.734375; 6.17963E-5
23308.593750; 5.85747E-5
23314.453125; 5.58619E-5
23320.312500; 5.23729E-5
23326.171875; 6.07158E-5
23332.031250; 6.15004E-5
23337.890625; 5.78969E-5
23343.750000; 5.49115E-5
23349.609375; 5.76974E-5
23355.468750; 4.91687E-5
23361.328125; 4.99969E-5
23367.187500; 5.19990E-5
23373.046875; 5.02260E-5
23378.906250; 4.73778E-5
23384.765625; 4.78356E-5
23390.625000; 5.07932E-5
23396.484375; 5.01719E-5
23402.343750; 5.24117E-5
23408.203125; 4.99519E-5
23414.062500; 5.29966E-5
23419.921875; 5.13985E-5
23425.781250; 4.48087E-5
23431.640625; 4.96891E-5
23437.500000; 5.50591E-5
23443.359375; 5.59201E-5
23449.218750; 5.23747E-5
23455.078125; 5.06693E-5
23460.937500; 4.84231E-5
23466.796875; 4.58521E-5
23472.656250; 4.51497E-5
23478.515625; 4.84092E-5
23484.375000; 5.14812E-5
23490.234375; 4.64637E-5
23496.093750; 5.05012E-5
23501.953125; 5.21499E-5
23507.812500; 4.49803E-5
23513.671875; 4.54252E-5
23519.531250; 4.58191E-5
23525.390625; 4.41572E-5
23531.250000; 4.11656E-5
23537.109375; 4.07796E-5
23542.968750; 4.86829E-5
23548.828125; 4.59868E-5
23554.687500; 4.10132E-5
23560.546875; 4.87288E-5
23566.406250; 4.75728E-5
23572.265625; 3.77940E-5
23578.125000; 3.65376E-5
23583.984375; 4.30112E-5
23589.843750; 4.64035E-5
23595.703125; 4.43476E-5
23601.562500; 4.32689E-5
23607.421875; 3.99713E-5
23613.281250; 3.66621E-5
23619.140625; 3.51755E-5
23625.000000; 3.90651E-5
23630.859375; 4.18380E-5
23636.718750; 4.22026E-5
23642.578125; 3.96351E-5
23648.437500; 4.33651E-5
23654.296875; 3.88307E-5
23660.156250; 3.75482E-5
23666.015625; 3.84232E-5
23671.875000; 3.73990E-5
23677.734375; 3.95990E-5
23683.593750; 4.01695E-5
23689.453125; 3.64029E-5
23695.312500; 4.22245E-5
23701.171875; 4.12015E-5
23707.031250; 3.99574E-5
23712.890625; 4.00767E-5
23718.750000; 3.61513E-5
23724.609375; 4.28111E-5
23730.468750; 4.24070E-5
23736.328125; 4.15599E-5
23742.187500; 3.62045E-5
23748.046875; 3.51966E-5
23753.906250; 3.91769E-5
23759.765625; 3.59140E-5
23765.625000; 3.38496E-5
23771.484375; 3.45521E-5
23777.343750; 3.90393E-5
23783.203125; 3.79806E-5
23789.062500; 3.40296E-5
23794.921875; 3.15820E-5
23800.781250; 3.20661E-5
23806.640625; 3.27252E-5
23812.500000; 3.49388E-5
23818.359375; 3.72649E-5
23824.218750; 3.62559E-5
23830.078125; 3.54132E-5
23835.937500; 3.42041E-5
23841.796875; 3.75889E-5
23847.656250; 3.81206E-5
23853.515625; 3.84477E-5
23859.375000; 3.46402E-5
23865.234375; 3.45802E-5
23871.093750; 3.37819E-5
23876.953125; 3.51935E-5
23882.812500; 3.41036E-5
23888.671875; 3.26953E-5
23894.531250; 3.30453E-5
23900.390625; 3.34141E-5
23906.250000; 3.43559E-5
23912.109375; 3.30443E-5
23917.968750; 3.54126E-5
23923.828125; 3.49679E-5
23929.687500; 3.55087E-5
23935.546875; 3.49952E-5
23941.406250; 3.23778E-5
23947.265625; 3.21360E-5
23953.125000; 3.15872E-5
23958.984375; 3.02761E-5
23964.843750; 3.26158E-5
23970.703125; 3.54256E-5
23976.562500; 3.51753E-5
23982.421875; 3.24005E-5
23988.281250; 3.76069E-5
23994.140625; 3.24479E-5
