* Measurement data measured by REW V5.31.3
* Source: PCM: default, no input selected, 2, volume: no control
* Format: 8192-point spectrum using Hann window and exponential averaging 0.97 
* Dated: Mar 9, 2025 1:22:23 PM
* REW Settings:
*  C-weighting compensation: Off
*  Target level: 75.0 dB
* Note: OSDEHA MU-OUTPUT; 8192-point spectrum using Hann window and exponential averaging 0.97  Input RMS 1.333 V 1.333 VC, 1.333 VA 1.333 V 22 - 22k UNW 947.8 uV >22k Distortion at 1,000.0 Hz, -37.50 dBFS: Gain: 29.68 dB THD: 0.037 % based on 21 harmonics  [0..22800 Hz] HHD: 0.029 %  [10 .. 22] N: 1.06 %  [0..22800 Hz] N+D: 4.358 mV A THD+N: 1.06 %  [0..22800 Hz] SNR: 39.5 dB ENOB: 13.0 bits 2nd harmonic 0.0083 % 78 deg 3rd harmonic 0.0076 % -84 deg 4th harmonic 0.0080 % -52 deg 5th harmonic 0.0078 % 22 deg 6th harmonic 0.0086 % 68 deg 7th harmonic 0.0079 % 48 deg 8th harmonic 0.0085 % -141 deg 9th harmonic 0.0078 % -116 deg 
* Measurement: OSDEHA MU-OUT 1.33V
* Smoothing: None
* Frequency Step: 5.859375 Hz
* Start Frequency: 5.859375 Hz
*
* Freq(Hz); V(V)
5.859375; 1.97203E-4
11.718750; 2.39857E-4
17.578125; 2.10860E-4
23.437500; 1.55832E-4
29.296875; 1.52479E-4
35.156250; 1.35920E-4
41.015625; 1.51157E-4
46.875000; 3.12278E-4
52.734375; 3.03482E-4
58.593750; 1.47744E-4
64.453125; 1.41808E-4
70.312500; 1.56507E-4
76.171875; 1.53025E-4
82.031250; 1.53698E-4
87.890625; 1.77660E-4
93.750000; 5.85228E-3
99.609375; 1.28911E-2
105.468750; 7.09739E-3
111.328125; 2.13876E-4
117.187500; 1.56992E-4
123.046875; 1.54795E-4
128.906250; 1.35533E-4
134.765625; 1.33330E-4
140.625000; 1.45426E-4
146.484375; 1.57515E-4
152.343750; 1.44385E-4
158.203125; 1.23376E-4
164.062500; 1.38473E-4
169.921875; 1.31596E-4
175.781250; 1.29833E-4
181.640625; 1.12848E-4
187.500000; 1.34082E-4
193.359375; 5.57406E-4
199.218750; 1.36244E-3
205.078125; 8.52071E-4
210.937500; 1.51430E-4
216.796875; 1.21237E-4
222.656250; 1.21168E-4
228.515625; 1.26650E-4
234.375000; 1.12993E-4
240.234375; 1.24559E-4
246.093750; 1.48849E-4
251.953125; 1.55043E-4
257.812500; 1.32492E-4
263.671875; 1.10786E-4
269.531250; 1.11673E-4
275.390625; 1.21683E-4
281.250000; 1.19455E-4
287.109375; 1.21834E-4
292.968750; 1.66548E-4
298.828125; 3.15625E-4
304.687500; 2.43258E-4
310.546875; 1.22374E-4
316.406250; 1.20402E-4
322.265625; 1.08942E-4
328.125000; 1.10104E-4
333.984375; 1.25575E-4
339.843750; 1.19718E-4
345.703125; 1.26787E-4
351.562500; 1.27301E-4
357.421875; 1.15108E-4
363.281250; 1.25027E-4
369.140625; 1.29000E-4
375.000000; 1.21693E-4
380.859375; 1.15225E-4
386.718750; 1.15279E-4
392.578125; 1.36973E-4
398.437500; 2.77727E-4
404.296875; 2.12617E-4
410.156250; 1.13673E-4
416.015625; 1.13442E-4
421.875000; 1.20885E-4
427.734375; 1.33788E-4
433.593750; 1.24670E-4
439.453125; 1.15993E-4
445.312500; 1.19101E-4
451.171875; 1.10579E-4
457.031250; 1.06496E-4
462.890625; 1.02751E-4
468.750000; 1.20801E-4
474.609375; 1.18867E-4
480.468750; 1.13464E-4
486.328125; 1.25626E-4
492.187500; 1.44601E-4
498.046875; 1.49184E-4
503.906250; 1.24942E-4
509.765625; 1.18167E-4
515.625000; 1.26771E-4
521.484375; 1.34022E-4
527.343750; 1.31176E-4
533.203125; 1.17321E-4
539.062500; 9.77374E-5
544.921875; 1.20777E-4
550.781250; 1.26436E-4
556.640625; 1.07343E-4
562.500000; 1.00759E-4
568.359375; 1.02815E-4
574.218750; 1.24762E-4
580.078125; 1.14919E-4
585.937500; 9.77938E-5
591.796875; 1.19412E-4
597.656250; 1.25045E-4
603.515625; 1.07220E-4
609.375000; 1.06401E-4
615.234375; 1.13069E-4
621.093750; 1.16913E-4
626.953125; 1.04828E-4
632.812500; 1.21810E-4
638.671875; 1.18023E-4
644.531250; 1.14664E-4
650.390625; 1.21132E-4
656.250000; 1.11972E-4
662.109375; 1.18342E-4
667.968750; 1.12018E-4
673.828125; 1.04495E-4
679.687500; 9.55455E-5
685.546875; 1.14590E-4
691.406250; 1.22122E-4
697.265625; 1.23885E-4
703.125000; 1.30870E-4
708.984375; 1.31395E-4
714.843750; 1.11581E-4
720.703125; 1.00104E-4
726.562500; 1.09139E-4
732.421875; 1.12687E-4
738.281250; 1.22843E-4
744.140625; 1.12567E-4
750.000000; 1.19538E-4
755.859375; 1.11400E-4
761.718750; 1.19490E-4
767.578125; 1.19908E-4
773.437500; 1.13989E-4
779.296875; 1.23449E-4
785.156250; 1.17263E-4
791.015625; 1.18134E-4
796.875000; 1.26166E-4
802.734375; 1.23262E-4
808.593750; 1.13655E-4
814.453125; 1.17014E-4
820.312500; 1.12458E-4
826.171875; 1.21354E-4
832.031250; 1.14275E-4
837.890625; 1.17872E-4
843.750000; 1.38211E-4
849.609375; 1.35900E-4
855.468750; 1.11623E-4
861.328125; 1.20593E-4
867.187500; 1.20517E-4
873.046875; 1.19191E-4
878.906250; 1.11925E-4
884.765625; 1.18181E-4
890.625000; 1.26283E-4
896.484375; 1.30051E-4
902.343750; 1.27359E-4
908.203125; 1.57562E-4
914.062500; 1.64827E-4
919.921875; 1.98245E-4
925.781250; 1.90230E-4
931.640625; 2.55002E-4
937.500000; 3.43965E-4
943.359375; 4.13341E-4
949.218750; 5.84371E-4
955.078125; 8.30888E-4
960.937500; 1.28939E-3
966.796875; 2.08928E-3
972.656250; 3.77692E-3
978.515625; 8.06102E-3
984.375000; 2.25584E-2
990.234375; 1.24028E-1
996.093750; 9.92332E-1
1001.953125; 1.24043E0
1007.812500; 3.54418E-1
1013.671875; 3.54298E-2
1019.531250; 1.09237E-2
1025.390625; 4.76253E-3
1031.250000; 2.50833E-3
1037.109375; 1.49815E-3
1042.968750; 9.44838E-4
1048.828125; 6.55378E-4
1054.687500; 4.75608E-4
1060.546875; 3.53003E-4
1066.406250; 2.94691E-4
1072.265625; 2.13366E-4
1078.125000; 1.75581E-4
1083.984375; 1.84827E-4
1089.843750; 1.37462E-4
1095.703125; 1.48052E-4
1101.562500; 1.31989E-4
1107.421875; 1.26649E-4
1113.281250; 1.18066E-4
1119.140625; 1.27166E-4
1125.000000; 1.22447E-4
1130.859375; 1.22695E-4
1136.718750; 1.13929E-4
1142.578125; 1.10688E-4
1148.437500; 1.14562E-4
1154.296875; 1.17847E-4
1160.156250; 1.04709E-4
1166.015625; 1.11412E-4
1171.875000; 1.27125E-4
1177.734375; 1.06326E-4
1183.593750; 1.13042E-4
1189.453125; 1.19353E-4
1195.312500; 1.07064E-4
1201.171875; 1.07013E-4
1207.031250; 1.02139E-4
1212.890625; 1.05870E-4
1218.750000; 1.14545E-4
1224.609375; 1.20164E-4
1230.468750; 1.20168E-4
1236.328125; 9.96374E-5
1242.187500; 9.97217E-5
1248.046875; 1.11419E-4
1253.906250; 1.21625E-4
1259.765625; 1.04644E-4
1265.625000; 1.06801E-4
1271.484375; 1.00713E-4
1277.343750; 1.20166E-4
1283.203125; 1.18807E-4
1289.062500; 1.36559E-4
1294.921875; 1.22977E-4
1300.781250; 1.05448E-4
1306.640625; 1.17385E-4
1312.500000; 1.14401E-4
1318.359375; 1.00678E-4
1324.218750; 1.13451E-4
1330.078125; 1.00327E-4
1335.937500; 1.14818E-4
1341.796875; 1.17680E-4
1347.656250; 1.13666E-4
1353.515625; 1.08136E-4
1359.375000; 1.02689E-4
1365.234375; 1.09654E-4
1371.093750; 1.18875E-4
1376.953125; 1.25372E-4
1382.812500; 1.09414E-4
1388.671875; 1.10823E-4
1394.531250; 1.15627E-4
1400.390625; 1.14366E-4
1406.250000; 1.01628E-4
1412.109375; 1.12535E-4
1417.968750; 1.23518E-4
1423.828125; 1.00835E-4
1429.687500; 9.73742E-5
1435.546875; 1.07674E-4
1441.406250; 1.04924E-4
1447.265625; 1.13539E-4
1453.125000; 1.16053E-4
1458.984375; 1.10196E-4
1464.843750; 1.24365E-4
1470.703125; 1.17675E-4
1476.562500; 1.20298E-4
1482.421875; 1.17458E-4
1488.281250; 1.03864E-4
1494.140625; 1.05777E-4
1500.000000; 1.09645E-4
1505.859375; 1.09795E-4
1511.718750; 1.12604E-4
1517.578125; 1.02582E-4
1523.437500; 1.10667E-4
1529.296875; 1.17604E-4
1535.156250; 1.10832E-4
1541.015625; 1.09813E-4
1546.875000; 1.08121E-4
1552.734375; 9.76306E-5
1558.593750; 1.02915E-4
1564.453125; 9.61017E-5
1570.312500; 1.06014E-4
1576.171875; 1.10488E-4
1582.031250; 1.04035E-4
1587.890625; 1.11191E-4
1593.750000; 1.25859E-4
1599.609375; 1.23028E-4
1605.468750; 1.13626E-4
1611.328125; 1.17604E-4
1617.187500; 1.09463E-4
1623.046875; 1.20810E-4
1628.906250; 1.04766E-4
1634.765625; 1.07623E-4
1640.625000; 1.07369E-4
1646.484375; 1.06524E-4
1652.343750; 1.04665E-4
1658.203125; 1.07548E-4
1664.062500; 1.17545E-4
1669.921875; 1.14454E-4
1675.781250; 1.16591E-4
1681.640625; 1.16243E-4
1687.500000; 1.18597E-4
1693.359375; 1.12791E-4
1699.218750; 1.07143E-4
1705.078125; 1.08022E-4
1710.937500; 1.02030E-4
1716.796875; 1.16735E-4
1722.656250; 1.08348E-4
1728.515625; 8.85794E-5
1734.375000; 9.93703E-5
1740.234375; 1.15588E-4
1746.093750; 1.23737E-4
1751.953125; 1.09026E-4
1757.812500; 1.11700E-4
1763.671875; 1.10700E-4
1769.531250; 1.17773E-4
1775.390625; 1.14103E-4
1781.250000; 1.05554E-4
1787.109375; 9.54277E-5
1792.968750; 1.05839E-4
1798.828125; 1.14554E-4
1804.687500; 1.18983E-4
1810.546875; 1.11812E-4
1816.406250; 1.16767E-4
1822.265625; 1.39976E-4
1828.125000; 1.23883E-4
1833.984375; 1.20494E-4
1839.843750; 1.16771E-4
1845.703125; 1.12027E-4
1851.562500; 1.09763E-4
1857.421875; 1.12948E-4
1863.281250; 1.08544E-4
1869.140625; 1.01328E-4
1875.000000; 1.00018E-4
1880.859375; 1.08637E-4
1886.718750; 1.11076E-4
1892.578125; 1.04420E-4
1898.437500; 9.50700E-5
1904.296875; 9.55999E-5
1910.156250; 1.12865E-4
1916.015625; 1.22414E-4
1921.875000; 1.12815E-4
1927.734375; 1.15604E-4
1933.593750; 1.16932E-4
1939.453125; 1.05726E-4
1945.312500; 9.51460E-5
1951.171875; 9.78089E-5
1957.031250; 1.08500E-4
1962.890625; 1.12552E-4
1968.750000; 1.10369E-4
1974.609375; 1.18308E-4
1980.468750; 1.26805E-4
1986.328125; 1.12792E-4
1992.187500; 9.67893E-5
1998.046875; 1.11676E-4
2003.906250; 1.08544E-4
2009.765625; 1.07868E-4
2015.625000; 1.12063E-4
2021.484375; 1.15672E-4
2027.343750; 1.19820E-4
2033.203125; 1.25319E-4
2039.062500; 1.15717E-4
2044.921875; 1.21717E-4
2050.781250; 1.13087E-4
2056.640625; 9.51046E-5
2062.500000; 1.08149E-4
2068.359375; 1.17941E-4
2074.218750; 1.11656E-4
2080.078125; 1.09056E-4
2085.937500; 1.02615E-4
2091.796875; 1.00036E-4
2097.656250; 1.09973E-4
2103.515625; 1.09006E-4
2109.375000; 9.11481E-5
2115.234375; 1.05477E-4
2121.093750; 1.13024E-4
2126.953125; 9.82659E-5
2132.812500; 9.98511E-5
2138.671875; 1.13736E-4
2144.531250; 1.09564E-4
2150.390625; 1.02303E-4
2156.250000; 1.07061E-4
2162.109375; 1.19737E-4
2167.968750; 1.29919E-4
2173.828125; 1.22651E-4
2179.687500; 1.07127E-4
2185.546875; 1.11074E-4
2191.406250; 1.12321E-4
2197.265625; 1.16545E-4
2203.125000; 1.10857E-4
2208.984375; 1.15212E-4
2214.843750; 1.02655E-4
2220.703125; 1.13102E-4
2226.562500; 1.08449E-4
2232.421875; 1.10176E-4
2238.281250; 1.06150E-4
2244.140625; 1.06424E-4
2250.000000; 1.04751E-4
2255.859375; 1.02951E-4
2261.718750; 1.03360E-4
2267.578125; 1.06211E-4
2273.437500; 1.05235E-4
2279.296875; 1.09629E-4
2285.156250; 1.17208E-4
2291.015625; 1.09563E-4
2296.875000; 1.10304E-4
2302.734375; 1.16433E-4
2308.593750; 1.05576E-4
2314.453125; 1.03604E-4
2320.312500; 1.05632E-4
2326.171875; 1.11591E-4
2332.031250; 9.86008E-5
2337.890625; 1.02425E-4
2343.750000; 1.11571E-4
2349.609375; 1.13348E-4
2355.468750; 1.15304E-4
2361.328125; 1.15236E-4
2367.187500; 1.09145E-4
2373.046875; 1.10412E-4
2378.906250; 1.03695E-4
2384.765625; 1.17214E-4
2390.625000; 1.10312E-4
2396.484375; 9.69428E-5
2402.343750; 1.01581E-4
2408.203125; 8.95848E-5
2414.062500; 9.84194E-5
2419.921875; 1.10660E-4
2425.781250; 1.16825E-4
2431.640625; 1.05674E-4
2437.500000; 9.99166E-5
2443.359375; 1.01935E-4
2449.218750; 1.13095E-4
2455.078125; 1.07543E-4
2460.937500; 1.10545E-4
2466.796875; 1.07007E-4
2472.656250; 1.15983E-4
2478.515625; 1.11590E-4
2484.375000; 1.04641E-4
2490.234375; 9.84259E-5
2496.093750; 1.02866E-4
2501.953125; 1.05698E-4
2507.812500; 1.07123E-4
2513.671875; 1.01003E-4
2519.531250; 1.11689E-4
2525.390625; 1.19711E-4
2531.250000; 1.13692E-4
2537.109375; 1.14141E-4
2542.968750; 1.10041E-4
2548.828125; 1.10854E-4
2554.687500; 1.14541E-4
2560.546875; 1.15196E-4
2566.406250; 1.10633E-4
2572.265625; 1.18773E-4
2578.125000; 1.12968E-4
2583.984375; 1.01204E-4
2589.843750; 1.00558E-4
2595.703125; 1.06137E-4
2601.562500; 1.14298E-4
2607.421875; 1.16053E-4
2613.281250; 1.10201E-4
2619.140625; 1.03962E-4
2625.000000; 9.98269E-5
2630.859375; 8.89393E-5
2636.718750; 1.05203E-4
2642.578125; 1.21039E-4
2648.437500; 1.22408E-4
2654.296875; 1.19089E-4
2660.156250; 1.21804E-4
2666.015625; 1.20981E-4
2671.875000; 1.05454E-4
2677.734375; 9.45595E-5
2683.593750; 1.02778E-4
2689.453125; 1.16853E-4
2695.312500; 1.20755E-4
2701.171875; 1.24782E-4
2707.031250; 1.11718E-4
2712.890625; 1.09834E-4
2718.750000; 1.05072E-4
2724.609375; 9.73762E-5
2730.468750; 1.01205E-4
2736.328125; 1.05466E-4
2742.187500; 1.12109E-4
2748.046875; 1.10025E-4
2753.906250; 1.20772E-4
2759.765625; 1.19365E-4
2765.625000; 1.08824E-4
2771.484375; 1.07679E-4
2777.343750; 1.10676E-4
2783.203125; 1.21533E-4
2789.062500; 1.11804E-4
2794.921875; 1.02136E-4
2800.781250; 9.79797E-5
2806.640625; 9.36139E-5
2812.500000; 9.72183E-5
2818.359375; 1.15950E-4
2824.218750; 1.08343E-4
2830.078125; 1.06486E-4
2835.937500; 1.07791E-4
2841.796875; 1.02761E-4
2847.656250; 1.16393E-4
2853.515625; 1.23152E-4
2859.375000; 1.23557E-4
2865.234375; 1.13041E-4
2871.093750; 1.04010E-4
2876.953125; 1.07921E-4
2882.812500; 1.22102E-4
2888.671875; 1.13417E-4
2894.531250; 1.00753E-4
2900.390625; 9.89577E-5
2906.250000; 1.11515E-4
2912.109375; 1.00749E-4
2917.968750; 1.07525E-4
2923.828125; 1.06694E-4
2929.687500; 1.13317E-4
2935.546875; 1.08994E-4
2941.406250; 1.02767E-4
2947.265625; 9.83139E-5
2953.125000; 1.00753E-4
2958.984375; 1.20049E-4
2964.843750; 1.10941E-4
2970.703125; 1.15122E-4
2976.562500; 1.10330E-4
2982.421875; 1.08854E-4
2988.281250; 1.12105E-4
2994.140625; 1.02544E-4
3000.000000; 8.32722E-5
3005.859375; 1.02202E-4
3011.718750; 1.04808E-4
3017.578125; 9.17183E-5
3023.437500; 9.89156E-5
3029.296875; 1.10181E-4
3035.156250; 1.20404E-4
3041.015625; 1.13353E-4
3046.875000; 1.15793E-4
3052.734375; 1.08898E-4
3058.593750; 9.48474E-5
3064.453125; 1.00312E-4
3070.312500; 1.10155E-4
3076.171875; 1.16475E-4
3082.031250; 1.07410E-4
3087.890625; 1.09123E-4
3093.750000; 1.00101E-4
3099.609375; 1.12656E-4
3105.468750; 1.14182E-4
3111.328125; 1.09120E-4
3117.187500; 1.10127E-4
3123.046875; 1.13532E-4
3128.906250; 1.07314E-4
3134.765625; 1.02855E-4
3140.625000; 1.04122E-4
3146.484375; 1.17595E-4
3152.343750; 1.30993E-4
3158.203125; 1.22136E-4
3164.062500; 1.12625E-4
3169.921875; 1.04764E-4
3175.781250; 1.06912E-4
3181.640625; 1.00727E-4
3187.500000; 1.02444E-4
3193.359375; 1.00576E-4
3199.218750; 1.15317E-4
3205.078125; 1.21863E-4
3210.937500; 1.08655E-4
3216.796875; 1.10192E-4
3222.656250; 1.22054E-4
3228.515625; 1.01815E-4
3234.375000; 1.06714E-4
3240.234375; 1.04401E-4
3246.093750; 1.02972E-4
3251.953125; 1.06241E-4
3257.812500; 1.21905E-4
3263.671875; 1.22639E-4
3269.531250; 1.16243E-4
3275.390625; 1.11401E-4
3281.250000; 9.37622E-5
3287.109375; 9.61428E-5
3292.968750; 1.06013E-4
3298.828125; 1.03383E-4
3304.687500; 1.01652E-4
3310.546875; 1.09261E-4
3316.406250; 9.69940E-5
3322.265625; 9.06638E-5
3328.125000; 9.07398E-5
3333.984375; 1.07699E-4
3339.843750; 1.12879E-4
3345.703125; 1.19896E-4
3351.562500; 1.06375E-4
3357.421875; 1.07772E-4
3363.281250; 1.03031E-4
3369.140625; 1.20025E-4
3375.000000; 1.19663E-4
3380.859375; 1.06751E-4
3386.718750; 1.03452E-4
3392.578125; 1.06657E-4
3398.437500; 1.15701E-4
3404.296875; 1.17594E-4
3410.156250; 9.29854E-5
3416.015625; 8.65172E-5
3421.875000; 1.14289E-4
3427.734375; 1.06726E-4
3433.593750; 1.05548E-4
3439.453125; 1.07645E-4
3445.312500; 1.04025E-4
3451.171875; 1.14940E-4
3457.031250; 1.03985E-4
3462.890625; 1.03888E-4
3468.750000; 1.03229E-4
3474.609375; 9.85488E-5
3480.468750; 1.07247E-4
3486.328125; 1.06909E-4
3492.187500; 9.95750E-5
3498.046875; 9.88642E-5
3503.906250; 1.05948E-4
3509.765625; 1.08349E-4
3515.625000; 1.07966E-4
3521.484375; 9.83109E-5
3527.343750; 1.07417E-4
3533.203125; 1.10161E-4
3539.062500; 1.14048E-4
3544.921875; 1.07942E-4
3550.781250; 1.08560E-4
3556.640625; 1.05649E-4
3562.500000; 1.09367E-4
3568.359375; 9.33496E-5
3574.218750; 9.24772E-5
3580.078125; 1.01640E-4
3585.937500; 9.80593E-5
3591.796875; 1.00841E-4
3597.656250; 1.04149E-4
3603.515625; 1.13001E-4
3609.375000; 1.08209E-4
3615.234375; 1.10220E-4
3621.093750; 1.19963E-4
3626.953125; 1.05680E-4
3632.812500; 9.66543E-5
3638.671875; 1.08090E-4
3644.531250; 1.04113E-4
3650.390625; 9.01098E-5
3656.250000; 1.03550E-4
3662.109375; 1.12142E-4
3667.968750; 1.14650E-4
3673.828125; 1.12832E-4
3679.687500; 1.01255E-4
3685.546875; 1.00367E-4
3691.406250; 1.00614E-4
3697.265625; 9.63271E-5
3703.125000; 1.04714E-4
3708.984375; 1.09390E-4
3714.843750; 1.20357E-4
3720.703125; 1.15480E-4
3726.562500; 1.02831E-4
3732.421875; 1.07100E-4
3738.281250; 1.12151E-4
3744.140625; 1.11847E-4
3750.000000; 1.07090E-4
3755.859375; 1.10577E-4
3761.718750; 1.05897E-4
3767.578125; 1.21995E-4
3773.437500; 1.14831E-4
3779.296875; 1.07954E-4
3785.156250; 1.13242E-4
3791.015625; 1.15965E-4
3796.875000; 1.09421E-4
3802.734375; 1.12527E-4
3808.593750; 1.13588E-4
3814.453125; 1.11571E-4
3820.312500; 9.42456E-5
3826.171875; 1.10067E-4
3832.031250; 1.22275E-4
3837.890625; 1.12799E-4
3843.750000; 1.07107E-4
3849.609375; 1.05637E-4
3855.468750; 1.02669E-4
3861.328125; 1.06790E-4
3867.187500; 1.06630E-4
3873.046875; 9.28415E-5
3878.906250; 1.03917E-4
3884.765625; 1.17430E-4
3890.625000; 1.03885E-4
3896.484375; 9.85461E-5
3902.343750; 1.12829E-4
3908.203125; 9.48096E-5
3914.062500; 9.76711E-5
3919.921875; 1.01327E-4
3925.781250; 1.01467E-4
3931.640625; 1.01596E-4
3937.500000; 1.14857E-4
3943.359375; 1.08378E-4
3949.218750; 1.02252E-4
3955.078125; 1.04693E-4
3960.937500; 1.16703E-4
3966.796875; 1.18039E-4
3972.656250; 1.13328E-4
3978.515625; 1.09941E-4
3984.375000; 9.17502E-5
3990.234375; 1.09057E-4
3996.093750; 1.18833E-4
4001.953125; 1.10571E-4
4007.812500; 9.80572E-5
4013.671875; 1.07401E-4
4019.531250; 1.06023E-4
4025.390625; 1.09160E-4
4031.250000; 1.10143E-4
4037.109375; 1.09977E-4
4042.968750; 1.02162E-4
4048.828125; 1.13497E-4
4054.687500; 1.09143E-4
4060.546875; 1.06673E-4
4066.406250; 1.06568E-4
4072.265625; 9.07215E-5
4078.125000; 9.89531E-5
4083.984375; 9.59954E-5
4089.843750; 1.03638E-4
4095.703125; 1.07850E-4
4101.562500; 9.74841E-5
4107.421875; 1.03703E-4
4113.281250; 1.03385E-4
4119.140625; 1.09575E-4
4125.000000; 1.02467E-4
4130.859375; 9.98780E-5
4136.718750; 1.03247E-4
4142.578125; 1.07070E-4
4148.437500; 1.17384E-4
4154.296875; 1.16519E-4
4160.156250; 1.13217E-4
4166.015625; 1.22537E-4
4171.875000; 1.16055E-4
4177.734375; 1.22676E-4
4183.593750; 1.20813E-4
4189.453125; 1.07893E-4
4195.312500; 9.55929E-5
4201.171875; 9.54587E-5
4207.031250; 1.12018E-4
4212.890625; 1.10746E-4
4218.750000; 1.10249E-4
4224.609375; 1.15497E-4
4230.468750; 1.11216E-4
4236.328125; 1.04872E-4
4242.187500; 1.09581E-4
4248.046875; 1.08081E-4
4253.906250; 9.98166E-5
4259.765625; 1.04600E-4
4265.625000; 1.00444E-4
4271.484375; 1.01934E-4
4277.343750; 1.06433E-4
4283.203125; 1.04651E-4
4289.062500; 1.00118E-4
4294.921875; 1.01566E-4
4300.781250; 1.16928E-4
4306.640625; 1.10703E-4
4312.500000; 1.05576E-4
4318.359375; 1.21528E-4
4324.218750; 1.26860E-4
4330.078125; 1.02739E-4
4335.937500; 1.04054E-4
4341.796875; 1.02272E-4
4347.656250; 1.02501E-4
4353.515625; 1.07989E-4
4359.375000; 1.10084E-4
4365.234375; 1.11900E-4
4371.093750; 1.09283E-4
4376.953125; 1.07149E-4
4382.812500; 1.03030E-4
4388.671875; 1.07455E-4
4394.531250; 1.22573E-4
4400.390625; 1.13395E-4
4406.250000; 9.78574E-5
4412.109375; 1.06051E-4
4417.968750; 9.63495E-5
4423.828125; 1.11893E-4
4429.687500; 1.11328E-4
4435.546875; 1.32704E-4
4441.406250; 1.26907E-4
4447.265625; 1.07774E-4
4453.125000; 1.04221E-4
4458.984375; 1.06541E-4
4464.843750; 1.10662E-4
4470.703125; 1.18027E-4
4476.562500; 1.17499E-4
4482.421875; 1.17723E-4
4488.281250; 1.18620E-4
4494.140625; 1.12387E-4
4500.000000; 1.06216E-4
4505.859375; 9.51328E-5
4511.718750; 1.16457E-4
4517.578125; 1.17148E-4
4523.437500; 1.05551E-4
4529.296875; 1.10308E-4
4535.156250; 1.04421E-4
4541.015625; 1.03786E-4
4546.875000; 1.05370E-4
4552.734375; 1.01935E-4
4558.593750; 1.09230E-4
4564.453125; 1.18300E-4
4570.312500; 1.25212E-4
4576.171875; 1.13777E-4
4582.031250; 1.16003E-4
4587.890625; 1.24692E-4
4593.750000; 1.23397E-4
4599.609375; 1.22915E-4
4605.468750; 1.10303E-4
4611.328125; 1.00337E-4
4617.187500; 9.58359E-5
4623.046875; 1.14224E-4
4628.906250; 1.28726E-4
4634.765625; 1.11071E-4
4640.625000; 1.00223E-4
4646.484375; 9.68131E-5
4652.343750; 9.37670E-5
4658.203125; 1.14582E-4
4664.062500; 1.17443E-4
4669.921875; 1.10330E-4
4675.781250; 1.09129E-4
4681.640625; 1.12101E-4
4687.500000; 1.09959E-4
4693.359375; 1.24111E-4
4699.218750; 1.16319E-4
4705.078125; 1.10200E-4
4710.937500; 1.03018E-4
4716.796875; 1.08712E-4
4722.656250; 1.09730E-4
4728.515625; 1.13470E-4
4734.375000; 1.01448E-4
4740.234375; 1.08591E-4
4746.093750; 1.10033E-4
4751.953125; 9.64352E-5
4757.812500; 1.03017E-4
4763.671875; 1.03597E-4
4769.531250; 1.13379E-4
4775.390625; 1.13690E-4
4781.250000; 1.05519E-4
4787.109375; 1.01968E-4
4792.968750; 1.10025E-4
4798.828125; 1.11855E-4
4804.687500; 1.18733E-4
4810.546875; 9.63038E-5
4816.406250; 9.12761E-5
4822.265625; 1.17342E-4
4828.125000; 1.15847E-4
4833.984375; 1.16788E-4
4839.843750; 1.21379E-4
4845.703125; 1.18686E-4
4851.562500; 1.00741E-4
4857.421875; 1.03344E-4
4863.281250; 1.15225E-4
4869.140625; 1.04978E-4
4875.000000; 9.28665E-5
4880.859375; 8.66607E-5
4886.718750; 1.00049E-4
4892.578125; 1.11494E-4
4898.437500; 1.05363E-4
4904.296875; 9.25560E-5
4910.156250; 1.04015E-4
4916.015625; 1.06093E-4
4921.875000; 1.01100E-4
4927.734375; 1.13490E-4
4933.593750; 1.30051E-4
4939.453125; 1.11746E-4
4945.312500; 1.02280E-4
4951.171875; 1.10831E-4
4957.031250; 1.10248E-4
4962.890625; 1.16245E-4
4968.750000; 1.09909E-4
4974.609375; 1.02203E-4
4980.468750; 1.07802E-4
4986.328125; 1.08676E-4
4992.187500; 1.00084E-4
4998.046875; 9.57020E-5
5003.906250; 1.03768E-4
5009.765625; 1.01623E-4
5015.625000; 1.08805E-4
5021.484375; 1.07907E-4
5027.343750; 9.92515E-5
5033.203125; 9.96207E-5
5039.062500; 1.06198E-4
5044.921875; 1.07708E-4
5050.781250; 1.00054E-4
5056.640625; 1.06408E-4
5062.500000; 1.18659E-4
5068.359375; 1.14298E-4
5074.218750; 9.71952E-5
5080.078125; 9.87714E-5
5085.937500; 1.11757E-4
5091.796875; 1.20105E-4
5097.656250; 1.25084E-4
5103.515625; 1.18088E-4
5109.375000; 1.10963E-4
5115.234375; 1.14304E-4
5121.093750; 1.02861E-4
5126.953125; 9.43913E-5
5132.812500; 9.01533E-5
5138.671875; 1.09170E-4
5144.531250; 1.11606E-4
5150.390625; 1.07834E-4
5156.250000; 1.10246E-4
5162.109375; 9.91738E-5
5167.968750; 1.14376E-4
5173.828125; 1.12045E-4
5179.687500; 1.07535E-4
5185.546875; 9.98626E-5
5191.406250; 1.01913E-4
5197.265625; 9.48306E-5
5203.125000; 1.02273E-4
5208.984375; 1.04476E-4
5214.843750; 1.09577E-4
5220.703125; 1.01212E-4
5226.562500; 1.02627E-4
5232.421875; 1.12096E-4
5238.281250; 1.27555E-4
5244.140625; 1.10352E-4
5250.000000; 1.10740E-4
5255.859375; 1.11549E-4
5261.718750; 1.08510E-4
5267.578125; 9.58836E-5
5273.437500; 9.59401E-5
5279.296875; 1.14409E-4
5285.156250; 9.53245E-5
5291.015625; 9.80868E-5
5296.875000; 1.12491E-4
5302.734375; 1.09362E-4
5308.593750; 1.01953E-4
5314.453125; 1.10893E-4
5320.312500; 1.07278E-4
5326.171875; 1.11532E-4
5332.031250; 1.21399E-4
5337.890625; 1.19635E-4
5343.750000; 1.12922E-4
5349.609375; 9.52035E-5
5355.468750; 9.39748E-5
5361.328125; 1.11570E-4
5367.187500; 1.14843E-4
5373.046875; 1.02579E-4
5378.906250; 1.02370E-4
5384.765625; 1.15547E-4
5390.625000; 1.25808E-4
5396.484375; 1.10644E-4
5402.343750; 1.03002E-4
5408.203125; 9.80300E-5
5414.062500; 1.03604E-4
5419.921875; 1.05970E-4
5425.781250; 8.92797E-5
5431.640625; 9.09291E-5
5437.500000; 1.03132E-4
5443.359375; 1.10647E-4
5449.218750; 1.16416E-4
5455.078125; 1.19489E-4
5460.937500; 1.10945E-4
5466.796875; 1.00518E-4
5472.656250; 1.14264E-4
5478.515625; 1.10888E-4
5484.375000; 1.12930E-4
5490.234375; 1.07901E-4
5496.093750; 1.07524E-4
5501.953125; 1.07918E-4
5507.812500; 1.13529E-4
5513.671875; 1.06705E-4
5519.531250; 1.09463E-4
5525.390625; 1.08269E-4
5531.250000; 9.82472E-5
5537.109375; 9.62166E-5
5542.968750; 1.10688E-4
5548.828125; 1.13520E-4
5554.687500; 1.10235E-4
5560.546875; 9.88667E-5
5566.406250; 1.13573E-4
5572.265625; 1.09397E-4
5578.125000; 1.05363E-4
5583.984375; 1.23153E-4
5589.843750; 1.15223E-4
5595.703125; 1.13869E-4
5601.562500; 9.62504E-5
5607.421875; 1.00233E-4
5613.281250; 1.05960E-4
5619.140625; 1.14834E-4
5625.000000; 1.05762E-4
5630.859375; 1.09903E-4
5636.718750; 1.08526E-4
5642.578125; 1.13608E-4
5648.437500; 1.03545E-4
5654.296875; 9.98120E-5
5660.156250; 1.03604E-4
5666.015625; 9.92885E-5
5671.875000; 1.10736E-4
5677.734375; 1.19690E-4
5683.593750; 1.26647E-4
5689.453125; 1.12835E-4
5695.312500; 1.06722E-4
5701.171875; 1.11225E-4
5707.031250; 1.20438E-4
5712.890625; 1.11883E-4
5718.750000; 1.10214E-4
5724.609375; 1.13266E-4
5730.468750; 1.02990E-4
5736.328125; 1.13141E-4
5742.187500; 1.11661E-4
5748.046875; 9.88747E-5
5753.906250; 1.12554E-4
5759.765625; 1.09209E-4
5765.625000; 9.29508E-5
5771.484375; 1.06280E-4
5777.343750; 1.12943E-4
5783.203125; 1.00335E-4
5789.062500; 9.81557E-5
5794.921875; 9.94426E-5
5800.781250; 1.00535E-4
5806.640625; 1.13230E-4
5812.500000; 1.14794E-4
5818.359375; 1.17881E-4
5824.218750; 1.01053E-4
5830.078125; 1.03744E-4
5835.937500; 1.14454E-4
5841.796875; 1.11975E-4
5847.656250; 1.07383E-4
5853.515625; 1.03188E-4
5859.375000; 1.04227E-4
5865.234375; 1.14667E-4
5871.093750; 9.45010E-5
5876.953125; 1.01661E-4
5882.812500; 1.08956E-4
5888.671875; 1.03799E-4
5894.531250; 1.02813E-4
5900.390625; 1.06865E-4
5906.250000; 9.86322E-5
5912.109375; 1.00247E-4
5917.968750; 1.22250E-4
5923.828125; 1.25639E-4
5929.687500; 1.04871E-4
5935.546875; 9.67300E-5
5941.406250; 1.05087E-4
5947.265625; 1.13919E-4
5953.125000; 1.24719E-4
5958.984375; 1.25704E-4
5964.843750; 1.19226E-4
5970.703125; 1.03623E-4
5976.562500; 1.13469E-4
5982.421875; 1.14310E-4
5988.281250; 1.11435E-4
5994.140625; 1.27811E-4
6000.000000; 1.17926E-4
6005.859375; 1.00662E-4
6011.718750; 1.09564E-4
6017.578125; 1.08235E-4
6023.437500; 1.04613E-4
6029.296875; 1.09129E-4
6035.156250; 1.14101E-4
6041.015625; 1.13505E-4
6046.875000; 1.07165E-4
6052.734375; 1.09800E-4
6058.593750; 1.06287E-4
6064.453125; 1.09757E-4
6070.312500; 1.08590E-4
6076.171875; 1.06802E-4
6082.031250; 1.09219E-4
6087.890625; 1.14908E-4
6093.750000; 1.22364E-4
6099.609375; 1.18555E-4
6105.468750; 1.18616E-4
6111.328125; 1.06606E-4
6117.187500; 1.06989E-4
6123.046875; 1.06822E-4
6128.906250; 1.12495E-4
6134.765625; 1.10723E-4
6140.625000; 1.03172E-4
6146.484375; 1.09637E-4
6152.343750; 9.72900E-5
6158.203125; 9.37604E-5
6164.062500; 1.02676E-4
6169.921875; 1.00105E-4
6175.781250; 1.03764E-4
6181.640625; 1.08930E-4
6187.500000; 1.08636E-4
6193.359375; 1.07206E-4
6199.218750; 1.09306E-4
6205.078125; 1.09518E-4
6210.937500; 1.00556E-4
6216.796875; 9.14839E-5
6222.656250; 9.74094E-5
6228.515625; 1.02755E-4
6234.375000; 1.13680E-4
6240.234375; 1.04088E-4
6246.093750; 1.05451E-4
6251.953125; 1.16617E-4
6257.812500; 1.15886E-4
6263.671875; 1.18853E-4
6269.531250; 1.16901E-4
6275.390625; 1.18567E-4
6281.250000; 1.17735E-4
6287.109375; 1.19022E-4
6292.968750; 1.15798E-4
6298.828125; 1.09170E-4
6304.687500; 1.01786E-4
6310.546875; 9.18815E-5
6316.406250; 1.02563E-4
6322.265625; 1.11916E-4
6328.125000; 1.07311E-4
6333.984375; 1.06240E-4
6339.843750; 1.02591E-4
6345.703125; 1.08780E-4
6351.562500; 1.16644E-4
6357.421875; 1.11964E-4
6363.281250; 1.12455E-4
6369.140625; 1.06649E-4
6375.000000; 1.12834E-4
6380.859375; 8.69813E-5
6386.718750; 9.98789E-5
6392.578125; 1.08730E-4
6398.437500; 1.15315E-4
6404.296875; 1.22995E-4
6410.156250; 1.20238E-4
6416.015625; 1.13932E-4
6421.875000; 1.12126E-4
6427.734375; 1.08524E-4
6433.593750; 9.76129E-5
6439.453125; 9.12559E-5
6445.312500; 9.90147E-5
6451.171875; 1.12633E-4
6457.031250; 1.08790E-4
6462.890625; 1.06334E-4
6468.750000; 1.02323E-4
6474.609375; 1.06660E-4
6480.468750; 1.07712E-4
6486.328125; 1.15406E-4
6492.187500; 1.21923E-4
6498.046875; 1.15296E-4
6503.906250; 1.10530E-4
6509.765625; 1.10482E-4
6515.625000; 1.13492E-4
6521.484375; 1.02443E-4
6527.343750; 1.07448E-4
6533.203125; 1.03992E-4
6539.062500; 9.86647E-5
6544.921875; 1.01914E-4
6550.781250; 1.12036E-4
6556.640625; 1.09018E-4
6562.500000; 1.04230E-4
6568.359375; 1.05425E-4
6574.218750; 1.08622E-4
6580.078125; 1.17780E-4
6585.937500; 1.09795E-4
6591.796875; 1.12371E-4
6597.656250; 9.90468E-5
6603.515625; 9.12791E-5
6609.375000; 1.10543E-4
6615.234375; 1.17065E-4
6621.093750; 1.15414E-4
6626.953125; 1.22872E-4
6632.812500; 1.17619E-4
6638.671875; 1.14994E-4
6644.531250; 1.05212E-4
6650.390625; 9.31987E-5
6656.250000; 9.99673E-5
6662.109375; 1.05338E-4
6667.968750; 1.07284E-4
6673.828125; 1.15988E-4
6679.687500; 1.15089E-4
6685.546875; 1.00622E-4
6691.406250; 1.11826E-4
6697.265625; 1.07312E-4
6703.125000; 1.07816E-4
6708.984375; 1.18993E-4
6714.843750; 1.07351E-4
6720.703125; 1.00089E-4
6726.562500; 1.02994E-4
6732.421875; 1.10717E-4
6738.281250; 1.17294E-4
6744.140625; 1.20997E-4
6750.000000; 1.14510E-4
6755.859375; 1.14553E-4
6761.718750; 1.25251E-4
6767.578125; 1.22138E-4
6773.437500; 1.01853E-4
6779.296875; 1.13265E-4
6785.156250; 1.01202E-4
6791.015625; 1.04643E-4
6796.875000; 1.12611E-4
6802.734375; 9.82798E-5
6808.593750; 8.98277E-5
6814.453125; 1.04140E-4
6820.312500; 1.09226E-4
6826.171875; 1.02139E-4
6832.031250; 1.06329E-4
6837.890625; 1.06857E-4
6843.750000; 1.23288E-4
6849.609375; 1.15795E-4
6855.468750; 1.08476E-4
6861.328125; 1.08034E-4
6867.187500; 1.16462E-4
6873.046875; 1.15032E-4
6878.906250; 9.42917E-5
6884.765625; 1.06618E-4
6890.625000; 1.22354E-4
6896.484375; 1.10770E-4
6902.343750; 1.04585E-4
6908.203125; 1.04403E-4
6914.062500; 1.14749E-4
6919.921875; 1.09977E-4
6925.781250; 1.08750E-4
6931.640625; 1.03208E-4
6937.500000; 1.00980E-4
6943.359375; 1.11504E-4
6949.218750; 1.06447E-4
6955.078125; 1.05226E-4
6960.937500; 1.12261E-4
6966.796875; 1.15984E-4
6972.656250; 9.74519E-5
6978.515625; 1.14267E-4
6984.375000; 1.05454E-4
6990.234375; 1.04985E-4
6996.093750; 1.02293E-4
7001.953125; 9.67441E-5
7007.812500; 1.01903E-4
7013.671875; 1.10578E-4
7019.531250; 1.10871E-4
7025.390625; 1.07729E-4
7031.250000; 1.09925E-4
7037.109375; 1.00393E-4
7042.968750; 1.17119E-4
7048.828125; 1.05691E-4
7054.687500; 9.60683E-5
7060.546875; 9.39491E-5
7066.406250; 1.16767E-4
7072.265625; 1.18211E-4
7078.125000; 1.03099E-4
7083.984375; 9.97795E-5
7089.843750; 1.02759E-4
7095.703125; 1.08933E-4
7101.562500; 1.03457E-4
7107.421875; 1.03643E-4
7113.281250; 1.13929E-4
7119.140625; 1.13174E-4
7125.000000; 1.10009E-4
7130.859375; 1.19126E-4
7136.718750; 1.17962E-4
7142.578125; 1.05625E-4
7148.437500; 1.00480E-4
7154.296875; 1.10906E-4
7160.156250; 1.10596E-4
7166.015625; 1.11385E-4
7171.875000; 1.16718E-4
7177.734375; 1.12542E-4
7183.593750; 1.14284E-4
7189.453125; 1.09430E-4
7195.312500; 1.20289E-4
7201.171875; 1.22512E-4
7207.031250; 1.04685E-4
7212.890625; 9.34762E-5
7218.750000; 9.86491E-5
7224.609375; 1.04172E-4
7230.468750; 1.14459E-4
7236.328125; 9.97465E-5
7242.187500; 1.05820E-4
7248.046875; 1.01477E-4
7253.906250; 8.86050E-5
7259.765625; 1.15306E-4
7265.625000; 1.07152E-4
7271.484375; 9.84016E-5
7277.343750; 1.02389E-4
7283.203125; 1.00739E-4
7289.062500; 1.23274E-4
7294.921875; 1.15595E-4
7300.781250; 1.01297E-4
7306.640625; 9.86143E-5
7312.500000; 1.03265E-4
7318.359375; 1.04723E-4
7324.218750; 1.12804E-4
7330.078125; 1.14412E-4
7335.937500; 1.07585E-4
7341.796875; 1.10818E-4
7347.656250; 9.93923E-5
7353.515625; 9.81803E-5
7359.375000; 1.02313E-4
7365.234375; 1.07490E-4
7371.093750; 1.14389E-4
7376.953125; 1.00659E-4
7382.812500; 8.60732E-5
7388.671875; 1.11965E-4
7394.531250; 1.10126E-4
7400.390625; 1.18403E-4
7406.250000; 1.08390E-4
7412.109375; 1.09856E-4
7417.968750; 1.12029E-4
7423.828125; 1.14218E-4
7429.687500; 1.02912E-4
7435.546875; 8.60272E-5
7441.406250; 9.86666E-5
7447.265625; 1.06434E-4
7453.125000; 9.66956E-5
7458.984375; 9.57698E-5
7464.843750; 1.04396E-4
7470.703125; 9.76864E-5
7476.562500; 1.10673E-4
7482.421875; 1.18644E-4
7488.281250; 1.23161E-4
7494.140625; 1.07435E-4
7500.000000; 1.08935E-4
7505.859375; 1.10372E-4
7511.718750; 1.02823E-4
7517.578125; 1.08535E-4
7523.437500; 1.11537E-4
7529.296875; 9.64565E-5
7535.156250; 1.13175E-4
7541.015625; 1.10938E-4
7546.875000; 1.00663E-4
7552.734375; 9.64316E-5
7558.593750; 1.05217E-4
7564.453125; 1.05543E-4
7570.312500; 1.12332E-4
7576.171875; 1.10429E-4
7582.031250; 1.04621E-4
7587.890625; 1.07930E-4
7593.750000; 1.05911E-4
7599.609375; 1.00551E-4
7605.468750; 1.20891E-4
7611.328125; 1.05576E-4
7617.187500; 1.03556E-4
7623.046875; 1.14195E-4
7628.906250; 1.16732E-4
7634.765625; 1.02390E-4
7640.625000; 9.97833E-5
7646.484375; 1.08307E-4
7652.343750; 1.02008E-4
7658.203125; 9.58005E-5
7664.062500; 1.10155E-4
7669.921875; 1.31326E-4
7675.781250; 1.14387E-4
7681.640625; 1.09935E-4
7687.500000; 1.10445E-4
7693.359375; 9.99127E-5
7699.218750; 1.02416E-4
7705.078125; 1.01569E-4
7710.937500; 1.08778E-4
7716.796875; 1.09214E-4
7722.656250; 1.12293E-4
7728.515625; 1.17123E-4
7734.375000; 1.14472E-4
7740.234375; 1.02698E-4
7746.093750; 9.81961E-5
7751.953125; 9.37171E-5
7757.812500; 9.66202E-5
7763.671875; 1.09468E-4
7769.531250; 1.08842E-4
7775.390625; 1.09555E-4
7781.250000; 1.02480E-4
7787.109375; 1.10156E-4
7792.968750; 1.13881E-4
7798.828125; 1.04304E-4
7804.687500; 9.75455E-5
7810.546875; 9.80743E-5
7816.406250; 1.04843E-4
7822.265625; 1.00708E-4
7828.125000; 1.09005E-4
7833.984375; 1.16220E-4
7839.843750; 1.18392E-4
7845.703125; 1.12036E-4
7851.562500; 9.89503E-5
7857.421875; 1.07861E-4
7863.281250; 1.15946E-4
7869.140625; 1.12235E-4
7875.000000; 1.10630E-4
7880.859375; 1.09723E-4
7886.718750; 1.12311E-4
7892.578125; 9.81279E-5
7898.437500; 9.67050E-5
7904.296875; 1.16064E-4
7910.156250; 1.21998E-4
7916.015625; 1.07101E-4
7921.875000; 9.91652E-5
7927.734375; 1.12546E-4
7933.593750; 1.16289E-4
7939.453125; 9.21903E-5
7945.312500; 1.10738E-4
7951.171875; 1.17484E-4
7957.031250; 1.14884E-4
7962.890625; 1.09649E-4
7968.750000; 1.08151E-4
7974.609375; 1.16796E-4
7980.468750; 1.26777E-4
7986.328125; 1.15262E-4
7992.187500; 1.02590E-4
7998.046875; 1.07758E-4
8003.906250; 1.05527E-4
8009.765625; 1.20004E-4
8015.625000; 1.13880E-4
8021.484375; 1.02047E-4
8027.343750; 1.08558E-4
8033.203125; 1.08321E-4
8039.062500; 1.06166E-4
8044.921875; 1.13627E-4
8050.781250; 1.06624E-4
8056.640625; 1.12036E-4
8062.500000; 1.23090E-4
8068.359375; 1.14211E-4
8074.218750; 1.03609E-4
8080.078125; 1.08384E-4
8085.937500; 1.20857E-4
8091.796875; 1.24916E-4
8097.656250; 1.02101E-4
8103.515625; 9.60082E-5
8109.375000; 1.15736E-4
8115.234375; 1.18996E-4
8121.093750; 1.15837E-4
8126.953125; 1.03258E-4
8132.812500; 1.11728E-4
8138.671875; 1.00334E-4
8144.531250; 1.11514E-4
8150.390625; 1.16351E-4
8156.250000; 1.25137E-4
8162.109375; 1.17399E-4
8167.968750; 1.07571E-4
8173.828125; 1.23000E-4
8179.687500; 1.16667E-4
8185.546875; 9.21131E-5
8191.406250; 9.16752E-5
8197.265625; 9.35100E-5
8203.125000; 9.67522E-5
8208.984375; 9.41138E-5
8214.843750; 9.18602E-5
8220.703125; 9.51072E-5
8226.562500; 9.80544E-5
8232.421875; 1.06489E-4
8238.281250; 1.13610E-4
8244.140625; 1.08985E-4
8250.000000; 9.83016E-5
8255.859375; 9.99858E-5
8261.718750; 1.03913E-4
8267.578125; 1.09854E-4
8273.437500; 1.04631E-4
8279.296875; 1.12438E-4
8285.156250; 1.10104E-4
8291.015625; 1.09775E-4
8296.875000; 1.15431E-4
8302.734375; 1.20365E-4
8308.593750; 1.19722E-4
8314.453125; 1.09676E-4
8320.312500; 1.03406E-4
8326.171875; 1.00363E-4
8332.031250; 1.06735E-4
8337.890625; 1.14278E-4
8343.750000; 9.61162E-5
8349.609375; 1.08642E-4
8355.468750; 1.11273E-4
8361.328125; 1.15088E-4
8367.187500; 1.22070E-4
8373.046875; 1.02351E-4
8378.906250; 9.60169E-5
8384.765625; 1.06590E-4
8390.625000; 1.03409E-4
8396.484375; 1.01093E-4
8402.343750; 1.02959E-4
8408.203125; 1.04058E-4
8414.062500; 1.10600E-4
8419.921875; 1.05588E-4
8425.781250; 1.08789E-4
8431.640625; 1.10040E-4
8437.500000; 1.10356E-4
8443.359375; 1.07202E-4
8449.218750; 1.10684E-4
8455.078125; 1.13166E-4
8460.937500; 1.13042E-4
8466.796875; 1.17230E-4
8472.656250; 1.12080E-4
8478.515625; 9.63085E-5
8484.375000; 1.00212E-4
8490.234375; 9.93560E-5
8496.093750; 1.09572E-4
8501.953125; 1.04843E-4
8507.812500; 1.04989E-4
8513.671875; 1.08804E-4
8519.531250; 1.04053E-4
8525.390625; 1.00725E-4
8531.250000; 1.02937E-4
8537.109375; 9.28698E-5
8542.968750; 1.00298E-4
8548.828125; 1.21661E-4
8554.687500; 1.19491E-4
8560.546875; 1.08415E-4
8566.406250; 1.14765E-4
8572.265625; 1.04620E-4
8578.125000; 1.07397E-4
8583.984375; 1.14353E-4
8589.843750; 1.20586E-4
8595.703125; 1.05355E-4
8601.562500; 1.03846E-4
8607.421875; 1.22308E-4
8613.281250; 1.22477E-4
8619.140625; 1.26610E-4
8625.000000; 1.07969E-4
8630.859375; 9.58526E-5
8636.718750; 9.48046E-5
8642.578125; 1.02023E-4
8648.437500; 1.09138E-4
8654.296875; 1.10418E-4
8660.156250; 1.01663E-4
8666.015625; 1.04700E-4
8671.875000; 1.00683E-4
8677.734375; 1.12929E-4
8683.593750; 1.10850E-4
8689.453125; 1.11350E-4
8695.312500; 1.13168E-4
8701.171875; 1.22316E-4
8707.031250; 1.12466E-4
8712.890625; 1.06398E-4
8718.750000; 1.06427E-4
8724.609375; 9.77391E-5
8730.468750; 9.87189E-5
8736.328125; 1.01353E-4
8742.187500; 1.09485E-4
8748.046875; 1.09231E-4
8753.906250; 1.20363E-4
8759.765625; 1.18062E-4
8765.625000; 1.02874E-4
8771.484375; 1.08821E-4
8777.343750; 1.09864E-4
8783.203125; 9.97984E-5
8789.062500; 9.40599E-5
8794.921875; 8.83067E-5
8800.781250; 1.02007E-4
8806.640625; 1.09261E-4
8812.500000; 1.01605E-4
8818.359375; 9.63231E-5
8824.218750; 9.21398E-5
8830.078125; 8.68333E-5
8835.937500; 1.03730E-4
8841.796875; 1.15125E-4
8847.656250; 1.08198E-4
8853.515625; 1.13746E-4
8859.375000; 1.00155E-4
8865.234375; 1.15716E-4
8871.093750; 1.30942E-4
8876.953125; 1.24113E-4
8882.812500; 9.80147E-5
8888.671875; 9.64984E-5
8894.531250; 1.04341E-4
8900.390625; 1.05629E-4
8906.250000; 1.18379E-4
8912.109375; 1.21009E-4
8917.968750; 1.10670E-4
8923.828125; 1.02887E-4
8929.687500; 9.86492E-5
8935.546875; 1.05382E-4
8941.406250; 1.03978E-4
8947.265625; 9.72743E-5
8953.125000; 9.32442E-5
8958.984375; 9.92725E-5
8964.843750; 1.02989E-4
8970.703125; 1.04496E-4
8976.562500; 9.65511E-5
8982.421875; 9.54881E-5
8988.281250; 1.00292E-4
8994.140625; 1.00642E-4
9000.000000; 1.14871E-4
9005.859375; 1.05072E-4
9011.718750; 9.87166E-5
9017.578125; 1.08704E-4
9023.437500; 1.12106E-4
9029.296875; 1.01110E-4
9035.156250; 9.98441E-5
9041.015625; 1.04612E-4
9046.875000; 1.02588E-4
9052.734375; 1.00558E-4
9058.593750; 1.12915E-4
9064.453125; 1.21523E-4
9070.312500; 1.20125E-4
9076.171875; 1.14209E-4
9082.031250; 1.00426E-4
9087.890625; 1.04804E-4
9093.750000; 1.09395E-4
9099.609375; 1.10719E-4
9105.468750; 1.14300E-4
9111.328125; 1.01617E-4
9117.187500; 9.61243E-5
9123.046875; 9.00704E-5
9128.906250; 9.82395E-5
9134.765625; 1.06481E-4
9140.625000; 1.14020E-4
9146.484375; 1.05282E-4
9152.343750; 1.10655E-4
9158.203125; 1.07755E-4
9164.062500; 1.09071E-4
9169.921875; 1.21411E-4
9175.781250; 1.13771E-4
9181.640625; 1.16975E-4
9187.500000; 1.08590E-4
9193.359375; 1.00488E-4
9199.218750; 9.59279E-5
9205.078125; 9.79729E-5
9210.937500; 1.06381E-4
9216.796875; 1.11180E-4
9222.656250; 1.17110E-4
9228.515625; 1.16673E-4
9234.375000; 1.08881E-4
9240.234375; 1.11841E-4
9246.093750; 1.09588E-4
9251.953125; 1.00555E-4
9257.812500; 9.66642E-5
9263.671875; 9.91579E-5
9269.531250; 9.92799E-5
9275.390625; 1.06232E-4
9281.250000; 1.10775E-4
9287.109375; 9.28156E-5
9292.968750; 9.63078E-5
9298.828125; 1.12153E-4
9304.687500; 1.12946E-4
9310.546875; 1.01499E-4
9316.406250; 1.08011E-4
9322.265625; 1.19705E-4
9328.125000; 1.24598E-4
9333.984375; 1.02524E-4
9339.843750; 1.03650E-4
9345.703125; 1.07436E-4
9351.562500; 9.95321E-5
9357.421875; 1.08046E-4
9363.281250; 9.87669E-5
9369.140625; 1.08732E-4
9375.000000; 1.08066E-4
9380.859375; 1.00252E-4
9386.718750; 1.10934E-4
9392.578125; 1.04983E-4
9398.437500; 1.07973E-4
9404.296875; 1.08033E-4
9410.156250; 1.03806E-4
9416.015625; 8.46118E-5
9421.875000; 9.41827E-5
9427.734375; 1.03671E-4
9433.593750; 1.02025E-4
9439.453125; 1.01872E-4
9445.312500; 9.94299E-5
9451.171875; 1.08762E-4
9457.031250; 1.14688E-4
9462.890625; 1.12987E-4
9468.750000; 1.16648E-4
9474.609375; 1.09366E-4
9480.468750; 1.06821E-4
9486.328125; 9.23375E-5
9492.187500; 1.13188E-4
9498.046875; 1.15726E-4
9503.906250; 1.12213E-4
9509.765625; 1.10248E-4
9515.625000; 1.08646E-4
9521.484375; 1.02110E-4
9527.343750; 1.02582E-4
9533.203125; 1.00463E-4
9539.062500; 1.14825E-4
9544.921875; 1.02004E-4
9550.781250; 1.01587E-4
9556.640625; 1.00553E-4
9562.500000; 9.90512E-5
9568.359375; 1.09950E-4
9574.218750; 1.07772E-4
9580.078125; 1.13044E-4
9585.937500; 1.04953E-4
9591.796875; 1.14760E-4
9597.656250; 1.17202E-4
9603.515625; 1.07784E-4
9609.375000; 9.71871E-5
9615.234375; 1.01416E-4
9621.093750; 9.56773E-5
9626.953125; 1.00421E-4
9632.812500; 1.08234E-4
9638.671875; 1.19608E-4
9644.531250; 1.12904E-4
9650.390625; 9.56888E-5
9656.250000; 1.04922E-4
9662.109375; 1.11191E-4
9667.968750; 1.09457E-4
9673.828125; 1.02264E-4
9679.687500; 9.68549E-5
9685.546875; 9.90760E-5
9691.406250; 1.02866E-4
9697.265625; 1.13278E-4
9703.125000; 1.18559E-4
9708.984375; 1.14630E-4
9714.843750; 1.06624E-4
9720.703125; 1.09095E-4
9726.562500; 1.13614E-4
9732.421875; 9.87181E-5
9738.281250; 9.90902E-5
9744.140625; 9.90264E-5
9750.000000; 1.03072E-4
9755.859375; 1.02347E-4
9761.718750; 9.50059E-5
9767.578125; 1.01147E-4
9773.437500; 9.99363E-5
9779.296875; 9.87032E-5
9785.156250; 1.05410E-4
9791.015625; 1.13201E-4
9796.875000; 1.03022E-4
9802.734375; 9.19950E-5
9808.593750; 1.02651E-4
9814.453125; 1.15969E-4
9820.312500; 1.13633E-4
9826.171875; 1.03766E-4
9832.031250; 1.08960E-4
9837.890625; 1.12964E-4
9843.750000; 1.05003E-4
9849.609375; 1.14943E-4
9855.468750; 1.14915E-4
9861.328125; 1.04589E-4
9867.187500; 1.11517E-4
9873.046875; 1.13526E-4
9878.906250; 1.12512E-4
9884.765625; 1.06236E-4
9890.625000; 1.04326E-4
9896.484375; 1.04266E-4
9902.343750; 1.28800E-4
9908.203125; 1.26034E-4
9914.062500; 1.02090E-4
9919.921875; 1.00072E-4
9925.781250; 9.48000E-5
9931.640625; 1.09477E-4
9937.500000; 1.16230E-4
9943.359375; 1.24942E-4
9949.218750; 1.06769E-4
9955.078125; 8.63105E-5
9960.937500; 9.86161E-5
9966.796875; 1.17372E-4
9972.656250; 1.16421E-4
9978.515625; 1.15982E-4
9984.375000; 1.10051E-4
9990.234375; 1.07447E-4
9996.093750; 1.20749E-4
10001.953125; 1.06451E-4
10007.812500; 9.32524E-5
10013.671875; 9.97849E-5
10019.531250; 1.15934E-4
10025.390625; 1.21920E-4
10031.250000; 1.06140E-4
10037.109375; 9.29711E-5
10042.968750; 9.23396E-5
10048.828125; 9.55797E-5
10054.687500; 1.01512E-4
10060.546875; 1.07248E-4
10066.406250; 1.12022E-4
10072.265625; 1.15215E-4
10078.125000; 1.03256E-4
10083.984375; 9.96888E-5
10089.843750; 9.71879E-5
10095.703125; 1.17476E-4
10101.562500; 1.14885E-4
10107.421875; 1.09622E-4
10113.281250; 1.14946E-4
10119.140625; 1.23651E-4
10125.000000; 1.25754E-4
10130.859375; 1.16688E-4
10136.718750; 1.16788E-4
10142.578125; 1.03242E-4
10148.437500; 1.05093E-4
10154.296875; 1.12185E-4
10160.156250; 1.03071E-4
10166.015625; 1.02575E-4
10171.875000; 1.08266E-4
10177.734375; 8.90154E-5
10183.593750; 9.57638E-5
10189.453125; 1.05816E-4
10195.312500; 1.08416E-4
10201.171875; 8.99264E-5
10207.031250; 1.14784E-4
10212.890625; 1.16995E-4
10218.750000; 1.10161E-4
10224.609375; 1.06929E-4
10230.468750; 1.00003E-4
10236.328125; 1.21514E-4
10242.187500; 1.21892E-4
10248.046875; 1.15449E-4
10253.906250; 9.95106E-5
10259.765625; 9.32475E-5
10265.625000; 1.02496E-4
10271.484375; 1.05717E-4
10277.343750; 9.96008E-5
10283.203125; 1.12496E-4
10289.062500; 1.02683E-4
10294.921875; 1.02917E-4
10300.781250; 1.06753E-4
10306.640625; 1.07321E-4
10312.500000; 1.01312E-4
10318.359375; 1.00700E-4
10324.218750; 9.57684E-5
10330.078125; 1.02565E-4
10335.937500; 1.03400E-4
10341.796875; 1.05730E-4
10347.656250; 1.08122E-4
10353.515625; 9.78251E-5
10359.375000; 1.12655E-4
10365.234375; 1.27255E-4
10371.093750; 1.22567E-4
10376.953125; 1.11412E-4
10382.812500; 9.47562E-5
10388.671875; 1.01825E-4
10394.531250; 1.09799E-4
10400.390625; 1.15352E-4
10406.250000; 1.09893E-4
10412.109375; 1.13022E-4
10417.968750; 1.23274E-4
10423.828125; 1.24493E-4
10429.687500; 1.04218E-4
10435.546875; 1.01100E-4
10441.406250; 1.01610E-4
10447.265625; 1.09777E-4
10453.125000; 1.05295E-4
10458.984375; 1.12749E-4
10464.843750; 1.09709E-4
10470.703125; 1.10025E-4
10476.562500; 1.02526E-4
10482.421875; 8.69898E-5
10488.281250; 9.12961E-5
10494.140625; 9.75535E-5
10500.000000; 1.00412E-4
10505.859375; 9.95140E-5
10511.718750; 1.10697E-4
10517.578125; 1.02486E-4
10523.437500; 1.02765E-4
10529.296875; 1.00684E-4
10535.156250; 8.65339E-5
10541.015625; 9.37905E-5
10546.875000; 9.81432E-5
10552.734375; 9.89685E-5
10558.593750; 9.94941E-5
10564.453125; 1.12418E-4
10570.312500; 1.06543E-4
10576.171875; 1.00236E-4
10582.031250; 1.11221E-4
10587.890625; 1.08515E-4
10593.750000; 1.11045E-4
10599.609375; 1.00927E-4
10605.468750; 9.49063E-5
10611.328125; 1.12095E-4
10617.187500; 1.05925E-4
10623.046875; 9.72636E-5
10628.906250; 1.04682E-4
10634.765625; 1.06191E-4
10640.625000; 1.13090E-4
10646.484375; 1.13595E-4
10652.343750; 1.02043E-4
10658.203125; 9.92278E-5
10664.062500; 9.28301E-5
10669.921875; 9.17324E-5
10675.781250; 1.10063E-4
10681.640625; 1.14112E-4
10687.500000; 1.00607E-4
10693.359375; 8.79444E-5
10699.218750; 9.24280E-5
10705.078125; 1.07456E-4
10710.937500; 1.04418E-4
10716.796875; 1.03908E-4
10722.656250; 9.87935E-5
10728.515625; 1.00017E-4
10734.375000; 1.14250E-4
10740.234375; 1.06224E-4
10746.093750; 1.01867E-4
10751.953125; 1.11803E-4
10757.812500; 1.06999E-4
10763.671875; 1.01778E-4
10769.531250; 1.00528E-4
10775.390625; 1.05213E-4
10781.250000; 1.05458E-4
10787.109375; 1.01394E-4
10792.968750; 1.10927E-4
10798.828125; 1.13939E-4
10804.687500; 1.11808E-4
10810.546875; 1.13604E-4
10816.406250; 1.09471E-4
10822.265625; 1.15750E-4
10828.125000; 1.23987E-4
10833.984375; 1.02249E-4
10839.843750; 1.00746E-4
10845.703125; 1.14721E-4
10851.562500; 1.13627E-4
10857.421875; 1.03287E-4
10863.281250; 1.04666E-4
10869.140625; 1.14874E-4
10875.000000; 1.12585E-4
10880.859375; 1.04169E-4
10886.718750; 1.05984E-4
10892.578125; 1.16084E-4
10898.437500; 1.15069E-4
10904.296875; 1.11343E-4
10910.156250; 1.07712E-4
10916.015625; 1.05436E-4
10921.875000; 1.13773E-4
10927.734375; 1.20295E-4
10933.593750; 1.22980E-4
10939.453125; 1.26835E-4
10945.312500; 1.14593E-4
10951.171875; 1.06450E-4
10957.031250; 9.42446E-5
10962.890625; 1.07535E-4
10968.750000; 1.13410E-4
10974.609375; 1.02717E-4
10980.468750; 1.03280E-4
10986.328125; 1.16289E-4
10992.187500; 1.13734E-4
10998.046875; 1.05475E-4
11003.906250; 1.07968E-4
11009.765625; 1.18491E-4
11015.625000; 1.06442E-4
11021.484375; 1.14815E-4
11027.343750; 1.08050E-4
11033.203125; 1.06961E-4
11039.062500; 1.02004E-4
11044.921875; 9.30303E-5
11050.781250; 1.06307E-4
11056.640625; 1.12942E-4
11062.500000; 9.73769E-5
11068.359375; 9.96199E-5
11074.218750; 1.03873E-4
11080.078125; 1.10710E-4
11085.937500; 1.09175E-4
11091.796875; 1.01194E-4
11097.656250; 9.77543E-5
11103.515625; 9.88053E-5
11109.375000; 9.95782E-5
11115.234375; 1.07657E-4
11121.093750; 1.13053E-4
11126.953125; 1.08972E-4
11132.812500; 1.07926E-4
11138.671875; 1.03449E-4
11144.531250; 1.00648E-4
11150.390625; 1.11863E-4
11156.250000; 1.19209E-4
11162.109375; 1.11764E-4
11167.968750; 1.14140E-4
11173.828125; 1.16955E-4
11179.687500; 1.10691E-4
11185.546875; 9.08444E-5
11191.406250; 9.04284E-5
11197.265625; 1.09143E-4
11203.125000; 1.04436E-4
11208.984375; 9.60752E-5
11214.843750; 9.24350E-5
11220.703125; 1.06125E-4
11226.562500; 1.04630E-4
11232.421875; 1.06705E-4
11238.281250; 1.16169E-4
11244.140625; 1.01302E-4
11250.000000; 1.04385E-4
11255.859375; 9.70308E-5
11261.718750; 1.06124E-4
11267.578125; 1.03751E-4
11273.437500; 9.85988E-5
11279.296875; 1.09952E-4
11285.156250; 9.92215E-5
11291.015625; 9.86855E-5
11296.875000; 9.15975E-5
11302.734375; 1.03342E-4
11308.593750; 9.01046E-5
11314.453125; 9.72870E-5
11320.312500; 9.74722E-5
11326.171875; 9.76055E-5
11332.031250; 1.15870E-4
11337.890625; 1.15166E-4
11343.750000; 1.15876E-4
11349.609375; 1.10471E-4
11355.468750; 1.04825E-4
11361.328125; 1.04946E-4
11367.187500; 1.09450E-4
11373.046875; 1.11033E-4
11378.906250; 9.98263E-5
11384.765625; 9.62439E-5
11390.625000; 9.02974E-5
11396.484375; 9.89249E-5
11402.343750; 9.37902E-5
11408.203125; 1.03463E-4
11414.062500; 1.22907E-4
11419.921875; 1.11928E-4
11425.781250; 9.73034E-5
11431.640625; 1.01402E-4
11437.500000; 1.18424E-4
11443.359375; 1.10940E-4
11449.218750; 1.02992E-4
11455.078125; 1.00411E-4
11460.937500; 1.06788E-4
11466.796875; 1.08229E-4
11472.656250; 1.09318E-4
11478.515625; 1.04290E-4
11484.375000; 9.88365E-5
11490.234375; 1.10964E-4
11496.093750; 1.14050E-4
11501.953125; 1.07877E-4
11507.812500; 1.05048E-4
11513.671875; 9.99833E-5
11519.531250; 9.53163E-5
11525.390625; 1.03097E-4
11531.250000; 1.03704E-4
11537.109375; 9.88896E-5
11542.968750; 1.03450E-4
11548.828125; 1.01734E-4
11554.687500; 1.01648E-4
11560.546875; 1.13340E-4
11566.406250; 1.00171E-4
11572.265625; 9.45164E-5
11578.125000; 1.00645E-4
11583.984375; 1.01574E-4
11589.843750; 1.16955E-4
11595.703125; 1.13366E-4
11601.562500; 1.20012E-4
11607.421875; 1.10710E-4
11613.281250; 1.02999E-4
11619.140625; 1.00057E-4
11625.000000; 9.62081E-5
11630.859375; 1.07019E-4
11636.718750; 1.08866E-4
11642.578125; 1.06251E-4
11648.437500; 9.78464E-5
11654.296875; 1.05823E-4
11660.156250; 1.11424E-4
11666.015625; 1.16732E-4
11671.875000; 1.00804E-4
11677.734375; 1.09963E-4
11683.593750; 1.11616E-4
11689.453125; 1.15482E-4
11695.312500; 1.13822E-4
11701.171875; 1.07026E-4
11707.031250; 1.05399E-4
11712.890625; 1.01599E-4
11718.750000; 1.06225E-4
11724.609375; 1.13506E-4
11730.468750; 1.10307E-4
11736.328125; 1.05419E-4
11742.187500; 1.12435E-4
11748.046875; 1.21659E-4
11753.906250; 1.16358E-4
11759.765625; 1.10900E-4
11765.625000; 1.09891E-4
11771.484375; 1.01811E-4
11777.343750; 9.82893E-5
11783.203125; 9.85686E-5
11789.062500; 9.93842E-5
11794.921875; 1.16145E-4
11800.781250; 1.14263E-4
11806.640625; 1.06036E-4
11812.500000; 1.09915E-4
11818.359375; 1.03485E-4
11824.218750; 1.07363E-4
11830.078125; 1.05108E-4
11835.937500; 1.09831E-4
11841.796875; 1.24777E-4
11847.656250; 1.08277E-4
11853.515625; 1.05648E-4
11859.375000; 1.06479E-4
11865.234375; 1.05908E-4
11871.093750; 1.04390E-4
11876.953125; 1.08144E-4
11882.812500; 1.19684E-4
11888.671875; 1.26436E-4
11894.531250; 1.07362E-4
11900.390625; 1.01562E-4
11906.250000; 1.02930E-4
11912.109375; 1.25166E-4
11917.968750; 1.17320E-4
11923.828125; 1.04645E-4
11929.687500; 1.14244E-4
11935.546875; 1.06847E-4
11941.406250; 1.17629E-4
11947.265625; 1.06520E-4
11953.125000; 8.92174E-5
11958.984375; 9.65207E-5
11964.843750; 1.17263E-4
11970.703125; 1.04989E-4
11976.562500; 1.00483E-4
11982.421875; 9.89246E-5
11988.281250; 9.94354E-5
11994.140625; 8.96422E-5
12000.000000; 1.04186E-4
12005.859375; 1.14818E-4
12011.718750; 1.11395E-4
12017.578125; 1.11541E-4
12023.437500; 1.03615E-4
12029.296875; 9.95684E-5
12035.156250; 1.14395E-4
12041.015625; 1.14436E-4
12046.875000; 1.09121E-4
12052.734375; 1.03442E-4
12058.593750; 1.09671E-4
12064.453125; 1.25733E-4
12070.312500; 1.18215E-4
12076.171875; 1.08193E-4
12082.031250; 1.00556E-4
12087.890625; 1.09780E-4
12093.750000; 1.22590E-4
12099.609375; 1.13307E-4
12105.468750; 1.07030E-4
12111.328125; 1.10747E-4
12117.187500; 1.13092E-4
12123.046875; 1.02942E-4
12128.906250; 1.00265E-4
12134.765625; 9.50482E-5
12140.625000; 1.11011E-4
12146.484375; 1.13979E-4
12152.343750; 9.94548E-5
12158.203125; 1.01655E-4
12164.062500; 8.79238E-5
12169.921875; 8.89934E-5
12175.781250; 1.04127E-4
12181.640625; 1.10350E-4
12187.500000; 1.08280E-4
12193.359375; 1.06201E-4
12199.218750; 1.03899E-4
12205.078125; 9.99733E-5
12210.937500; 1.04872E-4
12216.796875; 1.12583E-4
12222.656250; 1.10009E-4
12228.515625; 1.03910E-4
12234.375000; 1.10060E-4
12240.234375; 1.08096E-4
12246.093750; 9.98625E-5
12251.953125; 1.02297E-4
12257.812500; 1.12101E-4
12263.671875; 1.21074E-4
12269.531250; 1.20125E-4
12275.390625; 1.19502E-4
12281.250000; 1.07240E-4
12287.109375; 1.01920E-4
12292.968750; 1.06847E-4
12298.828125; 1.11020E-4
12304.687500; 1.04685E-4
12310.546875; 9.85135E-5
12316.406250; 9.72288E-5
12322.265625; 9.40732E-5
12328.125000; 1.10937E-4
12333.984375; 1.16610E-4
12339.843750; 1.10048E-4
12345.703125; 1.14912E-4
12351.562500; 1.14748E-4
12357.421875; 1.10030E-4
12363.281250; 1.05389E-4
12369.140625; 1.05369E-4
12375.000000; 9.01953E-5
12380.859375; 1.11616E-4
12386.718750; 1.05178E-4
12392.578125; 1.01565E-4
12398.437500; 9.99740E-5
12404.296875; 1.02618E-4
12410.156250; 1.00790E-4
12416.015625; 8.27087E-5
12421.875000; 1.00145E-4
12427.734375; 1.22031E-4
12433.593750; 1.15416E-4
12439.453125; 1.09313E-4
12445.312500; 9.53924E-5
12451.171875; 1.06703E-4
12457.031250; 1.06117E-4
12462.890625; 1.02190E-4
12468.750000; 1.07752E-4
12474.609375; 1.11554E-4
12480.468750; 1.13565E-4
12486.328125; 1.05530E-4
12492.187500; 1.07939E-4
12498.046875; 9.66139E-5
12503.906250; 1.08097E-4
12509.765625; 1.03017E-4
12515.625000; 1.15341E-4
12521.484375; 1.20375E-4
12527.343750; 1.12702E-4
12533.203125; 1.13589E-4
12539.062500; 1.09382E-4
12544.921875; 1.05323E-4
12550.781250; 1.04912E-4
12556.640625; 1.01841E-4
12562.500000; 1.02854E-4
12568.359375; 1.02097E-4
12574.218750; 1.09266E-4
12580.078125; 1.15107E-4
12585.937500; 1.13350E-4
12591.796875; 1.10073E-4
12597.656250; 9.82652E-5
12603.515625; 1.08348E-4
12609.375000; 1.20126E-4
12615.234375; 1.18368E-4
12621.093750; 1.11137E-4
12626.953125; 1.10747E-4
12632.812500; 1.05231E-4
12638.671875; 1.02930E-4
12644.531250; 1.00143E-4
12650.390625; 1.00627E-4
12656.250000; 1.03179E-4
12662.109375; 1.02365E-4
12667.968750; 1.15671E-4
12673.828125; 1.16086E-4
12679.687500; 1.06833E-4
12685.546875; 1.17989E-4
12691.406250; 1.21637E-4
12697.265625; 1.16333E-4
12703.125000; 1.04963E-4
12708.984375; 1.08715E-4
12714.843750; 1.04117E-4
12720.703125; 1.03856E-4
12726.562500; 9.14470E-5
12732.421875; 1.01898E-4
12738.281250; 1.01864E-4
12744.140625; 1.01387E-4
12750.000000; 1.03286E-4
12755.859375; 1.03737E-4
12761.718750; 1.06493E-4
12767.578125; 1.09661E-4
12773.437500; 1.18534E-4
12779.296875; 1.12149E-4
12785.156250; 9.26052E-5
12791.015625; 9.13014E-5
12796.875000; 1.02570E-4
12802.734375; 1.08578E-4
12808.593750; 1.16000E-4
12814.453125; 1.20143E-4
12820.312500; 1.19696E-4
12826.171875; 1.07968E-4
12832.031250; 1.09657E-4
12837.890625; 1.08621E-4
12843.750000; 9.21736E-5
12849.609375; 9.34798E-5
12855.468750; 1.03152E-4
12861.328125; 9.96823E-5
12867.187500; 1.11321E-4
12873.046875; 1.11622E-4
12878.906250; 1.10076E-4
12884.765625; 1.01112E-4
12890.625000; 9.73357E-5
12896.484375; 9.85639E-5
12902.343750; 8.96152E-5
12908.203125; 1.03192E-4
12914.062500; 1.05458E-4
12919.921875; 9.83480E-5
12925.781250; 1.04954E-4
12931.640625; 1.02341E-4
12937.500000; 1.07392E-4
12943.359375; 1.10746E-4
12949.218750; 1.06359E-4
12955.078125; 1.08689E-4
12960.937500; 1.17841E-4
12966.796875; 1.01683E-4
12972.656250; 1.10414E-4
12978.515625; 1.18970E-4
12984.375000; 1.07507E-4
12990.234375; 1.12954E-4
12996.093750; 1.09559E-4
13001.953125; 9.71782E-5
13007.812500; 1.09511E-4
13013.671875; 1.12547E-4
13019.531250; 9.58733E-5
13025.390625; 9.80741E-5
13031.250000; 1.09662E-4
13037.109375; 1.09453E-4
13042.968750; 1.10210E-4
13048.828125; 1.10022E-4
13054.687500; 1.06367E-4
13060.546875; 1.02866E-4
13066.406250; 1.03705E-4
13072.265625; 1.14982E-4
13078.125000; 1.18184E-4
13083.984375; 1.01458E-4
13089.843750; 9.93893E-5
13095.703125; 1.03809E-4
13101.562500; 1.05302E-4
13107.421875; 9.65847E-5
13113.281250; 1.07683E-4
13119.140625; 9.18627E-5
13125.000000; 8.30699E-5
13130.859375; 9.13555E-5
13136.718750; 1.00671E-4
13142.578125; 1.00399E-4
13148.437500; 1.07492E-4
13154.296875; 1.10443E-4
13160.156250; 1.05849E-4
13166.015625; 1.02953E-4
13171.875000; 9.69695E-5
13177.734375; 9.81586E-5
13183.593750; 9.80472E-5
13189.453125; 9.70504E-5
13195.312500; 1.08894E-4
13201.171875; 1.08682E-4
13207.031250; 1.05711E-4
13212.890625; 1.06483E-4
13218.750000; 1.05190E-4
13224.609375; 1.09720E-4
13230.468750; 1.07858E-4
13236.328125; 1.01657E-4
13242.187500; 1.10577E-4
13248.046875; 1.17837E-4
13253.906250; 1.13294E-4
13259.765625; 9.81006E-5
13265.625000; 9.32744E-5
13271.484375; 1.02545E-4
13277.343750; 9.87684E-5
13283.203125; 9.48829E-5
13289.062500; 9.33611E-5
13294.921875; 1.05445E-4
13300.781250; 1.16572E-4
13306.640625; 1.26637E-4
13312.500000; 1.11574E-4
13318.359375; 1.00457E-4
13324.218750; 9.69774E-5
13330.078125; 1.12436E-4
13335.937500; 1.14338E-4
13341.796875; 1.07197E-4
13347.656250; 1.09958E-4
13353.515625; 1.16932E-4
13359.375000; 1.15925E-4
13365.234375; 8.98614E-5
13371.093750; 9.10936E-5
13376.953125; 1.11232E-4
13382.812500; 1.29712E-4
13388.671875; 1.14865E-4
13394.531250; 1.08025E-4
13400.390625; 1.03118E-4
13406.250000; 9.06492E-5
13412.109375; 1.01162E-4
13417.968750; 1.03187E-4
13423.828125; 9.50178E-5
13429.687500; 9.51300E-5
13435.546875; 1.10766E-4
13441.406250; 1.16335E-4
13447.265625; 1.09059E-4
13453.125000; 9.89425E-5
13458.984375; 1.01876E-4
13464.843750; 1.06603E-4
13470.703125; 1.17660E-4
13476.562500; 1.10531E-4
13482.421875; 1.07931E-4
13488.281250; 1.18987E-4
13494.140625; 1.11189E-4
13500.000000; 1.11087E-4
13505.859375; 1.07212E-4
13511.718750; 9.98964E-5
13517.578125; 1.00658E-4
13523.437500; 1.02648E-4
13529.296875; 1.03416E-4
13535.156250; 1.02139E-4
13541.015625; 1.04035E-4
13546.875000; 1.14328E-4
13552.734375; 1.13166E-4
13558.593750; 1.04467E-4
13564.453125; 1.08677E-4
13570.312500; 1.11202E-4
13576.171875; 9.89684E-5
13582.031250; 1.01384E-4
13587.890625; 1.08964E-4
13593.750000; 1.07023E-4
13599.609375; 1.10550E-4
13605.468750; 1.14091E-4
13611.328125; 1.08338E-4
13617.187500; 1.21927E-4
13623.046875; 1.17230E-4
13628.906250; 1.05644E-4
13634.765625; 9.74028E-5
13640.625000; 1.09284E-4
13646.484375; 1.05312E-4
13652.343750; 1.06158E-4
13658.203125; 1.05917E-4
13664.062500; 1.08158E-4
13669.921875; 1.12338E-4
13675.781250; 1.15244E-4
13681.640625; 1.00406E-4
13687.500000; 1.02279E-4
13693.359375; 9.42219E-5
13699.218750; 1.12028E-4
13705.078125; 1.13895E-4
13710.937500; 1.11288E-4
13716.796875; 1.10810E-4
13722.656250; 1.02636E-4
13728.515625; 1.09415E-4
13734.375000; 1.12819E-4
13740.234375; 1.07664E-4
13746.093750; 1.18766E-4
13751.953125; 1.16394E-4
13757.812500; 1.05953E-4
13763.671875; 9.86145E-5
13769.531250; 1.13561E-4
13775.390625; 1.21979E-4
13781.250000; 1.10656E-4
13787.109375; 9.74375E-5
13792.968750; 9.59672E-5
13798.828125; 1.04368E-4
13804.687500; 9.38362E-5
13810.546875; 1.14135E-4
13816.406250; 1.22904E-4
13822.265625; 1.06506E-4
13828.125000; 1.05521E-4
13833.984375; 1.12381E-4
13839.843750; 1.26998E-4
13845.703125; 1.15243E-4
13851.562500; 9.71538E-5
13857.421875; 8.61232E-5
13863.281250; 9.64150E-5
13869.140625; 1.06646E-4
13875.000000; 1.00074E-4
13880.859375; 1.10032E-4
13886.718750; 1.20599E-4
13892.578125; 1.16897E-4
13898.437500; 1.11112E-4
13904.296875; 1.08426E-4
13910.156250; 9.89320E-5
13916.015625; 1.16407E-4
13921.875000; 1.27310E-4
13927.734375; 1.12440E-4
13933.593750; 9.75095E-5
13939.453125; 1.01794E-4
13945.312500; 1.18761E-4
13951.171875; 1.24679E-4
13957.031250; 1.09466E-4
13962.890625; 9.66310E-5
13968.750000; 1.06719E-4
13974.609375; 9.76481E-5
13980.468750; 1.04843E-4
13986.328125; 1.05700E-4
13992.187500; 1.00433E-4
13998.046875; 1.08509E-4
14003.906250; 1.15325E-4
14009.765625; 1.12362E-4
14015.625000; 1.00200E-4
14021.484375; 1.05470E-4
14027.343750; 1.00335E-4
14033.203125; 9.97542E-5
14039.062500; 9.44273E-5
14044.921875; 8.65169E-5
14050.781250; 9.44504E-5
14056.640625; 1.08489E-4
14062.500000; 1.08445E-4
14068.359375; 1.11352E-4
14074.218750; 1.11731E-4
14080.078125; 1.08899E-4
14085.937500; 1.05242E-4
14091.796875; 1.12031E-4
14097.656250; 1.17125E-4
14103.515625; 1.08689E-4
14109.375000; 1.06427E-4
14115.234375; 1.01192E-4
14121.093750; 9.64889E-5
14126.953125; 1.07448E-4
14132.812500; 1.08895E-4
14138.671875; 1.08980E-4
14144.531250; 1.15617E-4
14150.390625; 1.21744E-4
14156.250000; 1.10227E-4
14162.109375; 1.05432E-4
14167.968750; 9.79018E-5
14173.828125; 8.82852E-5
14179.687500; 9.34939E-5
14185.546875; 1.06193E-4
14191.406250; 1.01889E-4
14197.265625; 1.05266E-4
14203.125000; 1.06225E-4
14208.984375; 1.04294E-4
14214.843750; 1.07915E-4
14220.703125; 1.20737E-4
14226.562500; 1.09739E-4
14232.421875; 1.11940E-4
14238.281250; 1.09339E-4
14244.140625; 9.94000E-5
14250.000000; 1.03886E-4
14255.859375; 1.07168E-4
14261.718750; 1.21126E-4
14267.578125; 1.18576E-4
14273.437500; 9.94692E-5
14279.296875; 9.79940E-5
14285.156250; 9.39747E-5
14291.015625; 9.05425E-5
14296.875000; 1.19347E-4
14302.734375; 1.09478E-4
14308.593750; 1.08750E-4
14314.453125; 1.22567E-4
14320.312500; 1.06896E-4
14326.171875; 8.96585E-5
14332.031250; 1.09031E-4
14337.890625; 1.04705E-4
14343.750000; 9.70117E-5
14349.609375; 1.05917E-4
14355.468750; 1.05143E-4
14361.328125; 1.09347E-4
14367.187500; 1.03646E-4
14373.046875; 9.60139E-5
14378.906250; 1.07322E-4
14384.765625; 1.03479E-4
14390.625000; 9.95153E-5
14396.484375; 1.00958E-4
14402.343750; 1.01653E-4
14408.203125; 9.72814E-5
14414.062500; 1.08893E-4
14419.921875; 1.01187E-4
14425.781250; 1.00672E-4
14431.640625; 1.04262E-4
14437.500000; 1.04490E-4
14443.359375; 1.09060E-4
14449.218750; 1.04314E-4
14455.078125; 1.01480E-4
14460.937500; 1.06964E-4
14466.796875; 1.03188E-4
14472.656250; 8.61153E-5
14478.515625; 1.11601E-4
14484.375000; 1.23643E-4
14490.234375; 1.12689E-4
14496.093750; 1.00542E-4
14501.953125; 1.01758E-4
14507.812500; 9.27450E-5
14513.671875; 9.34414E-5
14519.531250; 9.82423E-5
14525.390625; 9.87568E-5
14531.250000; 1.02766E-4
14537.109375; 1.03508E-4
14542.968750; 1.07316E-4
14548.828125; 1.08977E-4
14554.687500; 1.08657E-4
14560.546875; 1.06761E-4
14566.406250; 1.03037E-4
14572.265625; 1.06237E-4
14578.125000; 1.00028E-4
14583.984375; 1.07341E-4
14589.843750; 9.90742E-5
14595.703125; 9.41266E-5
14601.562500; 1.09410E-4
14607.421875; 1.13385E-4
14613.281250; 1.03115E-4
14619.140625; 9.84911E-5
14625.000000; 9.32570E-5
14630.859375; 1.04668E-4
14636.718750; 1.06864E-4
14642.578125; 1.02677E-4
14648.437500; 9.84284E-5
14654.296875; 1.06480E-4
14660.156250; 1.13258E-4
14666.015625; 1.16815E-4
14671.875000; 1.01688E-4
14677.734375; 1.03421E-4
14683.593750; 9.16218E-5
14689.453125; 9.53327E-5
14695.312500; 1.07981E-4
14701.171875; 1.08545E-4
14707.031250; 1.05594E-4
14712.890625; 9.47784E-5
14718.750000; 9.61679E-5
14724.609375; 1.10897E-4
14730.468750; 1.09838E-4
14736.328125; 1.02252E-4
14742.187500; 1.01705E-4
14748.046875; 1.03888E-4
14753.906250; 1.08701E-4
14759.765625; 1.00092E-4
14765.625000; 8.74685E-5
14771.484375; 1.05174E-4
14777.343750; 1.07149E-4
14783.203125; 1.06301E-4
14789.062500; 1.03519E-4
14794.921875; 9.55896E-5
14800.781250; 9.79474E-5
14806.640625; 1.10840E-4
14812.500000; 1.19924E-4
14818.359375; 9.91211E-5
14824.218750; 9.40850E-5
14830.078125; 9.76876E-5
14835.937500; 1.01079E-4
14841.796875; 1.02947E-4
14847.656250; 1.06159E-4
14853.515625; 1.00605E-4
14859.375000; 9.87194E-5
14865.234375; 1.07323E-4
14871.093750; 1.12052E-4
14876.953125; 1.08105E-4
14882.812500; 1.08704E-4
14888.671875; 1.13588E-4
14894.531250; 1.05745E-4
14900.390625; 1.04401E-4
14906.250000; 9.38770E-5
14912.109375; 9.93005E-5
14917.968750; 1.04948E-4
14923.828125; 1.19500E-4
14929.687500; 1.22898E-4
14935.546875; 1.10415E-4
14941.406250; 9.55399E-5
14947.265625; 9.73100E-5
14953.125000; 1.06218E-4
14958.984375; 1.12420E-4
14964.843750; 1.00811E-4
14970.703125; 9.57894E-5
14976.562500; 1.08222E-4
14982.421875; 1.12506E-4
14988.281250; 1.09381E-4
14994.140625; 9.54291E-5
15000.000000; 1.06072E-4
15005.859375; 1.05291E-4
15011.718750; 9.92332E-5
15017.578125; 1.05516E-4
15023.437500; 1.01876E-4
15029.296875; 1.08190E-4
15035.156250; 1.16886E-4
15041.015625; 1.12033E-4
15046.875000; 1.10679E-4
15052.734375; 1.08555E-4
15058.593750; 1.04810E-4
15064.453125; 8.98843E-5
15070.312500; 8.97720E-5
15076.171875; 1.14944E-4
15082.031250; 1.24292E-4
15087.890625; 1.19335E-4
15093.750000; 1.23018E-4
15099.609375; 1.19555E-4
15105.468750; 1.08714E-4
15111.328125; 1.19370E-4
15117.187500; 1.07765E-4
15123.046875; 9.12716E-5
15128.906250; 9.75864E-5
15134.765625; 1.07759E-4
15140.625000; 1.08529E-4
15146.484375; 1.11173E-4
15152.343750; 1.08124E-4
15158.203125; 1.19776E-4
15164.062500; 1.03562E-4
15169.921875; 9.91035E-5
15175.781250; 1.01784E-4
15181.640625; 1.06825E-4
15187.500000; 1.13361E-4
15193.359375; 1.15598E-4
15199.218750; 9.46140E-5
15205.078125; 1.02636E-4
15210.937500; 1.08048E-4
15216.796875; 1.10867E-4
15222.656250; 1.06665E-4
15228.515625; 9.72108E-5
15234.375000; 1.07281E-4
15240.234375; 1.07712E-4
15246.093750; 9.46976E-5
15251.953125; 1.00927E-4
15257.812500; 1.03716E-4
15263.671875; 1.07781E-4
15269.531250; 1.06056E-4
15275.390625; 1.09110E-4
15281.250000; 1.24397E-4
15287.109375; 1.24338E-4
15292.968750; 1.14065E-4
15298.828125; 9.66088E-5
15304.687500; 9.32157E-5
15310.546875; 1.01113E-4
15316.406250; 1.03569E-4
15322.265625; 9.78457E-5
15328.125000; 9.95496E-5
15333.984375; 1.09535E-4
15339.843750; 1.01863E-4
15345.703125; 9.27711E-5
15351.562500; 1.06262E-4
15357.421875; 1.12639E-4
15363.281250; 1.12921E-4
15369.140625; 1.11840E-4
15375.000000; 1.20847E-4
15380.859375; 1.17922E-4
15386.718750; 1.04958E-4
15392.578125; 1.07186E-4
15398.437500; 1.09835E-4
15404.296875; 1.12215E-4
15410.156250; 1.10052E-4
15416.015625; 1.08330E-4
15421.875000; 1.07879E-4
15427.734375; 9.73908E-5
15433.593750; 9.00212E-5
15439.453125; 9.63425E-5
15445.312500; 9.57505E-5
15451.171875; 1.01749E-4
15457.031250; 1.12954E-4
15462.890625; 1.13874E-4
15468.750000; 1.21336E-4
15474.609375; 1.23346E-4
15480.468750; 1.20158E-4
15486.328125; 1.05742E-4
15492.187500; 1.13177E-4
15498.046875; 1.01633E-4
15503.906250; 9.98890E-5
15509.765625; 1.09922E-4
15515.625000; 1.14300E-4
15521.484375; 1.04994E-4
15527.343750; 1.02316E-4
15533.203125; 1.14798E-4
15539.062500; 1.16388E-4
15544.921875; 1.06548E-4
15550.781250; 1.04557E-4
15556.640625; 1.11578E-4
15562.500000; 9.94295E-5
15568.359375; 1.05339E-4
15574.218750; 9.99471E-5
15580.078125; 9.01642E-5
15585.937500; 9.90169E-5
15591.796875; 1.02922E-4
15597.656250; 1.04102E-4
15603.515625; 1.06441E-4
15609.375000; 1.02033E-4
15615.234375; 9.72977E-5
15621.093750; 9.83631E-5
15626.953125; 1.06468E-4
15632.812500; 1.14400E-4
15638.671875; 1.23963E-4
15644.531250; 1.27237E-4
15650.390625; 1.07522E-4
15656.250000; 8.22913E-5
15662.109375; 1.01968E-4
15667.968750; 1.09671E-4
15673.828125; 9.20754E-5
15679.687500; 9.97040E-5
15685.546875; 1.12455E-4
15691.406250; 1.15933E-4
15697.265625; 1.07683E-4
15703.125000; 1.04926E-4
15708.984375; 1.05616E-4
15714.843750; 1.02549E-4
15720.703125; 1.05437E-4
15726.562500; 9.55326E-5
15732.421875; 1.04096E-4
15738.281250; 1.05719E-4
15744.140625; 1.09543E-4
15750.000000; 1.06526E-4
15755.859375; 1.19784E-4
15761.718750; 1.09638E-4
15767.578125; 1.02559E-4
15773.437500; 1.10541E-4
15779.296875; 1.06006E-4
15785.156250; 8.74683E-5
15791.015625; 8.90562E-5
15796.875000; 9.59643E-5
15802.734375; 1.00853E-4
15808.593750; 1.05098E-4
15814.453125; 1.06846E-4
15820.312500; 1.09319E-4
15826.171875; 1.12715E-4
15832.031250; 1.12562E-4
15837.890625; 1.10246E-4
15843.750000; 1.01973E-4
15849.609375; 8.80781E-5
15855.468750; 9.67768E-5
15861.328125; 1.01744E-4
15867.187500; 9.43333E-5
15873.046875; 9.79666E-5
15878.906250; 9.79738E-5
15884.765625; 1.03234E-4
15890.625000; 1.09377E-4
15896.484375; 9.81949E-5
15902.343750; 1.08440E-4
15908.203125; 1.12700E-4
15914.062500; 1.14465E-4
15919.921875; 1.04377E-4
15925.781250; 9.36223E-5
15931.640625; 9.22839E-5
15937.500000; 9.61262E-5
15943.359375; 1.08670E-4
15949.218750; 1.20270E-4
15955.078125; 1.07032E-4
15960.937500; 9.50899E-5
15966.796875; 1.04510E-4
15972.656250; 1.08211E-4
15978.515625; 1.08387E-4
15984.375000; 1.00626E-4
15990.234375; 9.79748E-5
15996.093750; 1.09473E-4
16001.953125; 9.64502E-5
16007.812500; 9.25311E-5
16013.671875; 1.12019E-4
16019.531250; 1.09046E-4
16025.390625; 1.01732E-4
16031.250000; 9.60064E-5
16037.109375; 8.45620E-5
16042.968750; 9.38202E-5
16048.828125; 1.03691E-4
16054.687500; 1.09613E-4
16060.546875; 1.17467E-4
16066.406250; 1.00679E-4
16072.265625; 9.60494E-5
16078.125000; 9.94679E-5
16083.984375; 9.68470E-5
16089.843750; 9.02765E-5
16095.703125; 1.06639E-4
16101.562500; 1.14091E-4
16107.421875; 1.11490E-4
16113.281250; 1.14153E-4
16119.140625; 1.06679E-4
16125.000000; 1.05623E-4
16130.859375; 1.06866E-4
16136.718750; 1.17883E-4
16142.578125; 1.21667E-4
16148.437500; 1.08501E-4
16154.296875; 1.04725E-4
16160.156250; 9.62265E-5
16166.015625; 9.94901E-5
16171.875000; 1.02210E-4
16177.734375; 1.10383E-4
16183.593750; 1.07120E-4
16189.453125; 1.07236E-4
16195.312500; 1.10886E-4
16201.171875; 1.14412E-4
16207.031250; 1.03123E-4
16212.890625; 1.11976E-4
16218.750000; 1.21055E-4
16224.609375; 1.09529E-4
16230.468750; 8.97439E-5
16236.328125; 1.01182E-4
16242.187500; 1.13841E-4
16248.046875; 1.14132E-4
16253.906250; 1.07861E-4
16259.765625; 1.04240E-4
16265.625000; 1.01952E-4
16271.484375; 1.02317E-4
16277.343750; 1.05775E-4
16283.203125; 9.26734E-5
16289.062500; 9.51969E-5
16294.921875; 1.03925E-4
16300.781250; 1.07353E-4
16306.640625; 1.01297E-4
16312.500000; 9.72550E-5
16318.359375; 9.25634E-5
16324.218750; 1.05786E-4
16330.078125; 1.03657E-4
16335.937500; 1.07908E-4
16341.796875; 1.03927E-4
16347.656250; 1.05951E-4
16353.515625; 1.03968E-4
16359.375000; 9.21620E-5
16365.234375; 1.05817E-4
16371.093750; 1.01154E-4
16376.953125; 9.87790E-5
16382.812500; 1.11963E-4
16388.671875; 1.05732E-4
16394.531250; 1.04233E-4
16400.390625; 1.07117E-4
16406.250000; 1.20487E-4
16412.109375; 1.12126E-4
16417.968750; 1.10925E-4
16423.828125; 1.03543E-4
16429.687500; 1.05423E-4
16435.546875; 1.07968E-4
16441.406250; 1.00822E-4
16447.265625; 1.12852E-4
16453.125000; 1.14054E-4
16458.984375; 1.19060E-4
16464.843750; 1.11220E-4
16470.703125; 1.07727E-4
16476.562500; 1.05044E-4
16482.421875; 1.06975E-4
16488.281250; 1.02586E-4
16494.140625; 8.59633E-5
16500.000000; 1.13229E-4
16505.859375; 1.06234E-4
16511.718750; 9.55237E-5
16517.578125; 1.00291E-4
16523.437500; 1.10733E-4
16529.296875; 1.17863E-4
16535.156250; 1.11934E-4
16541.015625; 1.08492E-4
16546.875000; 1.05986E-4
16552.734375; 1.02432E-4
16558.593750; 1.05426E-4
16564.453125; 1.09913E-4
16570.312500; 1.02644E-4
16576.171875; 1.11011E-4
16582.031250; 1.02277E-4
16587.890625; 9.67153E-5
16593.750000; 1.01147E-4
16599.609375; 9.81236E-5
16605.468750; 1.01944E-4
16611.328125; 1.16264E-4
16617.187500; 1.21535E-4
16623.046875; 1.11075E-4
16628.906250; 1.04498E-4
16634.765625; 9.19640E-5
16640.625000; 9.33211E-5
16646.484375; 9.90626E-5
16652.343750; 9.77762E-5
16658.203125; 1.08602E-4
16664.062500; 1.11059E-4
16669.921875; 1.11273E-4
16675.781250; 1.09450E-4
16681.640625; 1.09317E-4
16687.500000; 1.10747E-4
16693.359375; 1.10547E-4
16699.218750; 1.05456E-4
16705.078125; 9.02970E-5
16710.937500; 1.01040E-4
16716.796875; 1.05232E-4
16722.656250; 1.09091E-4
16728.515625; 1.03919E-4
16734.375000; 1.10720E-4
16740.234375; 1.05045E-4
16746.093750; 9.85193E-5
16751.953125; 1.10715E-4
16757.812500; 1.12325E-4
16763.671875; 1.05626E-4
16769.531250; 1.02912E-4
16775.390625; 9.92546E-5
16781.250000; 1.01750E-4
16787.109375; 1.05293E-4
16792.968750; 1.10211E-4
16798.828125; 1.08143E-4
16804.687500; 9.78645E-5
16810.546875; 1.07643E-4
16816.406250; 1.08186E-4
16822.265625; 1.06320E-4
16828.125000; 1.02714E-4
16833.984375; 9.49895E-5
16839.843750; 1.03865E-4
16845.703125; 1.12647E-4
16851.562500; 1.06974E-4
16857.421875; 9.02336E-5
16863.281250; 1.03250E-4
16869.140625; 1.08207E-4
16875.000000; 9.74791E-5
16880.859375; 1.03157E-4
16886.718750; 1.20824E-4
16892.578125; 1.22463E-4
16898.437500; 1.16576E-4
16904.296875; 1.13736E-4
16910.156250; 1.09161E-4
16916.015625; 1.13391E-4
16921.875000; 1.08485E-4
16927.734375; 1.10424E-4
16933.593750; 1.14403E-4
16939.453125; 1.16075E-4
16945.312500; 1.10075E-4
16951.171875; 9.35056E-5
16957.031250; 1.11288E-4
16962.890625; 1.10131E-4
16968.750000; 1.01255E-4
16974.609375; 9.54997E-5
16980.468750; 1.00179E-4
16986.328125; 1.14006E-4
16992.187500; 1.15094E-4
16998.046875; 1.05904E-4
17003.906250; 9.80133E-5
17009.765625; 1.02972E-4
17015.625000; 1.09360E-4
17021.484375; 1.15640E-4
17027.343750; 1.02495E-4
17033.203125; 9.88698E-5
17039.062500; 1.07585E-4
17044.921875; 1.06209E-4
17050.781250; 9.28129E-5
17056.640625; 1.09610E-4
17062.500000; 1.07612E-4
17068.359375; 9.53212E-5
17074.218750; 9.47378E-5
17080.078125; 9.39612E-5
17085.937500; 9.67187E-5
17091.796875; 9.88919E-5
17097.656250; 1.03518E-4
17103.515625; 1.10096E-4
17109.375000; 1.00915E-4
17115.234375; 1.02356E-4
17121.093750; 1.13074E-4
17126.953125; 9.82884E-5
17132.812500; 9.97819E-5
17138.671875; 1.01934E-4
17144.531250; 9.55920E-5
17150.390625; 9.72878E-5
17156.250000; 9.59926E-5
17162.109375; 1.00760E-4
17167.968750; 1.01446E-4
17173.828125; 1.06347E-4
17179.687500; 1.02610E-4
17185.546875; 1.02104E-4
17191.406250; 1.09619E-4
17197.265625; 1.03670E-4
17203.125000; 1.03283E-4
17208.984375; 1.05150E-4
17214.843750; 1.10189E-4
17220.703125; 1.02554E-4
17226.562500; 1.06614E-4
17232.421875; 1.08773E-4
17238.281250; 1.12787E-4
17244.140625; 1.08814E-4
17250.000000; 9.05924E-5
17255.859375; 9.76830E-5
17261.718750; 1.08000E-4
17267.578125; 1.02043E-4
17273.437500; 1.08858E-4
17279.296875; 9.98742E-5
17285.156250; 9.79546E-5
17291.015625; 9.24882E-5
17296.875000; 1.10464E-4
17302.734375; 9.14172E-5
17308.593750; 9.92124E-5
17314.453125; 1.03856E-4
17320.312500; 1.13706E-4
17326.171875; 1.28076E-4
17332.031250; 1.15588E-4
17337.890625; 9.37935E-5
17343.750000; 8.20338E-5
17349.609375; 9.94826E-5
17355.468750; 1.11286E-4
17361.328125; 1.18578E-4
17367.187500; 1.06208E-4
17373.046875; 1.13611E-4
17378.906250; 1.24088E-4
17384.765625; 1.17076E-4
17390.625000; 1.16468E-4
17396.484375; 9.94333E-5
17402.343750; 9.22443E-5
17408.203125; 1.12946E-4
17414.062500; 1.05754E-4
17419.921875; 1.03499E-4
17425.781250; 1.09111E-4
17431.640625; 1.09401E-4
17437.500000; 9.47427E-5
17443.359375; 9.22243E-5
17449.218750; 9.46919E-5
17455.078125; 1.02053E-4
17460.937500; 1.03219E-4
17466.796875; 1.06156E-4
17472.656250; 1.06557E-4
17478.515625; 1.09584E-4
17484.375000; 1.06218E-4
17490.234375; 1.05457E-4
17496.093750; 1.08799E-4
17501.953125; 1.02119E-4
17507.812500; 1.03361E-4
17513.671875; 1.00510E-4
17519.531250; 1.04480E-4
17525.390625; 1.20317E-4
17531.250000; 1.25425E-4
17537.109375; 1.10755E-4
17542.968750; 1.13154E-4
17548.828125; 1.12242E-4
17554.687500; 1.08262E-4
17560.546875; 9.79464E-5
17566.406250; 9.48498E-5
17572.265625; 1.10741E-4
17578.125000; 1.08543E-4
17583.984375; 1.06560E-4
17589.843750; 1.00700E-4
17595.703125; 9.76194E-5
17601.562500; 1.01105E-4
17607.421875; 9.43099E-5
17613.281250; 9.96116E-5
17619.140625; 9.73904E-5
17625.000000; 1.09344E-4
17630.859375; 1.09607E-4
17636.718750; 1.02803E-4
17642.578125; 1.04311E-4
17648.437500; 9.78972E-5
17654.296875; 1.05909E-4
17660.156250; 1.11043E-4
17666.015625; 1.15941E-4
17671.875000; 1.10208E-4
17677.734375; 1.17149E-4
17683.593750; 1.19001E-4
17689.453125; 1.19165E-4
17695.312500; 1.12870E-4
17701.171875; 1.13115E-4
17707.031250; 9.41188E-5
17712.890625; 9.60294E-5
17718.750000; 1.09948E-4
17724.609375; 1.10521E-4
17730.468750; 1.05988E-4
17736.328125; 1.03821E-4
17742.187500; 9.97672E-5
17748.046875; 9.58679E-5
17753.906250; 9.69467E-5
17759.765625; 1.01037E-4
17765.625000; 1.03486E-4
17771.484375; 1.12837E-4
17777.343750; 1.04276E-4
17783.203125; 9.54720E-5
17789.062500; 1.02879E-4
17794.921875; 1.07558E-4
17800.781250; 9.54975E-5
17806.640625; 9.11026E-5
17812.500000; 1.05734E-4
17818.359375; 1.10007E-4
17824.218750; 1.02501E-4
17830.078125; 9.69229E-5
17835.937500; 9.14635E-5
17841.796875; 9.88325E-5
17847.656250; 1.18555E-4
17853.515625; 1.06314E-4
17859.375000; 1.06183E-4
17865.234375; 1.16275E-4
17871.093750; 1.07622E-4
17876.953125; 9.76842E-5
17882.812500; 9.98461E-5
17888.671875; 1.06952E-4
17894.531250; 1.14212E-4
17900.390625; 1.11559E-4
17906.250000; 1.14148E-4
17912.109375; 9.52806E-5
17917.968750; 9.19703E-5
17923.828125; 8.88860E-5
17929.687500; 1.00569E-4
17935.546875; 1.04120E-4
17941.406250; 1.07485E-4
17947.265625; 1.09933E-4
17953.125000; 1.06884E-4
17958.984375; 1.08260E-4
17964.843750; 1.07350E-4
17970.703125; 1.12355E-4
17976.562500; 9.44669E-5
17982.421875; 1.04591E-4
17988.281250; 1.08907E-4
17994.140625; 9.39679E-5
18000.000000; 9.54947E-5
18005.859375; 1.04857E-4
18011.718750; 1.03055E-4
18017.578125; 9.85689E-5
18023.437500; 9.81791E-5
18029.296875; 1.06990E-4
18035.156250; 9.80577E-5
18041.015625; 8.98706E-5
18046.875000; 9.49839E-5
18052.734375; 1.05064E-4
18058.593750; 1.16744E-4
18064.453125; 1.12342E-4
18070.312500; 1.29123E-4
18076.171875; 1.14611E-4
18082.031250; 9.33191E-5
18087.890625; 1.04232E-4
18093.750000; 1.10380E-4
18099.609375; 1.07495E-4
18105.468750; 1.22730E-4
18111.328125; 1.16886E-4
18117.187500; 1.09457E-4
18123.046875; 1.09486E-4
18128.906250; 1.01687E-4
18134.765625; 1.03715E-4
18140.625000; 1.10424E-4
18146.484375; 1.16820E-4
18152.343750; 1.01565E-4
18158.203125; 1.01918E-4
18164.062500; 1.03911E-4
18169.921875; 1.06083E-4
18175.781250; 9.11545E-5
18181.640625; 8.79939E-5
18187.500000; 9.33876E-5
18193.359375; 1.19245E-4
18199.218750; 1.17476E-4
18205.078125; 1.07519E-4
18210.937500; 1.12356E-4
18216.796875; 1.14010E-4
18222.656250; 1.07414E-4
18228.515625; 9.89404E-5
18234.375000; 9.75390E-5
18240.234375; 9.83147E-5
18246.093750; 1.02337E-4
18251.953125; 9.98246E-5
18257.812500; 1.00787E-4
18263.671875; 1.05331E-4
18269.531250; 9.91114E-5
18275.390625; 1.08783E-4
18281.250000; 1.10021E-4
18287.109375; 1.10563E-4
18292.968750; 9.81642E-5
18298.828125; 1.11867E-4
18304.687500; 1.13051E-4
18310.546875; 1.08133E-4
18316.406250; 1.07526E-4
18322.265625; 1.05975E-4
18328.125000; 1.05905E-4
18333.984375; 1.04577E-4
18339.843750; 1.04914E-4
18345.703125; 9.53743E-5
18351.562500; 9.58031E-5
18357.421875; 1.09475E-4
18363.281250; 9.93173E-5
18369.140625; 9.66621E-5
18375.000000; 9.68560E-5
18380.859375; 1.01468E-4
18386.718750; 1.10715E-4
18392.578125; 1.16397E-4
18398.437500; 1.05154E-4
18404.296875; 9.40095E-5
18410.156250; 9.51878E-5
18416.015625; 9.78405E-5
18421.875000; 9.16282E-5
18427.734375; 9.14762E-5
18433.593750; 1.07836E-4
18439.453125; 1.02998E-4
18445.312500; 1.01477E-4
18451.171875; 1.10915E-4
18457.031250; 1.07356E-4
18462.890625; 1.04553E-4
18468.750000; 1.04220E-4
18474.609375; 9.79807E-5
18480.468750; 9.55888E-5
18486.328125; 9.50393E-5
18492.187500; 9.94216E-5
18498.046875; 1.08383E-4
18503.906250; 1.08879E-4
18509.765625; 1.01661E-4
18515.625000; 9.70816E-5
18521.484375; 9.92115E-5
18527.343750; 1.00872E-4
18533.203125; 1.10001E-4
18539.062500; 1.02424E-4
18544.921875; 1.01669E-4
18550.781250; 1.12692E-4
18556.640625; 1.12672E-4
18562.500000; 9.73263E-5
18568.359375; 9.88882E-5
18574.218750; 1.07660E-4
18580.078125; 1.11537E-4
18585.937500; 1.01522E-4
18591.796875; 9.44979E-5
18597.656250; 1.07410E-4
18603.515625; 9.72746E-5
18609.375000; 9.76962E-5
18615.234375; 1.09307E-4
18621.093750; 1.14820E-4
18626.953125; 1.08133E-4
18632.812500; 1.10892E-4
18638.671875; 1.09639E-4
18644.531250; 1.04442E-4
18650.390625; 1.06974E-4
18656.250000; 9.82668E-5
18662.109375; 1.08290E-4
18667.968750; 1.11544E-4
18673.828125; 1.06985E-4
18679.687500; 9.83128E-5
18685.546875; 1.00605E-4
18691.406250; 1.12189E-4
18697.265625; 1.01108E-4
18703.125000; 9.45705E-5
18708.984375; 9.11628E-5
18714.843750; 1.00142E-4
18720.703125; 1.10378E-4
18726.562500; 1.21617E-4
18732.421875; 1.26399E-4
18738.281250; 1.15032E-4
18744.140625; 1.12392E-4
18750.000000; 1.13885E-4
18755.859375; 9.95457E-5
18761.718750; 1.02487E-4
18767.578125; 1.04417E-4
18773.437500; 1.06086E-4
18779.296875; 1.04365E-4
18785.156250; 1.07392E-4
18791.015625; 1.00145E-4
18796.875000; 9.69773E-5
18802.734375; 1.02526E-4
18808.593750; 1.03129E-4
18814.453125; 1.10439E-4
18820.312500; 1.08874E-4
18826.171875; 1.13103E-4
18832.031250; 1.16281E-4
18837.890625; 1.05099E-4
18843.750000; 1.16382E-4
18849.609375; 1.06174E-4
18855.468750; 1.06485E-4
18861.328125; 1.02319E-4
18867.187500; 8.79162E-5
18873.046875; 1.03460E-4
18878.906250; 1.20719E-4
18884.765625; 1.15006E-4
18890.625000; 1.03557E-4
18896.484375; 9.85258E-5
18902.343750; 9.66585E-5
18908.203125; 9.41428E-5
18914.062500; 9.74174E-5
18919.921875; 1.03943E-4
18925.781250; 1.11705E-4
18931.640625; 1.05396E-4
18937.500000; 9.83045E-5
18943.359375; 9.93095E-5
18949.218750; 1.07716E-4
18955.078125; 1.15586E-4
18960.937500; 1.01454E-4
18966.796875; 9.93773E-5
18972.656250; 1.14285E-4
18978.515625; 1.07373E-4
18984.375000; 1.15662E-4
18990.234375; 1.12362E-4
18996.093750; 1.01764E-4
19001.953125; 1.07645E-4
19007.812500; 1.12848E-4
19013.671875; 9.94897E-5
19019.531250; 1.08735E-4
19025.390625; 1.07212E-4
19031.250000; 1.02999E-4
19037.109375; 9.98473E-5
19042.968750; 1.04817E-4
19048.828125; 1.06635E-4
19054.687500; 1.02762E-4
19060.546875; 1.04546E-4
19066.406250; 1.07990E-4
19072.265625; 1.08300E-4
19078.125000; 1.15429E-4
19083.984375; 1.07994E-4
19089.843750; 1.05017E-4
19095.703125; 9.95429E-5
19101.562500; 1.00201E-4
19107.421875; 1.07176E-4
19113.281250; 1.15895E-4
19119.140625; 1.05681E-4
19125.000000; 1.05514E-4
19130.859375; 8.61458E-5
19136.718750; 8.89205E-5
19142.578125; 9.84668E-5
19148.437500; 1.02126E-4
19154.296875; 1.09245E-4
19160.156250; 1.06878E-4
19166.015625; 1.06760E-4
19171.875000; 1.15854E-4
19177.734375; 1.02075E-4
19183.593750; 9.32359E-5
19189.453125; 9.41327E-5
19195.312500; 9.09626E-5
19201.171875; 9.73057E-5
19207.031250; 1.10912E-4
19212.890625; 1.20279E-4
19218.750000; 1.14005E-4
19224.609375; 1.05947E-4
19230.468750; 9.79319E-5
19236.328125; 1.17617E-4
19242.187500; 1.14055E-4
19248.046875; 1.09858E-4
19253.906250; 1.16411E-4
19259.765625; 1.06802E-4
19265.625000; 1.12483E-4
19271.484375; 1.12242E-4
19277.343750; 1.06331E-4
19283.203125; 1.03249E-4
19289.062500; 1.07196E-4
19294.921875; 9.22364E-5
19300.781250; 9.27673E-5
19306.640625; 1.03875E-4
19312.500000; 1.11980E-4
19318.359375; 1.08029E-4
19324.218750; 1.08031E-4
19330.078125; 1.02311E-4
19335.937500; 9.91784E-5
19341.796875; 1.07108E-4
19347.656250; 1.07023E-4
19353.515625; 1.05442E-4
19359.375000; 9.31910E-5
19365.234375; 9.87197E-5
19371.093750; 1.15409E-4
19376.953125; 1.20483E-4
19382.812500; 9.97437E-5
19388.671875; 8.92412E-5
19394.531250; 1.00547E-4
19400.390625; 9.81564E-5
19406.250000; 1.04935E-4
19412.109375; 1.14974E-4
19417.968750; 1.14770E-4
19423.828125; 1.08071E-4
19429.687500; 1.04422E-4
19435.546875; 9.58901E-5
19441.406250; 1.02857E-4
19447.265625; 1.10266E-4
19453.125000; 1.03971E-4
19458.984375; 1.13514E-4
19464.843750; 1.13886E-4
19470.703125; 9.63828E-5
19476.562500; 9.94364E-5
19482.421875; 1.01327E-4
19488.281250; 1.07284E-4
19494.140625; 1.23083E-4
19500.000000; 1.12128E-4
19505.859375; 1.01834E-4
19511.718750; 1.06464E-4
19517.578125; 9.22638E-5
19523.437500; 8.51789E-5
19529.296875; 9.63904E-5
19535.156250; 9.77925E-5
19541.015625; 1.12434E-4
19546.875000; 1.14675E-4
19552.734375; 1.05552E-4
19558.593750; 9.40338E-5
19564.453125; 9.70727E-5
19570.312500; 9.70974E-5
19576.171875; 1.03117E-4
19582.031250; 9.82627E-5
19587.890625; 9.67093E-5
19593.750000; 8.92988E-5
19599.609375; 9.65199E-5
19605.468750; 1.02261E-4
19611.328125; 1.12345E-4
19617.187500; 1.18550E-4
19623.046875; 9.11500E-5
19628.906250; 9.11287E-5
19634.765625; 1.04102E-4
19640.625000; 1.04193E-4
19646.484375; 1.06846E-4
19652.343750; 1.05131E-4
19658.203125; 1.08186E-4
19664.062500; 1.09958E-4
19669.921875; 1.18809E-4
19675.781250; 1.05137E-4
19681.640625; 1.03180E-4
19687.500000; 1.08087E-4
19693.359375; 1.08569E-4
19699.218750; 1.04182E-4
19705.078125; 1.02910E-4
19710.937500; 9.93106E-5
19716.796875; 1.09818E-4
19722.656250; 1.07011E-4
19728.515625; 9.62723E-5
19734.375000; 8.90345E-5
19740.234375; 1.09813E-4
19746.093750; 9.84857E-5
19751.953125; 1.02419E-4
19757.812500; 1.06439E-4
19763.671875; 1.04344E-4
19769.531250; 1.14629E-4
19775.390625; 1.08279E-4
19781.250000; 1.05939E-4
19787.109375; 9.70061E-5
19792.968750; 9.45568E-5
19798.828125; 1.01074E-4
19804.687500; 8.99024E-5
19810.546875; 8.99982E-5
19816.406250; 8.69957E-5
19822.265625; 9.62990E-5
19828.125000; 9.43956E-5
19833.984375; 9.50177E-5
19839.843750; 9.57084E-5
19845.703125; 1.10728E-4
19851.562500; 1.11915E-4
19857.421875; 1.05816E-4
19863.281250; 1.06142E-4
19869.140625; 1.10666E-4
19875.000000; 1.08900E-4
19880.859375; 1.00922E-4
19886.718750; 1.07115E-4
19892.578125; 1.20278E-4
19898.437500; 1.03343E-4
19904.296875; 9.91093E-5
19910.156250; 9.75109E-5
19916.015625; 1.00827E-4
19921.875000; 9.76711E-5
19927.734375; 1.07923E-4
19933.593750; 1.12285E-4
19939.453125; 1.08723E-4
19945.312500; 1.09881E-4
19951.171875; 1.02970E-4
19957.031250; 1.09749E-4
19962.890625; 1.04991E-4
19968.750000; 1.00951E-4
19974.609375; 1.04456E-4
19980.468750; 1.03931E-4
19986.328125; 9.16852E-5
19992.187500; 1.04505E-4
19998.046875; 1.11593E-4
20003.906250; 9.94477E-5
20009.765625; 9.46687E-5
20015.625000; 1.09741E-4
20021.484375; 1.10992E-4
20027.343750; 1.12355E-4
20033.203125; 1.11459E-4
20039.062500; 9.29380E-5
20044.921875; 8.22467E-5
20050.781250; 8.92058E-5
20056.640625; 9.83912E-5
20062.500000; 9.84532E-5
20068.359375; 1.01186E-4
20074.218750; 1.12327E-4
20080.078125; 1.06963E-4
20085.937500; 1.00004E-4
20091.796875; 1.10190E-4
20097.656250; 1.13330E-4
20103.515625; 1.07690E-4
20109.375000; 1.09371E-4
20115.234375; 9.38803E-5
20121.093750; 9.66236E-5
20126.953125; 1.01193E-4
20132.812500; 1.07182E-4
20138.671875; 9.48719E-5
20144.531250; 9.33258E-5
20150.390625; 1.14694E-4
20156.250000; 1.09525E-4
20162.109375; 9.36277E-5
20167.968750; 1.00727E-4
20173.828125; 1.04903E-4
20179.687500; 1.11715E-4
20185.546875; 9.56194E-5
20191.406250; 9.96899E-5
20197.265625; 9.64618E-5
20203.125000; 1.08851E-4
20208.984375; 1.03384E-4
20214.843750; 1.01281E-4
20220.703125; 1.05596E-4
20226.562500; 1.03156E-4
20232.421875; 9.96744E-5
20238.281250; 9.42955E-5
20244.140625; 9.92316E-5
20250.000000; 1.04708E-4
20255.859375; 1.04467E-4
20261.718750; 1.11089E-4
20267.578125; 1.11507E-4
20273.437500; 1.03597E-4
20279.296875; 1.07180E-4
20285.156250; 1.00793E-4
20291.015625; 9.47745E-5
20296.875000; 9.46918E-5
20302.734375; 9.64801E-5
20308.593750; 1.01168E-4
20314.453125; 1.00577E-4
20320.312500; 1.06188E-4
20326.171875; 1.06509E-4
20332.031250; 1.06250E-4
20337.890625; 1.11831E-4
20343.750000; 9.78834E-5
20349.609375; 1.01486E-4
20355.468750; 1.03859E-4
20361.328125; 1.16493E-4
20367.187500; 9.52826E-5
20373.046875; 1.01192E-4
20378.906250; 9.89869E-5
20384.765625; 9.81143E-5
20390.625000; 9.19859E-5
20396.484375; 1.03503E-4
20402.343750; 1.11304E-4
20408.203125; 1.06486E-4
20414.062500; 1.21738E-4
20419.921875; 1.09929E-4
20425.781250; 1.10325E-4
20431.640625; 1.18259E-4
20437.500000; 1.05512E-4
20443.359375; 9.57891E-5
20449.218750; 1.09070E-4
20455.078125; 1.08729E-4
20460.937500; 1.00978E-4
20466.796875; 1.11821E-4
20472.656250; 1.09351E-4
20478.515625; 1.02969E-4
20484.375000; 9.69943E-5
20490.234375; 9.54116E-5
20496.093750; 1.03737E-4
20501.953125; 1.07732E-4
20507.812500; 9.96188E-5
20513.671875; 1.01457E-4
20519.531250; 1.06436E-4
20525.390625; 9.06348E-5
20531.250000; 1.05725E-4
20537.109375; 9.46322E-5
20542.968750; 9.61510E-5
20548.828125; 1.02907E-4
20554.687500; 9.71927E-5
20560.546875; 1.01475E-4
20566.406250; 1.14612E-4
20572.265625; 1.07012E-4
20578.125000; 9.91426E-5
20583.984375; 1.03087E-4
20589.843750; 9.71650E-5
20595.703125; 1.01537E-4
20601.562500; 1.16485E-4
20607.421875; 9.76607E-5
20613.281250; 1.07895E-4
20619.140625; 1.10272E-4
20625.000000; 9.86205E-5
20630.859375; 1.09762E-4
20636.718750; 1.23962E-4
20642.578125; 1.17406E-4
20648.437500; 9.59000E-5
20654.296875; 9.65579E-5
20660.156250; 1.12223E-4
20666.015625; 1.07713E-4
20671.875000; 1.03429E-4
20677.734375; 9.03896E-5
20683.593750; 9.72043E-5
20689.453125; 9.48474E-5
20695.312500; 8.94241E-5
20701.171875; 9.04749E-5
20707.031250; 8.63221E-5
20712.890625; 1.03523E-4
20718.750000; 1.04393E-4
20724.609375; 1.13446E-4
20730.468750; 1.16176E-4
20736.328125; 9.78469E-5
20742.187500; 1.02567E-4
20748.046875; 9.94482E-5
20753.906250; 1.05773E-4
20759.765625; 1.05677E-4
20765.625000; 9.38066E-5
20771.484375; 8.46892E-5
20777.343750; 1.00419E-4
20783.203125; 1.11706E-4
20789.062500; 9.38239E-5
20794.921875; 9.32836E-5
20800.781250; 9.97811E-5
20806.640625; 1.01245E-4
20812.500000; 9.61594E-5
20818.359375; 1.04115E-4
20824.218750; 9.85272E-5
20830.078125; 1.02734E-4
20835.937500; 1.06938E-4
20841.796875; 1.05734E-4
20847.656250; 9.96395E-5
20853.515625; 1.08601E-4
20859.375000; 1.05528E-4
20865.234375; 1.00944E-4
20871.093750; 1.01178E-4
20876.953125; 1.18521E-4
20882.812500; 9.32878E-5
20888.671875; 9.91095E-5
20894.531250; 1.04008E-4
20900.390625; 9.06814E-5
20906.250000; 1.01445E-4
20912.109375; 1.13156E-4
20917.968750; 9.06909E-5
20923.828125; 9.79413E-5
20929.687500; 1.11097E-4
20935.546875; 1.05276E-4
20941.406250; 1.11653E-4
20947.265625; 1.18187E-4
20953.125000; 1.05800E-4
20958.984375; 1.07038E-4
20964.843750; 1.03191E-4
20970.703125; 1.06354E-4
20976.562500; 9.80203E-5
20982.421875; 1.01830E-4
20988.281250; 1.16475E-4
20994.140625; 1.11066E-4
21000.000000; 1.01164E-4
21005.859375; 1.06827E-4
21011.718750; 1.08756E-4
21017.578125; 1.03033E-4
21023.437500; 1.03195E-4
21029.296875; 1.12255E-4
21035.156250; 9.40566E-5
21041.015625; 9.56116E-5
21046.875000; 9.87464E-5
21052.734375; 1.08186E-4
21058.593750; 1.15133E-4
21064.453125; 1.03628E-4
21070.312500; 9.60548E-5
21076.171875; 8.98780E-5
21082.031250; 8.41645E-5
21087.890625; 1.02422E-4
21093.750000; 9.89002E-5
21099.609375; 9.12804E-5
21105.468750; 1.14944E-4
21111.328125; 1.05489E-4
21117.187500; 1.03003E-4
21123.046875; 1.14660E-4
21128.906250; 9.84742E-5
21134.765625; 9.96200E-5
21140.625000; 1.09148E-4
21146.484375; 1.00992E-4
21152.343750; 9.80939E-5
21158.203125; 1.08358E-4
21164.062500; 1.03773E-4
21169.921875; 9.70624E-5
21175.781250; 1.11465E-4
21181.640625; 1.10822E-4
21187.500000; 9.87554E-5
21193.359375; 1.15116E-4
21199.218750; 1.13732E-4
21205.078125; 1.06256E-4
21210.937500; 9.36325E-5
21216.796875; 9.84225E-5
21222.656250; 1.06612E-4
21228.515625; 9.59280E-5
21234.375000; 1.03003E-4
21240.234375; 1.04257E-4
21246.093750; 1.09765E-4
21251.953125; 1.12946E-4
21257.812500; 1.05957E-4
21263.671875; 9.82976E-5
21269.531250; 9.70725E-5
21275.390625; 9.74012E-5
21281.250000; 9.99162E-5
21287.109375; 1.02329E-4
21292.968750; 9.57773E-5
21298.828125; 1.00724E-4
21304.687500; 1.05354E-4
21310.546875; 9.38176E-5
21316.406250; 1.02790E-4
21322.265625; 1.04534E-4
21328.125000; 1.04814E-4
21333.984375; 1.12438E-4
21339.843750; 1.10994E-4
21345.703125; 1.12414E-4
21351.562500; 1.09223E-4
21357.421875; 9.47535E-5
21363.281250; 8.99991E-5
21369.140625; 1.09615E-4
21375.000000; 1.10813E-4
21380.859375; 1.18557E-4
21386.718750; 1.10571E-4
21392.578125; 1.06566E-4
21398.437500; 9.01141E-5
21404.296875; 8.25342E-5
21410.156250; 9.10641E-5
21416.015625; 9.15573E-5
21421.875000; 1.00259E-4
21427.734375; 1.02871E-4
21433.593750; 1.08531E-4
21439.453125; 1.08503E-4
21445.312500; 1.04024E-4
21451.171875; 1.01060E-4
21457.031250; 1.06142E-4
21462.890625; 1.03174E-4
21468.750000; 1.00804E-4
21474.609375; 9.90997E-5
21480.468750; 1.00083E-4
21486.328125; 1.00517E-4
21492.187500; 1.08590E-4
21498.046875; 9.37448E-5
21503.906250; 9.97270E-5
21509.765625; 1.18114E-4
21515.625000; 1.10137E-4
21521.484375; 1.08134E-4
21527.343750; 1.04460E-4
21533.203125; 9.57988E-5
21539.062500; 1.02647E-4
21544.921875; 1.10798E-4
21550.781250; 1.09752E-4
21556.640625; 9.46907E-5
21562.500000; 9.59178E-5
21568.359375; 1.12669E-4
21574.218750; 1.00886E-4
21580.078125; 9.35314E-5
21585.937500; 8.65604E-5
21591.796875; 9.32878E-5
21597.656250; 1.10533E-4
21603.515625; 1.10334E-4
21609.375000; 1.08767E-4
21615.234375; 8.08362E-5
21621.093750; 8.94969E-5
21626.953125; 9.58665E-5
21632.812500; 1.07493E-4
21638.671875; 1.06193E-4
21644.531250; 1.11301E-4
21650.390625; 1.24008E-4
21656.250000; 1.17169E-4
21662.109375; 1.05678E-4
21667.968750; 1.08419E-4
21673.828125; 1.13862E-4
21679.687500; 1.25155E-4
21685.546875; 1.03353E-4
21691.406250; 8.77735E-5
21697.265625; 9.36595E-5
21703.125000; 1.11168E-4
21708.984375; 1.11747E-4
21714.843750; 1.09792E-4
21720.703125; 1.02522E-4
21726.562500; 8.31316E-5
21732.421875; 8.92915E-5
21738.281250; 1.02865E-4
21744.140625; 1.04658E-4
21750.000000; 9.82929E-5
21755.859375; 1.09080E-4
21761.718750; 1.21103E-4
21767.578125; 9.83052E-5
21773.437500; 9.47485E-5
21779.296875; 9.83105E-5
21785.156250; 8.55832E-5
21791.015625; 9.87036E-5
21796.875000; 9.81696E-5
21802.734375; 9.32720E-5
21808.593750; 1.01999E-4
21814.453125; 1.17863E-4
21820.312500; 9.08111E-5
21826.171875; 8.99619E-5
21832.031250; 1.02244E-4
21837.890625; 1.03443E-4
21843.750000; 1.10051E-4
21849.609375; 1.12627E-4
21855.468750; 1.08845E-4
21861.328125; 1.11726E-4
21867.187500; 1.05414E-4
21873.046875; 9.44536E-5
21878.906250; 9.85097E-5
21884.765625; 1.02700E-4
21890.625000; 1.06561E-4
21896.484375; 1.07433E-4
21902.343750; 1.07807E-4
21908.203125; 9.62705E-5
21914.062500; 8.97455E-5
21919.921875; 9.85161E-5
21925.781250; 1.03911E-4
21931.640625; 1.01793E-4
21937.500000; 9.52159E-5
21943.359375; 1.05997E-4
21949.218750; 1.10233E-4
21955.078125; 8.94118E-5
21960.937500; 9.32818E-5
21966.796875; 1.05889E-4
21972.656250; 1.05521E-4
21978.515625; 1.02060E-4
21984.375000; 9.09988E-5
21990.234375; 1.05592E-4
21996.093750; 1.18685E-4
22001.953125; 1.04678E-4
22007.812500; 9.28289E-5
22013.671875; 9.68497E-5
22019.531250; 1.03654E-4
22025.390625; 1.08520E-4
22031.250000; 9.33226E-5
22037.109375; 9.80284E-5
22042.968750; 9.90981E-5
22048.828125; 1.01694E-4
22054.687500; 1.00969E-4
22060.546875; 9.89861E-5
22066.406250; 9.67870E-5
22072.265625; 1.01346E-4
22078.125000; 1.11743E-4
22083.984375; 1.06548E-4
22089.843750; 9.96335E-5
22095.703125; 1.03551E-4
22101.562500; 9.87599E-5
22107.421875; 9.82406E-5
22113.281250; 1.05387E-4
22119.140625; 1.03431E-4
22125.000000; 1.12826E-4
22130.859375; 1.21507E-4
22136.718750; 1.13157E-4
22142.578125; 1.04862E-4
22148.437500; 1.10412E-4
22154.296875; 1.08580E-4
22160.156250; 9.54118E-5
22166.015625; 1.01371E-4
22171.875000; 9.91746E-5
22177.734375; 9.44466E-5
22183.593750; 1.05108E-4
22189.453125; 1.09497E-4
22195.312500; 1.00104E-4
22201.171875; 9.53300E-5
22207.031250; 9.79112E-5
22212.890625; 9.88707E-5
22218.750000; 9.51657E-5
22224.609375; 9.35140E-5
22230.468750; 1.01657E-4
22236.328125; 1.10258E-4
22242.187500; 9.88351E-5
22248.046875; 1.05486E-4
22253.906250; 1.15716E-4
22259.765625; 9.98969E-5
22265.625000; 9.75428E-5
22271.484375; 9.40569E-5
22277.343750; 8.81777E-5
22283.203125; 8.04139E-5
22289.062500; 9.67222E-5
22294.921875; 1.02462E-4
22300.781250; 1.03787E-4
22306.640625; 9.74322E-5
22312.500000; 9.65094E-5
22318.359375; 1.00862E-4
22324.218750; 1.01835E-4
22330.078125; 8.97955E-5
22335.937500; 9.15850E-5
22341.796875; 9.65355E-5
22347.656250; 1.09347E-4
22353.515625; 9.70908E-5
22359.375000; 1.06838E-4
22365.234375; 1.03473E-4
22371.093750; 1.00589E-4
22376.953125; 9.98243E-5
22382.812500; 8.79379E-5
22388.671875; 9.93414E-5
22394.531250; 1.05938E-4
22400.390625; 8.94398E-5
22406.250000; 9.08090E-5
22412.109375; 9.62563E-5
22417.968750; 9.55013E-5
22423.828125; 1.02642E-4
22429.687500; 1.02111E-4
22435.546875; 1.05884E-4
22441.406250; 1.11727E-4
22447.265625; 1.03617E-4
22453.125000; 9.50612E-5
22458.984375; 9.73836E-5
22464.843750; 1.02046E-4
22470.703125; 9.27328E-5
22476.562500; 9.91000E-5
22482.421875; 8.83794E-5
22488.281250; 9.17236E-5
22494.140625; 9.61940E-5
22500.000000; 9.80557E-5
22505.859375; 9.97347E-5
22511.718750; 1.03903E-4
22517.578125; 9.76533E-5
22523.437500; 9.03124E-5
22529.296875; 8.95510E-5
22535.156250; 8.10925E-5
22541.015625; 8.50406E-5
22546.875000; 9.37440E-5
22552.734375; 9.39212E-5
22558.593750; 9.44066E-5
22564.453125; 9.04097E-5
22570.312500; 9.91726E-5
22576.171875; 1.11753E-4
22582.031250; 9.46653E-5
22587.890625; 8.64782E-5
22593.750000; 8.73357E-5
22599.609375; 1.08894E-4
22605.468750; 1.03954E-4
22611.328125; 9.64643E-5
22617.187500; 8.11348E-5
22623.046875; 8.35610E-5
22628.906250; 8.48812E-5
22634.765625; 9.93916E-5
22640.625000; 1.09747E-4
22646.484375; 1.08869E-4
22652.343750; 9.52357E-5
22658.203125; 8.31344E-5
22664.062500; 9.46216E-5
22669.921875; 8.80484E-5
22675.781250; 8.45727E-5
22681.640625; 9.61898E-5
22687.500000; 9.00605E-5
22693.359375; 8.58141E-5
22699.218750; 8.26041E-5
22705.078125; 8.92746E-5
22710.937500; 9.84076E-5
22716.796875; 9.12293E-5
22722.656250; 9.69351E-5
22728.515625; 9.28099E-5
22734.375000; 8.58605E-5
22740.234375; 9.07601E-5
22746.093750; 7.98981E-5
22751.953125; 8.55351E-5
22757.812500; 8.82328E-5
22763.671875; 9.54092E-5
22769.531250; 9.46002E-5
22775.390625; 8.55172E-5
22781.250000; 8.60171E-5
22787.109375; 8.21348E-5
22792.968750; 9.25644E-5
22798.828125; 1.00201E-4
22804.687500; 8.81548E-5
22810.546875; 7.74711E-5
22816.406250; 8.34263E-5
22822.265625; 7.69724E-5
22828.125000; 7.99486E-5
22833.984375; 8.35797E-5
22839.843750; 9.48360E-5
22845.703125; 9.20467E-5
22851.562500; 8.57844E-5
22857.421875; 7.48124E-5
22863.281250; 7.77362E-5
22869.140625; 8.46185E-5
22875.000000; 8.54092E-5
22880.859375; 8.22291E-5
22886.718750; 8.74531E-5
22892.578125; 8.75733E-5
22898.437500; 8.54733E-5
22904.296875; 8.14948E-5
22910.156250; 7.64313E-5
22916.015625; 7.82977E-5
22921.875000; 7.96823E-5
22927.734375; 7.83733E-5
22933.593750; 8.58528E-5
22939.453125; 7.84435E-5
22945.312500; 8.17559E-5
22951.171875; 8.52956E-5
22957.031250; 8.68795E-5
22962.890625; 8.06852E-5
22968.750000; 7.60632E-5
22974.609375; 8.60274E-5
22980.468750; 7.86836E-5
22986.328125; 8.21777E-5
22992.187500; 7.63073E-5
22998.046875; 6.80819E-5
23003.906250; 7.21209E-5
23009.765625; 7.68324E-5
23015.625000; 9.16583E-5
23021.484375; 9.09296E-5
23027.343750; 7.82410E-5
23033.203125; 7.41954E-5
23039.062500; 7.46461E-5
23044.921875; 7.50884E-5
23050.781250; 8.12013E-5
23056.640625; 7.16379E-5
23062.500000; 7.56425E-5
23068.359375; 7.71142E-5
23074.218750; 6.95109E-5
23080.078125; 7.39342E-5
23085.937500; 7.05356E-5
23091.796875; 6.65713E-5
23097.656250; 6.16129E-5
23103.515625; 7.13170E-5
23109.375000; 7.32197E-5
23115.234375; 7.15788E-5
23121.093750; 7.44356E-5
23126.953125; 6.73497E-5
23132.812500; 6.32542E-5
23138.671875; 6.55858E-5
23144.531250; 7.29692E-5
23150.390625; 7.32161E-5
23156.250000; 6.92224E-5
23162.109375; 6.88896E-5
23167.968750; 6.68093E-5
23173.828125; 5.93034E-5
23179.687500; 5.51599E-5
23185.546875; 6.97650E-5
23191.406250; 7.36208E-5
23197.265625; 6.78088E-5
23203.125000; 6.82768E-5
23208.984375; 7.08828E-5
23214.843750; 6.98355E-5
23220.703125; 6.91336E-5
23226.562500; 6.12198E-5
23232.421875; 6.26018E-5
23238.281250; 5.98851E-5
23244.140625; 5.57219E-5
23250.000000; 6.40862E-5
23255.859375; 6.77896E-5
23261.718750; 6.87062E-5
23267.578125; 6.59663E-5
23273.437500; 6.97899E-5
23279.296875; 6.52724E-5
23285.156250; 6.15427E-5
23291.015625; 5.95597E-5
23296.875000; 6.07894E-5
23302.734375; 6.20156E-5
23308.593750; 5.58278E-5
23314.453125; 6.38284E-5
23320.312500; 7.02943E-5
23326.171875; 7.35717E-5
23332.031250; 6.59806E-5
23337.890625; 5.46931E-5
23343.750000; 5.29406E-5
23349.609375; 5.39564E-5
23355.468750; 5.38054E-5
23361.328125; 5.51954E-5
23367.187500; 5.36551E-5
23373.046875; 5.42361E-5
23378.906250; 5.54648E-5
23384.765625; 5.13076E-5
23390.625000; 4.79088E-5
23396.484375; 5.75785E-5
23402.343750; 6.14833E-5
23408.203125; 6.50143E-5
23414.062500; 5.88260E-5
23419.921875; 6.05656E-5
23425.781250; 6.38632E-5
23431.640625; 5.58059E-5
23437.500000; 4.94215E-5
23443.359375; 5.14729E-5
23449.218750; 5.46505E-5
23455.078125; 5.53683E-5
23460.937500; 5.14243E-5
23466.796875; 5.68957E-5
23472.656250; 5.56864E-5
23478.515625; 5.28001E-5
23484.375000; 4.68032E-5
23490.234375; 4.65294E-5
23496.093750; 5.32095E-5
23501.953125; 5.20980E-5
23507.812500; 5.01979E-5
23513.671875; 5.00602E-5
23519.531250; 4.79128E-5
23525.390625; 4.79449E-5
23531.250000; 4.99464E-5
23537.109375; 5.38714E-5
23542.968750; 4.87974E-5
23548.828125; 5.07920E-5
23554.687500; 4.76815E-5
23560.546875; 5.25433E-5
23566.406250; 5.17941E-5
23572.265625; 4.36559E-5
23578.125000; 4.10418E-5
23583.984375; 4.88284E-5
23589.843750; 5.14619E-5
23595.703125; 4.66035E-5
23601.562500; 4.92884E-5
23607.421875; 4.12620E-5
23613.281250; 4.07351E-5
23619.140625; 4.66094E-5
23625.000000; 4.44146E-5
23630.859375; 4.68150E-5
23636.718750; 4.46015E-5
23642.578125; 4.28453E-5
23648.437500; 4.81093E-5
23654.296875; 4.66144E-5
23660.156250; 4.52370E-5
23666.015625; 4.31142E-5
23671.875000; 4.02881E-5
23677.734375; 3.88667E-5
23683.593750; 3.98682E-5
23689.453125; 4.26169E-5
23695.312500; 3.80949E-5
23701.171875; 3.76755E-5
23707.031250; 4.06492E-5
23712.890625; 4.38857E-5
23718.750000; 4.18828E-5
23724.609375; 4.32693E-5
23730.468750; 4.15826E-5
23736.328125; 3.90714E-5
23742.187500; 3.74871E-5
23748.046875; 3.75370E-5
23753.906250; 3.98317E-5
23759.765625; 4.07044E-5
23765.625000; 4.17768E-5
23771.484375; 4.01480E-5
23777.343750; 4.38380E-5
23783.203125; 4.48980E-5
23789.062500; 3.95488E-5
23794.921875; 4.17766E-5
23800.781250; 3.73014E-5
23806.640625; 3.86555E-5
23812.500000; 3.95064E-5
23818.359375; 3.34126E-5
23824.218750; 3.62319E-5
23830.078125; 3.54382E-5
23835.937500; 3.62476E-5
23841.796875; 3.40791E-5
23847.656250; 3.96806E-5
23853.515625; 3.78530E-5
23859.375000; 3.63859E-5
23865.234375; 4.07962E-5
23871.093750; 3.82085E-5
23876.953125; 3.55820E-5
23882.812500; 3.34164E-5
23888.671875; 4.09464E-5
23894.531250; 4.02520E-5
23900.390625; 3.59599E-5
23906.250000; 3.65633E-5
23912.109375; 3.68156E-5
23917.968750; 3.68853E-5
23923.828125; 3.82424E-5
23929.687500; 3.80046E-5
23935.546875; 3.34346E-5
23941.406250; 3.44634E-5
23947.265625; 3.71445E-5
23953.125000; 3.83456E-5
23958.984375; 3.39533E-5
23964.843750; 3.57993E-5
23970.703125; 3.68826E-5
23976.562500; 3.34232E-5
23982.421875; 3.50801E-5
23988.281250; 3.31912E-5
23994.140625; 3.20586E-5
