* Measurement data measured by REW V5.31.3
* Source: PCM: default, no input selected, 2, volume: no control
* Format: 8192-point spectrum using Hann window and exponential averaging 0.97 
* Dated: Mar 9, 2025 12:52:58 PM
* REW Settings:
*  C-weighting compensation: Off
*  Target level: 75.0 dB
* Note: OSDEHA ANODE-OUTPUT; 8192-point spectrum using Hann window and exponential averaging 0.97  Input RMS 74.93 V 74.93 VC, 74.93 VA 74.93 V 22 - 22k UNW 884.1 uV >22k Distortion at 1,000.0 Hz, -2.51 dBFS: Gain: 29.34 dB THD: 0.047 % based on 21 harmonics  [0..22800 Hz] HHD: 0.00052 %  [10 .. 22] N: 0.017 %  [0..22800 Hz] N+D: 40.36 mV A THD+N: 0.050 %  [0..22800 Hz] SNR: 75.4 dB ENOB: 11.6 bits 2nd harmonic 0.044 % -124 deg 3rd harmonic 0.014 % -155 deg 4th harmonic 0.0030 % 179 deg 5th harmonic 0.0027 % -33 deg 6th harmonic 0.00077 % 109 deg 7th harmonic 0.00031 % -7 deg 8th harmonic 0.00019 % 111 deg 9th harmonic 0.00015 % -45 deg 
* Measurement: OSDEHA A-OUT 74.9V
* Smoothing: None
* Frequency Step: 5.859375 Hz
* Start Frequency: 5.859375 Hz
*
* Freq(Hz); V(V)
5.859375; 2.78795E-4
11.718750; 3.19187E-4
17.578125; 2.90324E-4
23.437500; 2.72421E-4
29.296875; 2.65521E-4
35.156250; 2.40174E-4
41.015625; 2.44848E-4
46.875000; 4.26973E-4
52.734375; 4.41411E-4
58.593750; 2.16388E-4
64.453125; 1.98341E-4
70.312500; 1.98140E-4
76.171875; 1.84626E-4
82.031250; 1.87609E-4
87.890625; 1.99256E-4
93.750000; 5.12565E-3
99.609375; 1.13696E-2
105.468750; 6.30477E-3
111.328125; 2.40278E-4
117.187500; 1.49235E-4
123.046875; 1.63182E-4
128.906250; 1.67938E-4
134.765625; 1.51670E-4
140.625000; 1.39589E-4
146.484375; 1.65087E-4
152.343750; 1.79094E-4
158.203125; 1.46887E-4
164.062500; 1.42707E-4
169.921875; 1.32161E-4
175.781250; 1.43594E-4
181.640625; 1.46992E-4
187.500000; 1.40488E-4
193.359375; 5.96529E-4
199.218750; 1.48768E-3
205.078125; 9.17562E-4
210.937500; 1.35164E-4
216.796875; 1.24314E-4
222.656250; 1.16658E-4
228.515625; 1.30504E-4
234.375000; 1.31273E-4
240.234375; 1.23667E-4
246.093750; 1.60556E-4
251.953125; 1.64536E-4
257.812500; 1.21092E-4
263.671875; 1.13251E-4
269.531250; 1.24310E-4
275.390625; 1.44695E-4
281.250000; 1.32218E-4
287.109375; 1.23690E-4
292.968750; 1.39357E-4
298.828125; 2.46162E-4
304.687500; 1.90943E-4
310.546875; 1.23348E-4
316.406250; 1.37982E-4
322.265625; 1.23832E-4
328.125000; 1.23577E-4
333.984375; 1.22922E-4
339.843750; 1.21258E-4
345.703125; 1.47224E-4
351.562500; 1.77592E-4
357.421875; 1.29092E-4
363.281250; 1.26754E-4
369.140625; 1.20218E-4
375.000000; 1.16056E-4
380.859375; 1.30398E-4
386.718750; 1.39671E-4
392.578125; 1.77549E-4
398.437500; 4.38026E-4
404.296875; 3.50172E-4
410.156250; 1.40173E-4
416.015625; 1.15683E-4
421.875000; 1.21055E-4
427.734375; 1.22306E-4
433.593750; 1.16742E-4
439.453125; 1.22512E-4
445.312500; 1.28897E-4
451.171875; 1.45555E-4
457.031250; 1.23576E-4
462.890625; 1.09136E-4
468.750000; 1.20401E-4
474.609375; 1.26288E-4
480.468750; 1.18283E-4
486.328125; 1.18765E-4
492.187500; 1.45142E-4
498.046875; 2.84832E-4
503.906250; 2.51176E-4
509.765625; 1.30265E-4
515.625000; 1.21327E-4
521.484375; 1.14301E-4
527.343750; 1.27279E-4
533.203125; 1.28342E-4
539.062500; 1.18447E-4
544.921875; 1.27296E-4
550.781250; 1.28594E-4
556.640625; 1.19865E-4
562.500000; 1.27034E-4
568.359375; 1.19936E-4
574.218750; 1.30217E-4
580.078125; 1.33015E-4
585.937500; 1.30697E-4
591.796875; 1.26201E-4
597.656250; 1.47427E-4
603.515625; 1.35857E-4
609.375000; 1.38308E-4
615.234375; 1.24972E-4
621.093750; 1.46446E-4
626.953125; 1.39316E-4
632.812500; 1.33681E-4
638.671875; 1.42696E-4
644.531250; 1.53867E-4
650.390625; 1.74199E-4
656.250000; 1.43087E-4
662.109375; 1.63895E-4
667.968750; 1.51551E-4
673.828125; 1.66612E-4
679.687500; 1.70433E-4
685.546875; 1.83273E-4
691.406250; 1.80742E-4
697.265625; 2.51929E-4
703.125000; 2.70667E-4
708.984375; 2.08492E-4
714.843750; 2.07776E-4
720.703125; 2.18250E-4
726.562500; 2.40839E-4
732.421875; 2.38690E-4
738.281250; 2.66544E-4
744.140625; 2.63767E-4
750.000000; 3.08294E-4
755.859375; 3.11242E-4
761.718750; 3.33064E-4
767.578125; 3.45648E-4
773.437500; 3.65217E-4
779.296875; 4.16603E-4
785.156250; 4.24165E-4
791.015625; 4.84976E-4
796.875000; 5.03663E-4
802.734375; 5.67118E-4
808.593750; 6.13356E-4
814.453125; 6.53386E-4
820.312500; 7.39700E-4
826.171875; 7.84865E-4
832.031250; 8.96137E-4
837.890625; 9.88877E-4
843.750000; 1.09205E-3
849.609375; 1.22599E-3
855.468750; 1.38517E-3
861.328125; 1.57158E-3
867.187500; 1.78328E-3
873.046875; 2.04029E-3
878.906250; 2.33862E-3
884.765625; 2.71932E-3
890.625000; 3.18733E-3
896.484375; 3.80096E-3
902.343750; 4.44941E-3
908.203125; 5.39594E-3
914.062500; 6.57541E-3
919.921875; 8.14775E-3
925.781250; 1.02357E-2
931.640625; 1.30868E-2
937.500000; 1.71773E-2
943.359375; 2.31252E-2
949.218750; 3.21355E-2
955.078125; 4.66438E-2
960.937500; 7.13128E-2
966.796875; 1.17155E-1
972.656250; 2.13037E-1
978.515625; 4.52636E-1
984.375000; 1.26749E0
990.234375; 6.97102E0
996.093750; 5.57683E1
1001.953125; 6.97103E1
1007.812500; 1.99173E1
1013.671875; 1.99173E0
1019.531250; 6.12814E-1
1025.390625; 2.68149E-1
1031.250000; 1.41090E-1
1037.109375; 8.34026E-2
1042.968750; 5.33626E-2
1048.828125; 3.62044E-2
1054.687500; 2.57096E-2
1060.546875; 1.88991E-2
1066.406250; 1.42843E-2
1072.265625; 1.10988E-2
1078.125000; 8.76503E-3
1083.984375; 7.03929E-3
1089.843750; 5.75975E-3
1095.703125; 4.74964E-3
1101.562500; 4.00415E-3
1107.421875; 3.35739E-3
1113.281250; 2.86411E-3
1119.140625; 2.47274E-3
1125.000000; 2.13994E-3
1130.859375; 1.84615E-3
1136.718750; 1.64216E-3
1142.578125; 1.43749E-3
1148.437500; 1.27651E-3
1154.296875; 1.14688E-3
1160.156250; 1.00593E-3
1166.015625; 9.25316E-4
1171.875000; 8.25176E-4
1177.734375; 7.67983E-4
1183.593750; 6.64314E-4
1189.453125; 6.22029E-4
1195.312500; 5.81158E-4
1201.171875; 5.27761E-4
1207.031250; 4.81657E-4
1212.890625; 4.44271E-4
1218.750000; 4.20254E-4
1224.609375; 3.78184E-4
1230.468750; 3.39451E-4
1236.328125; 3.58949E-4
1242.187500; 2.98596E-4
1248.046875; 3.01122E-4
1253.906250; 2.80424E-4
1259.765625; 2.48372E-4
1265.625000; 2.59763E-4
1271.484375; 2.26390E-4
1277.343750; 2.24033E-4
1283.203125; 2.16059E-4
1289.062500; 1.93781E-4
1294.921875; 1.98684E-4
1300.781250; 1.94340E-4
1306.640625; 1.75802E-4
1312.500000; 1.72718E-4
1318.359375; 1.68251E-4
1324.218750; 1.70487E-4
1330.078125; 1.52795E-4
1335.937500; 1.60929E-4
1341.796875; 1.41972E-4
1347.656250; 1.38470E-4
1353.515625; 1.55445E-4
1359.375000; 1.61186E-4
1365.234375; 1.38842E-4
1371.093750; 1.40975E-4
1376.953125; 1.31248E-4
1382.812500; 1.38355E-4
1388.671875; 1.30533E-4
1394.531250; 1.40109E-4
1400.390625; 1.42969E-4
1406.250000; 1.34121E-4
1412.109375; 1.31004E-4
1417.968750; 1.10994E-4
1423.828125; 1.26807E-4
1429.687500; 1.18438E-4
1435.546875; 1.10561E-4
1441.406250; 1.20586E-4
1447.265625; 1.15588E-4
1453.125000; 1.23778E-4
1458.984375; 1.08879E-4
1464.843750; 1.07839E-4
1470.703125; 1.17271E-4
1476.562500; 1.09336E-4
1482.421875; 1.03480E-4
1488.281250; 1.20581E-4
1494.140625; 1.01683E-4
1500.000000; 1.21422E-4
1505.859375; 1.20596E-4
1511.718750; 1.16671E-4
1517.578125; 1.01014E-4
1523.437500; 1.11543E-4
1529.296875; 1.21153E-4
1535.156250; 1.18347E-4
1541.015625; 1.17200E-4
1546.875000; 1.08425E-4
1552.734375; 1.14897E-4
1558.593750; 1.14145E-4
1564.453125; 1.27530E-4
1570.312500; 1.09804E-4
1576.171875; 1.05241E-4
1582.031250; 1.10989E-4
1587.890625; 9.31079E-5
1593.750000; 1.04157E-4
1599.609375; 1.19778E-4
1605.468750; 1.17980E-4
1611.328125; 1.13398E-4
1617.187500; 1.18781E-4
1623.046875; 1.17420E-4
1628.906250; 1.06746E-4
1634.765625; 1.04601E-4
1640.625000; 1.06343E-4
1646.484375; 1.07056E-4
1652.343750; 1.21245E-4
1658.203125; 1.03659E-4
1664.062500; 9.95655E-5
1669.921875; 1.09269E-4
1675.781250; 1.06589E-4
1681.640625; 1.09756E-4
1687.500000; 1.11431E-4
1693.359375; 1.08069E-4
1699.218750; 1.14707E-4
1705.078125; 1.15160E-4
1710.937500; 1.12868E-4
1716.796875; 1.11211E-4
1722.656250; 1.10596E-4
1728.515625; 1.10985E-4
1734.375000; 1.02728E-4
1740.234375; 1.11003E-4
1746.093750; 1.07645E-4
1751.953125; 1.10860E-4
1757.812500; 1.14129E-4
1763.671875; 1.09799E-4
1769.531250; 1.05470E-4
1775.390625; 1.05834E-4
1781.250000; 1.04808E-4
1787.109375; 1.09913E-4
1792.968750; 1.18027E-4
1798.828125; 1.24709E-4
1804.687500; 1.11555E-4
1810.546875; 1.12385E-4
1816.406250; 1.06571E-4
1822.265625; 1.02373E-4
1828.125000; 1.03338E-4
1833.984375; 1.13623E-4
1839.843750; 1.13597E-4
1845.703125; 1.20129E-4
1851.562500; 1.21974E-4
1857.421875; 1.02252E-4
1863.281250; 9.79706E-5
1869.140625; 9.25263E-5
1875.000000; 9.91322E-5
1880.859375; 1.08740E-4
1886.718750; 1.17646E-4
1892.578125; 1.16587E-4
1898.437500; 1.24073E-4
1904.296875; 1.06463E-4
1910.156250; 1.02228E-4
1916.015625; 1.03024E-4
1921.875000; 9.33114E-5
1927.734375; 1.05587E-4
1933.593750; 1.16302E-4
1939.453125; 1.19213E-4
1945.312500; 1.15270E-4
1951.171875; 1.18387E-4
1957.031250; 1.18252E-4
1962.890625; 1.27280E-4
1968.750000; 1.20844E-4
1974.609375; 1.72028E-4
1980.468750; 2.79273E-4
1986.328125; 8.92953E-4
1992.187500; 8.79659E-3
1998.046875; 3.08102E-2
2003.906250; 2.46594E-2
2009.765625; 3.09200E-3
2015.625000; 5.65873E-4
2021.484375; 2.27377E-4
2027.343750; 1.53846E-4
2033.203125; 1.05658E-4
2039.062500; 1.17356E-4
2044.921875; 1.05987E-4
2050.781250; 1.07247E-4
2056.640625; 1.07053E-4
2062.500000; 1.10690E-4
2068.359375; 9.97007E-5
2074.218750; 1.01952E-4
2080.078125; 1.07647E-4
2085.937500; 1.11257E-4
2091.796875; 1.19077E-4
2097.656250; 1.17781E-4
2103.515625; 1.14565E-4
2109.375000; 1.12652E-4
2115.234375; 1.14131E-4
2121.093750; 1.06938E-4
2126.953125; 1.10844E-4
2132.812500; 9.92017E-5
2138.671875; 9.48329E-5
2144.531250; 1.01988E-4
2150.390625; 1.16467E-4
2156.250000; 1.06127E-4
2162.109375; 1.05580E-4
2167.968750; 1.02742E-4
2173.828125; 1.06136E-4
2179.687500; 1.11309E-4
2185.546875; 1.04420E-4
2191.406250; 1.06641E-4
2197.265625; 1.05576E-4
2203.125000; 1.16564E-4
2208.984375; 1.08209E-4
2214.843750; 1.02662E-4
2220.703125; 1.04651E-4
2226.562500; 1.01208E-4
2232.421875; 1.11419E-4
2238.281250; 1.12835E-4
2244.140625; 1.05004E-4
2250.000000; 1.21979E-4
2255.859375; 1.06239E-4
2261.718750; 9.48263E-5
2267.578125; 9.88060E-5
2273.437500; 9.67179E-5
2279.296875; 1.13069E-4
2285.156250; 1.05320E-4
2291.015625; 1.00758E-4
2296.875000; 1.04582E-4
2302.734375; 1.02900E-4
2308.593750; 9.90089E-5
2314.453125; 1.07754E-4
2320.312500; 1.04376E-4
2326.171875; 1.09309E-4
2332.031250; 9.81765E-5
2337.890625; 1.01325E-4
2343.750000; 1.05106E-4
2349.609375; 1.21133E-4
2355.468750; 1.13902E-4
2361.328125; 1.05124E-4
2367.187500; 1.01084E-4
2373.046875; 9.59701E-5
2378.906250; 9.85583E-5
2384.765625; 1.09066E-4
2390.625000; 1.15002E-4
2396.484375; 1.09765E-4
2402.343750; 1.00225E-4
2408.203125; 8.88787E-5
2414.062500; 1.05485E-4
2419.921875; 1.12098E-4
2425.781250; 1.08030E-4
2431.640625; 1.19651E-4
2437.500000; 1.16068E-4
2443.359375; 1.13409E-4
2449.218750; 1.00078E-4
2455.078125; 1.01510E-4
2460.937500; 9.86552E-5
2466.796875; 1.05651E-4
2472.656250; 1.17790E-4
2478.515625; 1.06733E-4
2484.375000; 9.20447E-5
2490.234375; 9.23989E-5
2496.093750; 1.04485E-4
2501.953125; 1.05847E-4
2507.812500; 1.02309E-4
2513.671875; 1.11027E-4
2519.531250; 1.16586E-4
2525.390625; 9.96309E-5
2531.250000; 1.00761E-4
2537.109375; 1.07590E-4
2542.968750; 1.14452E-4
2548.828125; 1.10244E-4
2554.687500; 1.08537E-4
2560.546875; 1.10117E-4
2566.406250; 1.07226E-4
2572.265625; 1.15942E-4
2578.125000; 1.14702E-4
2583.984375; 1.15217E-4
2589.843750; 1.07956E-4
2595.703125; 1.01560E-4
2601.562500; 1.16675E-4
2607.421875; 1.06040E-4
2613.281250; 9.48469E-5
2619.140625; 1.05510E-4
2625.000000; 1.01059E-4
2630.859375; 1.06329E-4
2636.718750; 1.05934E-4
2642.578125; 1.05475E-4
2648.437500; 9.73943E-5
2654.296875; 9.66018E-5
2660.156250; 9.49577E-5
2666.015625; 1.04759E-4
2671.875000; 1.14082E-4
2677.734375; 1.24252E-4
2683.593750; 1.21424E-4
2689.453125; 1.09295E-4
2695.312500; 1.11465E-4
2701.171875; 1.01298E-4
2707.031250; 1.04410E-4
2712.890625; 1.05456E-4
2718.750000; 1.04137E-4
2724.609375; 1.00183E-4
2730.468750; 9.95663E-5
2736.328125; 1.02446E-4
2742.187500; 1.19163E-4
2748.046875; 1.14076E-4
2753.906250; 1.05496E-4
2759.765625; 1.10569E-4
2765.625000; 1.08140E-4
2771.484375; 1.13504E-4
2777.343750; 9.92602E-5
2783.203125; 1.05325E-4
2789.062500; 1.02576E-4
2794.921875; 1.08863E-4
2800.781250; 1.18803E-4
2806.640625; 1.06708E-4
2812.500000; 1.13251E-4
2818.359375; 1.06179E-4
2824.218750; 1.03328E-4
2830.078125; 1.04449E-4
2835.937500; 1.04312E-4
2841.796875; 9.85538E-5
2847.656250; 1.05835E-4
2853.515625; 1.07042E-4
2859.375000; 1.03624E-4
2865.234375; 1.07740E-4
2871.093750; 1.02948E-4
2876.953125; 1.04043E-4
2882.812500; 1.04725E-4
2888.671875; 1.09838E-4
2894.531250; 1.04066E-4
2900.390625; 1.14439E-4
2906.250000; 1.01084E-4
2912.109375; 1.05498E-4
2917.968750; 1.13643E-4
2923.828125; 1.10981E-4
2929.687500; 1.03566E-4
2935.546875; 9.53088E-5
2941.406250; 9.49556E-5
2947.265625; 1.01218E-4
2953.125000; 1.05072E-4
2958.984375; 1.04339E-4
2964.843750; 9.73023E-5
2970.703125; 9.39679E-5
2976.562500; 1.04638E-4
2982.421875; 1.09052E-4
2988.281250; 1.04219E-4
2994.140625; 5.36871E-3
3000.000000; 1.07358E-2
3005.859375; 5.37204E-3
3011.718750; 1.22662E-4
3017.578125; 1.05207E-4
3023.437500; 1.04218E-4
3029.296875; 1.05503E-4
3035.156250; 1.12716E-4
3041.015625; 1.03238E-4
3046.875000; 1.07594E-4
3052.734375; 1.05837E-4
3058.593750; 9.73237E-5
3064.453125; 9.88721E-5
3070.312500; 1.06786E-4
3076.171875; 1.13121E-4
3082.031250; 1.13095E-4
3087.890625; 1.10578E-4
3093.750000; 1.03893E-4
3099.609375; 1.09893E-4
3105.468750; 1.04678E-4
3111.328125; 1.06900E-4
3117.187500; 1.07518E-4
3123.046875; 1.15563E-4
3128.906250; 1.13400E-4
3134.765625; 1.03021E-4
3140.625000; 1.01795E-4
3146.484375; 9.96817E-5
3152.343750; 1.03349E-4
3158.203125; 1.04598E-4
3164.062500; 1.07258E-4
3169.921875; 1.00209E-4
3175.781250; 9.38651E-5
3181.640625; 1.07310E-4
3187.500000; 1.15743E-4
3193.359375; 1.06248E-4
3199.218750; 1.06597E-4
3205.078125; 1.08232E-4
3210.937500; 1.06997E-4
3216.796875; 9.23783E-5
3222.656250; 1.00082E-4
3228.515625; 1.07449E-4
3234.375000; 1.10505E-4
3240.234375; 1.02711E-4
3246.093750; 1.10673E-4
3251.953125; 1.09132E-4
3257.812500; 1.05405E-4
3263.671875; 1.05778E-4
3269.531250; 1.03653E-4
3275.390625; 1.01636E-4
3281.250000; 1.10277E-4
3287.109375; 1.12201E-4
3292.968750; 1.16940E-4
3298.828125; 1.05810E-4
3304.687500; 9.28718E-5
3310.546875; 9.44739E-5
3316.406250; 1.00870E-4
3322.265625; 1.01246E-4
3328.125000; 9.35082E-5
3333.984375; 1.00183E-4
3339.843750; 1.04841E-4
3345.703125; 1.11193E-4
3351.562500; 1.08486E-4
3357.421875; 1.13643E-4
3363.281250; 1.22339E-4
3369.140625; 1.00180E-4
3375.000000; 1.04441E-4
3380.859375; 1.06969E-4
3386.718750; 1.05075E-4
3392.578125; 1.10037E-4
3398.437500; 1.02650E-4
3404.296875; 9.42617E-5
3410.156250; 1.07615E-4
3416.015625; 1.07410E-4
3421.875000; 1.01577E-4
3427.734375; 1.06900E-4
3433.593750; 1.07741E-4
3439.453125; 1.11623E-4
3445.312500; 1.07232E-4
3451.171875; 1.08037E-4
3457.031250; 9.70219E-5
3462.890625; 9.94490E-5
3468.750000; 1.02682E-4
3474.609375; 9.76277E-5
3480.468750; 9.59382E-5
3486.328125; 1.05377E-4
3492.187500; 1.12975E-4
3498.046875; 1.11668E-4
3503.906250; 1.04713E-4
3509.765625; 1.05404E-4
3515.625000; 1.04447E-4
3521.484375; 1.03711E-4
3527.343750; 1.08917E-4
3533.203125; 1.12434E-4
3539.062500; 1.13999E-4
3544.921875; 1.14415E-4
3550.781250; 1.10131E-4
3556.640625; 1.15044E-4
3562.500000; 1.08875E-4
3568.359375; 1.08173E-4
3574.218750; 1.09122E-4
3580.078125; 1.09632E-4
3585.937500; 1.09737E-4
3591.796875; 1.14958E-4
3597.656250; 1.07345E-4
3603.515625; 9.85013E-5
3609.375000; 8.95072E-5
3615.234375; 9.90026E-5
3621.093750; 1.12178E-4
3626.953125; 1.12480E-4
3632.812500; 1.00213E-4
3638.671875; 1.04850E-4
3644.531250; 1.03715E-4
3650.390625; 9.09358E-5
3656.250000; 9.85999E-5
3662.109375; 1.03545E-4
3667.968750; 9.78848E-5
3673.828125; 1.02958E-4
3679.687500; 1.00745E-4
3685.546875; 1.02772E-4
3691.406250; 9.48769E-5
3697.265625; 1.06468E-4
3703.125000; 1.14263E-4
3708.984375; 1.11059E-4
3714.843750; 1.07448E-4
3720.703125; 1.17830E-4
3726.562500; 1.22620E-4
3732.421875; 1.10530E-4
3738.281250; 9.72220E-5
3744.140625; 9.78712E-5
3750.000000; 9.71546E-5
3755.859375; 1.00823E-4
3761.718750; 1.03646E-4
3767.578125; 1.03279E-4
3773.437500; 1.04466E-4
3779.296875; 1.03071E-4
3785.156250; 1.07204E-4
3791.015625; 1.06430E-4
3796.875000; 1.08256E-4
3802.734375; 1.00752E-4
3808.593750; 1.04976E-4
3814.453125; 9.97487E-5
3820.312500; 9.05445E-5
3826.171875; 9.34464E-5
3832.031250; 9.84836E-5
3837.890625; 9.36533E-5
3843.750000; 9.83882E-5
3849.609375; 1.12971E-4
3855.468750; 1.00001E-4
3861.328125; 1.03442E-4
3867.187500; 1.05735E-4
3873.046875; 1.16066E-4
3878.906250; 1.07614E-4
3884.765625; 1.11982E-4
3890.625000; 1.04618E-4
3896.484375; 1.04353E-4
3902.343750; 1.00286E-4
3908.203125; 1.06788E-4
3914.062500; 1.10525E-4
3919.921875; 1.05859E-4
3925.781250; 1.09550E-4
3931.640625; 1.09123E-4
3937.500000; 1.08268E-4
3943.359375; 9.91197E-5
3949.218750; 9.54121E-5
3955.078125; 9.61523E-5
3960.937500; 1.12173E-4
3966.796875; 1.06994E-4
3972.656250; 1.09568E-4
3978.515625; 1.03006E-4
3984.375000; 1.03931E-4
3990.234375; 2.35305E-4
3996.093750; 1.67909E-3
4001.953125; 2.08909E-3
4007.812500; 5.94214E-4
4013.671875; 1.28574E-4
4019.531250; 1.06471E-4
4025.390625; 1.00358E-4
4031.250000; 1.10615E-4
4037.109375; 1.10949E-4
4042.968750; 1.02491E-4
4048.828125; 1.02536E-4
4054.687500; 9.81204E-5
4060.546875; 8.88099E-5
4066.406250; 9.63984E-5
4072.265625; 1.05398E-4
4078.125000; 1.09024E-4
4083.984375; 1.01921E-4
4089.843750; 1.08338E-4
4095.703125; 1.09869E-4
4101.562500; 9.94641E-5
4107.421875; 1.07136E-4
4113.281250; 1.09491E-4
4119.140625; 1.06859E-4
4125.000000; 1.02689E-4
4130.859375; 1.08941E-4
4136.718750; 1.13468E-4
4142.578125; 1.10212E-4
4148.437500; 1.11292E-4
4154.296875; 1.19574E-4
4160.156250; 1.07575E-4
4166.015625; 9.74476E-5
4171.875000; 1.05372E-4
4177.734375; 1.13085E-4
4183.593750; 1.00752E-4
4189.453125; 9.73230E-5
4195.312500; 9.83078E-5
4201.171875; 9.95990E-5
4207.031250; 1.12341E-4
4212.890625; 1.06683E-4
4218.750000; 9.49267E-5
4224.609375; 1.01899E-4
4230.468750; 1.09158E-4
4236.328125; 1.09789E-4
4242.187500; 1.10853E-4
4248.046875; 1.11226E-4
4253.906250; 1.00095E-4
4259.765625; 9.63049E-5
4265.625000; 1.09958E-4
4271.484375; 9.83203E-5
4277.343750; 9.70061E-5
4283.203125; 1.05363E-4
4289.062500; 1.03084E-4
4294.921875; 1.01025E-4
4300.781250; 1.06865E-4
4306.640625; 1.15882E-4
4312.500000; 1.17419E-4
4318.359375; 1.07096E-4
4324.218750; 1.02755E-4
4330.078125; 1.01962E-4
4335.937500; 9.96882E-5
4341.796875; 1.04303E-4
4347.656250; 9.87524E-5
4353.515625; 9.47003E-5
4359.375000; 9.24766E-5
4365.234375; 1.11512E-4
4371.093750; 1.20944E-4
4376.953125; 1.04604E-4
4382.812500; 1.03983E-4
4388.671875; 1.12913E-4
4394.531250; 1.11737E-4
4400.390625; 1.12673E-4
4406.250000; 1.12169E-4
4412.109375; 1.10067E-4
4417.968750; 1.02206E-4
4423.828125; 9.56436E-5
4429.687500; 1.01698E-4
4435.546875; 1.03459E-4
4441.406250; 1.04329E-4
4447.265625; 1.06949E-4
4453.125000; 1.04371E-4
4458.984375; 1.06572E-4
4464.843750; 1.13214E-4
4470.703125; 1.10128E-4
4476.562500; 1.05617E-4
4482.421875; 1.08976E-4
4488.281250; 9.45007E-5
4494.140625; 1.03686E-4
4500.000000; 9.67387E-5
4505.859375; 1.01211E-4
4511.718750; 9.70620E-5
4517.578125; 9.22791E-5
4523.437500; 1.02532E-4
4529.296875; 9.72917E-5
4535.156250; 1.00843E-4
4541.015625; 1.08273E-4
4546.875000; 1.10129E-4
4552.734375; 1.12198E-4
4558.593750; 1.04705E-4
4564.453125; 1.00748E-4
4570.312500; 1.01359E-4
4576.171875; 1.03896E-4
4582.031250; 1.06687E-4
4587.890625; 1.06642E-4
4593.750000; 9.99615E-5
4599.609375; 1.01415E-4
4605.468750; 9.95614E-5
4611.328125; 1.00761E-4
4617.187500; 1.03182E-4
4623.046875; 1.00189E-4
4628.906250; 1.06358E-4
4634.765625; 1.08786E-4
4640.625000; 1.06864E-4
4646.484375; 9.91346E-5
4652.343750; 1.04979E-4
4658.203125; 1.01463E-4
4664.062500; 1.13941E-4
4669.921875; 1.18558E-4
4675.781250; 1.19373E-4
4681.640625; 1.07967E-4
4687.500000; 1.03373E-4
4693.359375; 1.09448E-4
4699.218750; 1.08904E-4
4705.078125; 1.04836E-4
4710.937500; 9.84456E-5
4716.796875; 9.71331E-5
4722.656250; 1.06434E-4
4728.515625; 9.98233E-5
4734.375000; 9.42899E-5
4740.234375; 1.03001E-4
4746.093750; 1.14457E-4
4751.953125; 1.10926E-4
4757.812500; 1.06111E-4
4763.671875; 9.97855E-5
4769.531250; 9.66787E-5
4775.390625; 1.09963E-4
4781.250000; 1.08673E-4
4787.109375; 1.03446E-4
4792.968750; 1.05115E-4
4798.828125; 1.06749E-4
4804.687500; 1.03695E-4
4810.546875; 9.53176E-5
4816.406250; 1.02802E-4
4822.265625; 1.09140E-4
4828.125000; 9.39415E-5
4833.984375; 9.89285E-5
4839.843750; 1.09728E-4
4845.703125; 1.13731E-4
4851.562500; 1.01388E-4
4857.421875; 9.70841E-5
4863.281250; 9.84517E-5
4869.140625; 1.02375E-4
4875.000000; 1.00497E-4
4880.859375; 9.85561E-5
4886.718750; 9.79856E-5
4892.578125; 9.56608E-5
4898.437500; 1.08443E-4
4904.296875; 1.06563E-4
4910.156250; 1.01827E-4
4916.015625; 9.10938E-5
4921.875000; 1.00719E-4
4927.734375; 1.10483E-4
4933.593750; 1.12745E-4
4939.453125; 1.05140E-4
4945.312500; 1.10640E-4
4951.171875; 1.23281E-4
4957.031250; 1.13723E-4
4962.890625; 1.04463E-4
4968.750000; 1.07395E-4
4974.609375; 1.02828E-4
4980.468750; 9.91291E-5
4986.328125; 1.12907E-4
4992.187500; 5.41740E-4
4998.046875; 1.86132E-3
5003.906250; 1.48919E-3
5009.765625; 2.11437E-4
5015.625000; 1.13237E-4
5021.484375; 1.16606E-4
5027.343750; 1.11967E-4
5033.203125; 1.06687E-4
5039.062500; 1.01480E-4
5044.921875; 1.11432E-4
5050.781250; 1.17320E-4
5056.640625; 1.03192E-4
5062.500000; 1.08050E-4
5068.359375; 1.06116E-4
5074.218750; 1.06037E-4
5080.078125; 9.99273E-5
5085.937500; 1.02675E-4
5091.796875; 1.04553E-4
5097.656250; 9.89902E-5
5103.515625; 1.02729E-4
5109.375000; 1.01894E-4
5115.234375; 1.14292E-4
5121.093750; 1.08239E-4
5126.953125; 1.02220E-4
5132.812500; 1.12265E-4
5138.671875; 1.13215E-4
5144.531250; 1.17674E-4
5150.390625; 1.11264E-4
5156.250000; 1.21230E-4
5162.109375; 1.03917E-4
5167.968750; 1.02001E-4
5173.828125; 1.11710E-4
5179.687500; 1.12211E-4
5185.546875; 1.09039E-4
5191.406250; 1.11653E-4
5197.265625; 1.16159E-4
5203.125000; 1.16032E-4
5208.984375; 1.01203E-4
5214.843750; 1.08700E-4
5220.703125; 1.08022E-4
5226.562500; 1.04336E-4
5232.421875; 9.87186E-5
5238.281250; 1.04191E-4
5244.140625; 1.02310E-4
5250.000000; 1.04134E-4
5255.859375; 1.06078E-4
5261.718750; 1.06382E-4
5267.578125; 9.04940E-5
5273.437500; 1.04277E-4
5279.296875; 1.15637E-4
5285.156250; 1.04448E-4
5291.015625; 1.07892E-4
5296.875000; 1.14856E-4
5302.734375; 1.17132E-4
5308.593750; 1.02396E-4
5314.453125; 1.01566E-4
5320.312500; 1.04845E-4
5326.171875; 1.11196E-4
5332.031250; 1.01054E-4
5337.890625; 9.36165E-5
5343.750000; 1.10476E-4
5349.609375; 1.01373E-4
5355.468750; 9.87869E-5
5361.328125; 9.99269E-5
5367.187500; 9.75941E-5
5373.046875; 9.55851E-5
5378.906250; 1.10890E-4
5384.765625; 1.09383E-4
5390.625000; 9.87311E-5
5396.484375; 9.97036E-5
5402.343750; 1.07510E-4
5408.203125; 1.13174E-4
5414.062500; 1.10872E-4
5419.921875; 1.04274E-4
5425.781250; 1.11008E-4
5431.640625; 9.19345E-5
5437.500000; 9.16896E-5
5443.359375; 9.80099E-5
5449.218750; 1.04030E-4
5455.078125; 1.08793E-4
5460.937500; 1.14990E-4
5466.796875; 1.05244E-4
5472.656250; 9.87844E-5
5478.515625; 8.69911E-5
5484.375000; 9.39170E-5
5490.234375; 1.04064E-4
5496.093750; 1.07006E-4
5501.953125; 1.06736E-4
5507.812500; 1.00083E-4
5513.671875; 1.04138E-4
5519.531250; 1.02912E-4
5525.390625; 1.05123E-4
5531.250000; 1.08311E-4
5537.109375; 1.01238E-4
5542.968750; 1.00646E-4
5548.828125; 1.02166E-4
5554.687500; 1.01471E-4
5560.546875; 9.95864E-5
5566.406250; 1.06047E-4
5572.265625; 9.86120E-5
5578.125000; 9.44773E-5
5583.984375; 9.29858E-5
5589.843750; 1.00977E-4
5595.703125; 9.46125E-5
5601.562500; 1.09450E-4
5607.421875; 1.04984E-4
5613.281250; 9.50920E-5
5619.140625; 9.51410E-5
5625.000000; 9.19540E-5
5630.859375; 1.08814E-4
5636.718750; 1.10460E-4
5642.578125; 9.95513E-5
5648.437500; 1.00513E-4
5654.296875; 1.10324E-4
5660.156250; 1.00539E-4
5666.015625; 9.88832E-5
5671.875000; 1.06156E-4
5677.734375; 1.04897E-4
5683.593750; 9.81681E-5
5689.453125; 1.02390E-4
5695.312500; 1.16889E-4
5701.171875; 1.06180E-4
5707.031250; 9.50710E-5
5712.890625; 1.00064E-4
5718.750000; 9.71772E-5
5724.609375; 1.10464E-4
5730.468750; 1.16461E-4
5736.328125; 1.00573E-4
5742.187500; 9.78586E-5
5748.046875; 1.12754E-4
5753.906250; 1.13121E-4
5759.765625; 1.03253E-4
5765.625000; 1.06522E-4
5771.484375; 1.17858E-4
5777.343750; 1.08954E-4
5783.203125; 9.71505E-5
5789.062500; 1.05839E-4
5794.921875; 1.16084E-4
5800.781250; 1.00283E-4
5806.640625; 9.71567E-5
5812.500000; 9.13093E-5
5818.359375; 1.02032E-4
5824.218750; 9.89789E-5
5830.078125; 9.79993E-5
5835.937500; 9.89793E-5
5841.796875; 1.09394E-4
5847.656250; 1.13527E-4
5853.515625; 1.09625E-4
5859.375000; 1.06991E-4
5865.234375; 1.07770E-4
5871.093750; 1.04738E-4
5876.953125; 1.00001E-4
5882.812500; 1.00242E-4
5888.671875; 1.10440E-4
5894.531250; 1.10714E-4
5900.390625; 1.06764E-4
5906.250000; 1.16358E-4
5912.109375; 1.09683E-4
5917.968750; 1.03424E-4
5923.828125; 1.06487E-4
5929.687500; 1.07270E-4
5935.546875; 1.13736E-4
5941.406250; 1.13790E-4
5947.265625; 1.06863E-4
5953.125000; 1.06220E-4
5958.984375; 1.09471E-4
5964.843750; 1.17813E-4
5970.703125; 1.15100E-4
5976.562500; 1.12794E-4
5982.421875; 1.04200E-4
5988.281250; 1.02982E-4
5994.140625; 2.86996E-4
6000.000000; 5.41218E-4
6005.859375; 2.89810E-4
6011.718750; 9.66045E-5
6017.578125; 1.01881E-4
6023.437500; 1.00355E-4
6029.296875; 9.08077E-5
6035.156250; 1.07991E-4
6041.015625; 1.10570E-4
6046.875000; 1.18121E-4
6052.734375; 1.09846E-4
6058.593750; 1.09494E-4
6064.453125; 1.07562E-4
6070.312500; 1.15602E-4
6076.171875; 9.99545E-5
6082.031250; 9.38718E-5
6087.890625; 1.00139E-4
6093.750000; 1.07472E-4
6099.609375; 1.02496E-4
6105.468750; 9.84250E-5
6111.328125; 1.08351E-4
6117.187500; 9.68618E-5
6123.046875; 9.85997E-5
6128.906250; 1.11996E-4
6134.765625; 1.12475E-4
6140.625000; 1.04866E-4
6146.484375; 9.95554E-5
6152.343750; 1.03859E-4
6158.203125; 9.96007E-5
6164.062500; 1.01366E-4
6169.921875; 1.03779E-4
6175.781250; 1.13178E-4
6181.640625; 1.05472E-4
6187.500000; 1.05655E-4
6193.359375; 1.02693E-4
6199.218750; 1.17527E-4
6205.078125; 1.17552E-4
6210.937500; 1.17279E-4
6216.796875; 1.08660E-4
6222.656250; 1.09986E-4
6228.515625; 1.19200E-4
6234.375000; 1.04899E-4
6240.234375; 1.02412E-4
6246.093750; 1.04926E-4
6251.953125; 1.12048E-4
6257.812500; 1.04531E-4
6263.671875; 1.07525E-4
6269.531250; 1.11109E-4
6275.390625; 1.20596E-4
6281.250000; 1.22686E-4
6287.109375; 1.08596E-4
6292.968750; 1.08066E-4
6298.828125; 1.13743E-4
6304.687500; 1.13112E-4
6310.546875; 1.07429E-4
6316.406250; 1.11585E-4
6322.265625; 1.01799E-4
6328.125000; 1.05079E-4
6333.984375; 1.06114E-4
6339.843750; 1.11130E-4
6345.703125; 1.00231E-4
6351.562500; 1.13143E-4
6357.421875; 1.12422E-4
6363.281250; 1.01054E-4
6369.140625; 1.02883E-4
6375.000000; 1.13278E-4
6380.859375; 1.11552E-4
6386.718750; 1.06886E-4
6392.578125; 1.09103E-4
6398.437500; 1.02385E-4
6404.296875; 1.04722E-4
6410.156250; 9.82017E-5
6416.015625; 9.63813E-5
6421.875000; 9.75364E-5
6427.734375; 9.98920E-5
6433.593750; 1.04200E-4
6439.453125; 1.00706E-4
6445.312500; 1.03735E-4
6451.171875; 9.93624E-5
6457.031250; 9.92924E-5
6462.890625; 1.03615E-4
6468.750000; 1.09602E-4
6474.609375; 9.93455E-5
6480.468750; 1.06562E-4
6486.328125; 9.84257E-5
6492.187500; 1.05670E-4
6498.046875; 1.07697E-4
6503.906250; 1.07671E-4
6509.765625; 1.04936E-4
6515.625000; 1.01293E-4
6521.484375; 1.06634E-4
6527.343750; 1.07326E-4
6533.203125; 1.05098E-4
6539.062500; 1.04575E-4
6544.921875; 1.04345E-4
6550.781250; 9.20147E-5
6556.640625; 1.06829E-4
6562.500000; 1.02416E-4
6568.359375; 9.67322E-5
6574.218750; 1.04774E-4
6580.078125; 9.63883E-5
6585.937500; 1.04635E-4
6591.796875; 1.11259E-4
6597.656250; 1.04343E-4
6603.515625; 1.09756E-4
6609.375000; 1.12035E-4
6615.234375; 9.85166E-5
6621.093750; 9.53911E-5
6626.953125; 9.90583E-5
6632.812500; 1.03215E-4
6638.671875; 1.01216E-4
6644.531250; 9.90157E-5
6650.390625; 1.03077E-4
6656.250000; 1.04211E-4
6662.109375; 9.60491E-5
6667.968750; 9.16393E-5
6673.828125; 8.68531E-5
6679.687500; 9.12590E-5
6685.546875; 1.05746E-4
6691.406250; 1.00331E-4
6697.265625; 1.01778E-4
6703.125000; 9.85443E-5
6708.984375; 1.12589E-4
6714.843750; 1.02609E-4
6720.703125; 1.00561E-4
6726.562500; 1.07410E-4
6732.421875; 1.05239E-4
6738.281250; 9.46913E-5
6744.140625; 1.04669E-4
6750.000000; 1.08562E-4
6755.859375; 1.08803E-4
6761.718750; 1.05756E-4
6767.578125; 9.87875E-5
6773.437500; 1.03414E-4
6779.296875; 1.04403E-4
6785.156250; 1.05444E-4
6791.015625; 1.10250E-4
6796.875000; 1.05122E-4
6802.734375; 1.03359E-4
6808.593750; 9.60028E-5
6814.453125; 1.08916E-4
6820.312500; 1.14884E-4
6826.171875; 9.88285E-5
6832.031250; 9.92516E-5
6837.890625; 1.08262E-4
6843.750000; 1.05969E-4
6849.609375; 1.03087E-4
6855.468750; 9.68467E-5
6861.328125; 8.22861E-5
6867.187500; 8.78588E-5
6873.046875; 9.72092E-5
6878.906250; 1.16034E-4
6884.765625; 1.20110E-4
6890.625000; 9.62656E-5
6896.484375; 9.55742E-5
6902.343750; 9.99821E-5
6908.203125; 1.02486E-4
6914.062500; 1.06758E-4
6919.921875; 1.09976E-4
6925.781250; 1.08152E-4
6931.640625; 1.01603E-4
6937.500000; 1.01446E-4
6943.359375; 1.01545E-4
6949.218750; 1.13193E-4
6955.078125; 1.03052E-4
6960.937500; 9.60204E-5
6966.796875; 1.01764E-4
6972.656250; 1.04176E-4
6978.515625; 1.17727E-4
6984.375000; 1.14042E-4
6990.234375; 1.10357E-4
6996.093750; 2.44877E-4
7001.953125; 2.84465E-4
7007.812500; 1.19004E-4
7013.671875; 1.12385E-4
7019.531250; 1.12414E-4
7025.390625; 1.01675E-4
7031.250000; 1.09767E-4
7037.109375; 1.17610E-4
7042.968750; 1.09205E-4
7048.828125; 1.06716E-4
7054.687500; 1.09247E-4
7060.546875; 9.87149E-5
7066.406250; 1.03756E-4
7072.265625; 1.09866E-4
7078.125000; 1.02046E-4
7083.984375; 1.04613E-4
7089.843750; 1.04981E-4
7095.703125; 1.11349E-4
7101.562500; 1.03172E-4
7107.421875; 1.08018E-4
7113.281250; 1.03900E-4
7119.140625; 1.07831E-4
7125.000000; 1.02991E-4
7130.859375; 1.03708E-4
7136.718750; 1.14228E-4
7142.578125; 1.09886E-4
7148.437500; 9.95338E-5
7154.296875; 1.01280E-4
7160.156250; 1.04900E-4
7166.015625; 9.80247E-5
7171.875000; 9.60525E-5
7177.734375; 1.11344E-4
7183.593750; 1.12815E-4
7189.453125; 9.70993E-5
7195.312500; 1.02160E-4
7201.171875; 1.08790E-4
7207.031250; 1.03484E-4
7212.890625; 1.11392E-4
7218.750000; 1.15613E-4
7224.609375; 1.11752E-4
7230.468750; 1.10994E-4
7236.328125; 1.13604E-4
7242.187500; 1.14341E-4
7248.046875; 1.09471E-4
7253.906250; 1.09381E-4
7259.765625; 1.06977E-4
7265.625000; 1.04964E-4
7271.484375; 9.94636E-5
7277.343750; 1.07212E-4
7283.203125; 1.16692E-4
7289.062500; 1.06514E-4
7294.921875; 1.05384E-4
7300.781250; 1.08982E-4
7306.640625; 1.03366E-4
7312.500000; 1.03637E-4
7318.359375; 1.01607E-4
7324.218750; 1.00735E-4
7330.078125; 9.58475E-5
7335.937500; 9.36990E-5
7341.796875; 9.67020E-5
7347.656250; 1.05813E-4
7353.515625; 1.02160E-4
7359.375000; 1.08610E-4
7365.234375; 1.02209E-4
7371.093750; 1.07129E-4
7376.953125; 1.09845E-4
7382.812500; 1.07509E-4
7388.671875; 1.05953E-4
7394.531250; 1.01240E-4
7400.390625; 9.91961E-5
7406.250000; 1.02193E-4
7412.109375; 1.01812E-4
7417.968750; 1.01049E-4
7423.828125; 1.03027E-4
7429.687500; 1.12669E-4
7435.546875; 1.13193E-4
7441.406250; 1.08397E-4
7447.265625; 1.06893E-4
7453.125000; 1.05269E-4
7458.984375; 1.05865E-4
7464.843750; 1.07037E-4
7470.703125; 1.01484E-4
7476.562500; 9.87910E-5
7482.421875; 9.65494E-5
7488.281250; 9.95986E-5
7494.140625; 1.04099E-4
7500.000000; 1.05821E-4
7505.859375; 1.06924E-4
7511.718750; 1.05447E-4
7517.578125; 1.06930E-4
7523.437500; 1.09046E-4
7529.296875; 1.06895E-4
7535.156250; 1.05372E-4
7541.015625; 1.13819E-4
7546.875000; 1.04098E-4
7552.734375; 9.95272E-5
7558.593750; 1.04692E-4
7564.453125; 1.08180E-4
7570.312500; 1.02946E-4
7576.171875; 1.08508E-4
7582.031250; 1.06733E-4
7587.890625; 1.11429E-4
7593.750000; 1.11083E-4
7599.609375; 1.10759E-4
7605.468750; 1.04812E-4
7611.328125; 1.03002E-4
7617.187500; 1.04219E-4
7623.046875; 1.06349E-4
7628.906250; 1.08537E-4
7634.765625; 1.09792E-4
7640.625000; 1.05394E-4
7646.484375; 1.00396E-4
7652.343750; 1.09645E-4
7658.203125; 1.08078E-4
7664.062500; 9.98846E-5
7669.921875; 1.12629E-4
7675.781250; 1.10152E-4
7681.640625; 1.11840E-4
7687.500000; 1.09016E-4
7693.359375; 1.09308E-4
7699.218750; 1.03481E-4
7705.078125; 9.56968E-5
7710.937500; 1.07332E-4
7716.796875; 1.09594E-4
7722.656250; 1.00149E-4
7728.515625; 9.49906E-5
7734.375000; 9.57802E-5
7740.234375; 9.07901E-5
7746.093750; 1.06763E-4
7751.953125; 1.00868E-4
7757.812500; 9.74603E-5
7763.671875; 1.11610E-4
7769.531250; 1.14595E-4
7775.390625; 1.09153E-4
7781.250000; 1.00314E-4
7787.109375; 1.09313E-4
7792.968750; 1.07884E-4
7798.828125; 1.07360E-4
7804.687500; 9.54837E-5
7810.546875; 1.08238E-4
7816.406250; 9.88269E-5
7822.265625; 9.46143E-5
7828.125000; 9.11279E-5
7833.984375; 9.87475E-5
7839.843750; 1.11804E-4
7845.703125; 1.02059E-4
7851.562500; 9.33975E-5
7857.421875; 9.45485E-5
7863.281250; 9.80850E-5
7869.140625; 1.04016E-4
7875.000000; 1.02876E-4
7880.859375; 1.00456E-4
7886.718750; 1.05220E-4
7892.578125; 1.07836E-4
7898.437500; 1.00103E-4
7904.296875; 9.66283E-5
7910.156250; 9.61996E-5
7916.015625; 1.05772E-4
7921.875000; 1.13284E-4
7927.734375; 1.13246E-4
7933.593750; 1.07289E-4
7939.453125; 1.05459E-4
7945.312500; 9.88012E-5
7951.171875; 1.07365E-4
7957.031250; 1.04934E-4
7962.890625; 1.09140E-4
7968.750000; 1.10393E-4
7974.609375; 1.09345E-4
7980.468750; 1.10812E-4
7986.328125; 1.06145E-4
7992.187500; 1.14851E-4
7998.046875; 1.82561E-4
8003.906250; 1.58967E-4
8009.765625; 1.08673E-4
8015.625000; 1.00652E-4
8021.484375; 1.01615E-4
8027.343750; 1.03747E-4
8033.203125; 9.78894E-5
8039.062500; 9.89980E-5
8044.921875; 1.03123E-4
8050.781250; 1.07053E-4
8056.640625; 1.01758E-4
8062.500000; 1.03777E-4
8068.359375; 1.07820E-4
8074.218750; 9.51530E-5
8080.078125; 1.00981E-4
8085.937500; 1.00145E-4
8091.796875; 9.32750E-5
8097.656250; 9.35838E-5
8103.515625; 1.08803E-4
8109.375000; 1.09838E-4
8115.234375; 9.96171E-5
8121.093750; 9.42323E-5
8126.953125; 9.77054E-5
8132.812500; 9.59685E-5
8138.671875; 9.75103E-5
8144.531250; 9.93286E-5
8150.390625; 1.02020E-4
8156.250000; 1.03483E-4
8162.109375; 9.80609E-5
8167.968750; 9.96476E-5
8173.828125; 1.00648E-4
8179.687500; 1.09095E-4
8185.546875; 1.00899E-4
8191.406250; 9.23575E-5
8197.265625; 9.96205E-5
8203.125000; 1.08088E-4
8208.984375; 9.88646E-5
8214.843750; 9.94969E-5
8220.703125; 9.94294E-5
8226.562500; 1.01062E-4
8232.421875; 1.05777E-4
8238.281250; 1.06437E-4
8244.140625; 1.10896E-4
8250.000000; 1.07093E-4
8255.859375; 9.11254E-5
8261.718750; 9.91641E-5
8267.578125; 1.03297E-4
8273.437500; 1.11882E-4
8279.296875; 1.09268E-4
8285.156250; 1.15953E-4
8291.015625; 1.21666E-4
8296.875000; 1.15594E-4
8302.734375; 1.10551E-4
8308.593750; 1.08535E-4
8314.453125; 1.05201E-4
8320.312500; 1.00522E-4
8326.171875; 9.64135E-5
8332.031250; 9.86301E-5
8337.890625; 9.43109E-5
8343.750000; 9.54571E-5
8349.609375; 1.00825E-4
8355.468750; 1.13501E-4
8361.328125; 1.14189E-4
8367.187500; 1.01878E-4
8373.046875; 1.02589E-4
8378.906250; 1.03198E-4
8384.765625; 9.86765E-5
8390.625000; 1.04654E-4
8396.484375; 1.02883E-4
8402.343750; 1.09572E-4
8408.203125; 1.14074E-4
8414.062500; 1.05458E-4
8419.921875; 1.01994E-4
8425.781250; 9.84240E-5
8431.640625; 1.09596E-4
8437.500000; 1.08057E-4
8443.359375; 1.12828E-4
8449.218750; 1.04116E-4
8455.078125; 9.05589E-5
8460.937500; 1.02511E-4
8466.796875; 1.00078E-4
8472.656250; 9.85987E-5
8478.515625; 1.02723E-4
8484.375000; 1.04218E-4
8490.234375; 1.00233E-4
8496.093750; 1.02959E-4
8501.953125; 9.81276E-5
8507.812500; 1.01568E-4
8513.671875; 1.05396E-4
8519.531250; 1.00753E-4
8525.390625; 9.97828E-5
8531.250000; 1.05641E-4
8537.109375; 1.00142E-4
8542.968750; 1.15479E-4
8548.828125; 1.12877E-4
8554.687500; 1.05016E-4
8560.546875; 1.02810E-4
8566.406250; 9.69746E-5
8572.265625; 8.86719E-5
8578.125000; 9.19556E-5
8583.984375; 1.00165E-4
8589.843750; 9.63461E-5
8595.703125; 1.01647E-4
8601.562500; 1.04910E-4
8607.421875; 1.12788E-4
8613.281250; 1.02082E-4
8619.140625; 9.63629E-5
8625.000000; 9.14966E-5
8630.859375; 9.92230E-5
8636.718750; 1.01646E-4
8642.578125; 1.11156E-4
8648.437500; 1.06749E-4
8654.296875; 1.03148E-4
8660.156250; 1.07824E-4
8666.015625; 1.11246E-4
8671.875000; 1.08071E-4
8677.734375; 1.00453E-4
8683.593750; 1.07694E-4
8689.453125; 1.07896E-4
8695.312500; 9.93510E-5
8701.171875; 1.06948E-4
8707.031250; 9.73387E-5
8712.890625; 9.23060E-5
8718.750000; 1.05883E-4
8724.609375; 1.00314E-4
8730.468750; 1.01949E-4
8736.328125; 9.66195E-5
8742.187500; 1.00891E-4
8748.046875; 1.04772E-4
8753.906250; 1.01208E-4
8759.765625; 1.01601E-4
8765.625000; 1.10051E-4
8771.484375; 1.02640E-4
8777.343750; 1.01656E-4
8783.203125; 1.03877E-4
8789.062500; 1.02882E-4
8794.921875; 1.03218E-4
8800.781250; 9.51233E-5
8806.640625; 1.15537E-4
8812.500000; 1.14568E-4
8818.359375; 1.02479E-4
8824.218750; 1.02470E-4
8830.078125; 9.40103E-5
8835.937500; 1.02270E-4
8841.796875; 1.04266E-4
8847.656250; 1.07726E-4
8853.515625; 1.15462E-4
8859.375000; 1.01949E-4
8865.234375; 1.02365E-4
8871.093750; 9.29424E-5
8876.953125; 9.15413E-5
8882.812500; 8.56161E-5
8888.671875; 9.69653E-5
8894.531250; 1.03289E-4
8900.390625; 1.04524E-4
8906.250000; 1.07196E-4
8912.109375; 1.04887E-4
8917.968750; 9.24418E-5
8923.828125; 9.97099E-5
8929.687500; 1.04881E-4
8935.546875; 1.11731E-4
8941.406250; 1.02124E-4
8947.265625; 9.36933E-5
8953.125000; 1.04701E-4
8958.984375; 1.04901E-4
8964.843750; 1.04876E-4
8970.703125; 1.09456E-4
8976.562500; 1.00146E-4
8982.421875; 1.03936E-4
8988.281250; 1.06676E-4
8994.140625; 1.03295E-4
9000.000000; 1.31178E-4
9005.859375; 1.17080E-4
9011.718750; 1.08423E-4
9017.578125; 9.71810E-5
9023.437500; 9.99668E-5
9029.296875; 1.00861E-4
9035.156250; 1.00809E-4
9041.015625; 1.04912E-4
9046.875000; 1.08848E-4
9052.734375; 1.04054E-4
9058.593750; 9.80357E-5
9064.453125; 9.31824E-5
9070.312500; 1.04535E-4
9076.171875; 1.03203E-4
9082.031250; 1.06674E-4
9087.890625; 1.04423E-4
9093.750000; 9.78531E-5
9099.609375; 1.03392E-4
9105.468750; 1.10216E-4
9111.328125; 1.17912E-4
9117.187500; 1.10518E-4
9123.046875; 1.03664E-4
9128.906250; 1.04771E-4
9134.765625; 1.08441E-4
9140.625000; 1.09171E-4
9146.484375; 1.02664E-4
9152.343750; 9.28707E-5
9158.203125; 1.01109E-4
9164.062500; 1.04951E-4
9169.921875; 1.08240E-4
9175.781250; 1.02950E-4
9181.640625; 1.00805E-4
9187.500000; 1.01464E-4
9193.359375; 1.00570E-4
9199.218750; 9.89302E-5
9205.078125; 9.76045E-5
9210.937500; 1.07765E-4
9216.796875; 1.10460E-4
9222.656250; 1.09687E-4
9228.515625; 1.00125E-4
9234.375000; 9.37839E-5
9240.234375; 9.18365E-5
9246.093750; 9.08783E-5
9251.953125; 1.05316E-4
9257.812500; 1.04181E-4
9263.671875; 9.94986E-5
9269.531250; 9.81865E-5
9275.390625; 1.03970E-4
9281.250000; 1.01057E-4
9287.109375; 1.02096E-4
9292.968750; 9.45746E-5
9298.828125; 9.99935E-5
9304.687500; 1.07522E-4
9310.546875; 9.46106E-5
9316.406250; 9.30488E-5
9322.265625; 1.06815E-4
9328.125000; 1.10115E-4
9333.984375; 1.05358E-4
9339.843750; 9.94634E-5
9345.703125; 1.07741E-4
9351.562500; 1.02825E-4
9357.421875; 1.04705E-4
9363.281250; 1.03258E-4
9369.140625; 1.00820E-4
9375.000000; 1.05062E-4
9380.859375; 9.51549E-5
9386.718750; 8.68621E-5
9392.578125; 9.29384E-5
9398.437500; 9.65961E-5
9404.296875; 9.85096E-5
9410.156250; 9.10311E-5
9416.015625; 9.61253E-5
9421.875000; 1.02004E-4
9427.734375; 9.84827E-5
9433.593750; 8.93574E-5
9439.453125; 9.01670E-5
9445.312500; 9.43893E-5
9451.171875; 9.24537E-5
9457.031250; 9.72221E-5
9462.890625; 8.57877E-5
9468.750000; 9.41590E-5
9474.609375; 1.12778E-4
9480.468750; 1.20555E-4
9486.328125; 1.11933E-4
9492.187500; 9.68308E-5
9498.046875; 8.75045E-5
9503.906250; 9.34467E-5
9509.765625; 9.24032E-5
9515.625000; 9.95056E-5
9521.484375; 1.00046E-4
9527.343750; 1.04548E-4
9533.203125; 1.05320E-4
9539.062500; 1.09258E-4
9544.921875; 1.14425E-4
9550.781250; 1.06304E-4
9556.640625; 9.83718E-5
9562.500000; 9.69715E-5
9568.359375; 1.01793E-4
9574.218750; 9.66109E-5
9580.078125; 1.08191E-4
9585.937500; 1.12015E-4
9591.796875; 1.02231E-4
9597.656250; 1.04795E-4
9603.515625; 9.77918E-5
9609.375000; 9.53219E-5
9615.234375; 9.90049E-5
9621.093750; 1.02435E-4
9626.953125; 1.06500E-4
9632.812500; 9.50512E-5
9638.671875; 1.00716E-4
9644.531250; 1.01698E-4
9650.390625; 9.57098E-5
9656.250000; 9.43865E-5
9662.109375; 1.02017E-4
9667.968750; 9.65191E-5
9673.828125; 9.94162E-5
9679.687500; 1.02151E-4
9685.546875; 9.93351E-5
9691.406250; 9.67925E-5
9697.265625; 1.14661E-4
9703.125000; 1.03215E-4
9708.984375; 9.54469E-5
9714.843750; 1.02435E-4
9720.703125; 9.87392E-5
9726.562500; 1.03440E-4
9732.421875; 1.05692E-4
9738.281250; 1.03416E-4
9744.140625; 9.84343E-5
9750.000000; 1.04584E-4
9755.859375; 1.05557E-4
9761.718750; 1.02037E-4
9767.578125; 1.10809E-4
9773.437500; 1.08468E-4
9779.296875; 1.01396E-4
9785.156250; 1.10768E-4
9791.015625; 1.03527E-4
9796.875000; 1.13100E-4
9802.734375; 1.12217E-4
9808.593750; 1.02162E-4
9814.453125; 1.07449E-4
9820.312500; 1.06207E-4
9826.171875; 9.98926E-5
9832.031250; 1.07944E-4
9837.890625; 1.13874E-4
9843.750000; 1.07996E-4
9849.609375; 1.07168E-4
9855.468750; 9.94425E-5
9861.328125; 1.03927E-4
9867.187500; 1.16592E-4
9873.046875; 1.05315E-4
9878.906250; 1.02004E-4
9884.765625; 1.02990E-4
9890.625000; 1.06465E-4
9896.484375; 1.21618E-4
9902.343750; 1.25695E-4
9908.203125; 1.14574E-4
9914.062500; 1.04745E-4
9919.921875; 9.19805E-5
9925.781250; 8.96510E-5
9931.640625; 9.69680E-5
9937.500000; 1.00917E-4
9943.359375; 9.50377E-5
9949.218750; 9.96372E-5
9955.078125; 1.04285E-4
9960.937500; 9.91525E-5
9966.796875; 9.87846E-5
9972.656250; 1.01560E-4
9978.515625; 1.03608E-4
9984.375000; 9.97898E-5
9990.234375; 1.06342E-4
9996.093750; 1.72099E-4
10001.953125; 2.04070E-4
10007.812500; 1.23683E-4
10013.671875; 1.09419E-4
10019.531250; 1.00027E-4
10025.390625; 1.02931E-4
10031.250000; 1.14268E-4
10037.109375; 9.82069E-5
10042.968750; 1.12185E-4
10048.828125; 1.00396E-4
10054.687500; 9.91793E-5
10060.546875; 9.60401E-5
10066.406250; 9.43268E-5
10072.265625; 1.03523E-4
10078.125000; 1.06646E-4
10083.984375; 1.04938E-4
10089.843750; 9.42352E-5
10095.703125; 9.51949E-5
10101.562500; 1.01460E-4
10107.421875; 1.09733E-4
10113.281250; 1.09558E-4
10119.140625; 1.02711E-4
10125.000000; 9.52385E-5
10130.859375; 1.00763E-4
10136.718750; 1.07558E-4
10142.578125; 9.68759E-5
10148.437500; 9.98098E-5
10154.296875; 1.16224E-4
10160.156250; 1.09494E-4
10166.015625; 1.03434E-4
10171.875000; 9.93636E-5
10177.734375; 9.78279E-5
10183.593750; 9.95340E-5
10189.453125; 1.03892E-4
10195.312500; 1.00981E-4
10201.171875; 1.00312E-4
10207.031250; 9.98534E-5
10212.890625; 9.69363E-5
10218.750000; 9.31243E-5
10224.609375; 9.47306E-5
10230.468750; 1.10063E-4
10236.328125; 1.13604E-4
10242.187500; 1.04702E-4
10248.046875; 1.08817E-4
10253.906250; 9.81918E-5
10259.765625; 9.48978E-5
10265.625000; 9.31167E-5
10271.484375; 1.02202E-4
10277.343750; 1.07067E-4
10283.203125; 9.81318E-5
10289.062500; 9.51990E-5
10294.921875; 9.92314E-5
10300.781250; 1.02865E-4
10306.640625; 1.08547E-4
10312.500000; 1.02340E-4
10318.359375; 9.71172E-5
10324.218750; 1.00460E-4
10330.078125; 1.03739E-4
10335.937500; 1.06527E-4
10341.796875; 1.07783E-4
10347.656250; 1.19912E-4
10353.515625; 1.13645E-4
10359.375000; 1.07481E-4
10365.234375; 9.84003E-5
10371.093750; 1.01064E-4
10376.953125; 1.04029E-4
10382.812500; 9.58048E-5
10388.671875; 9.49270E-5
10394.531250; 1.01488E-4
10400.390625; 1.11015E-4
10406.250000; 1.02901E-4
10412.109375; 1.17344E-4
10417.968750; 1.22948E-4
10423.828125; 1.00511E-4
10429.687500; 1.04507E-4
10435.546875; 9.79746E-5
10441.406250; 9.50531E-5
10447.265625; 1.03632E-4
10453.125000; 1.07962E-4
10458.984375; 1.01676E-4
10464.843750; 9.46314E-5
10470.703125; 1.00389E-4
10476.562500; 1.06098E-4
10482.421875; 9.45837E-5
10488.281250; 9.18554E-5
10494.140625; 1.00345E-4
10500.000000; 1.13209E-4
10505.859375; 1.06660E-4
10511.718750; 1.08575E-4
10517.578125; 1.14906E-4
10523.437500; 1.15137E-4
10529.296875; 9.58984E-5
10535.156250; 1.05466E-4
10541.015625; 1.05352E-4
10546.875000; 1.11261E-4
10552.734375; 1.09724E-4
10558.593750; 1.04786E-4
10564.453125; 1.03302E-4
10570.312500; 1.08404E-4
10576.171875; 1.16725E-4
10582.031250; 1.07437E-4
10587.890625; 1.09379E-4
10593.750000; 1.05298E-4
10599.609375; 1.01440E-4
10605.468750; 9.71878E-5
10611.328125; 1.03112E-4
10617.187500; 1.04790E-4
10623.046875; 1.07479E-4
10628.906250; 1.09726E-4
10634.765625; 1.14823E-4
10640.625000; 1.15997E-4
10646.484375; 1.15845E-4
10652.343750; 1.22919E-4
10658.203125; 1.05177E-4
10664.062500; 9.85651E-5
10669.921875; 1.04505E-4
10675.781250; 1.03629E-4
10681.640625; 1.11704E-4
10687.500000; 1.14981E-4
10693.359375; 1.10973E-4
10699.218750; 1.09956E-4
10705.078125; 9.63643E-5
10710.937500; 1.04740E-4
10716.796875; 1.07416E-4
10722.656250; 1.03666E-4
10728.515625; 8.99294E-5
10734.375000; 1.07254E-4
10740.234375; 1.06935E-4
10746.093750; 9.88417E-5
10751.953125; 1.01024E-4
10757.812500; 9.95814E-5
10763.671875; 1.11698E-4
10769.531250; 1.10664E-4
10775.390625; 1.07179E-4
10781.250000; 1.04774E-4
10787.109375; 1.03672E-4
10792.968750; 9.60255E-5
10798.828125; 9.97869E-5
10804.687500; 9.62791E-5
10810.546875; 1.05445E-4
10816.406250; 1.02906E-4
10822.265625; 1.00228E-4
10828.125000; 1.10786E-4
10833.984375; 1.12948E-4
10839.843750; 1.00216E-4
10845.703125; 1.08130E-4
10851.562500; 1.08658E-4
10857.421875; 1.06094E-4
10863.281250; 1.04507E-4
10869.140625; 1.02465E-4
10875.000000; 9.92952E-5
10880.859375; 9.82414E-5
10886.718750; 9.52960E-5
10892.578125; 9.67038E-5
10898.437500; 9.59178E-5
10904.296875; 9.70158E-5
10910.156250; 1.02568E-4
10916.015625; 9.59733E-5
10921.875000; 9.66456E-5
10927.734375; 9.30920E-5
10933.593750; 9.90859E-5
10939.453125; 9.56790E-5
10945.312500; 9.75344E-5
10951.171875; 1.07176E-4
10957.031250; 1.01156E-4
10962.890625; 1.06282E-4
10968.750000; 1.11628E-4
10974.609375; 1.03993E-4
10980.468750; 1.12966E-4
10986.328125; 9.90934E-5
10992.187500; 1.02074E-4
10998.046875; 1.49915E-4
11003.906250; 1.32095E-4
11009.765625; 9.76144E-5
11015.625000; 9.87436E-5
11021.484375; 1.00557E-4
11027.343750; 9.91917E-5
11033.203125; 9.73655E-5
11039.062500; 1.00013E-4
11044.921875; 1.04888E-4
11050.781250; 1.11659E-4
11056.640625; 1.08451E-4
11062.500000; 1.03065E-4
11068.359375; 1.00103E-4
11074.218750; 1.06433E-4
11080.078125; 1.03900E-4
11085.937500; 1.08929E-4
11091.796875; 1.07504E-4
11097.656250; 9.70021E-5
11103.515625; 9.03124E-5
11109.375000; 9.95749E-5
11115.234375; 1.02644E-4
11121.093750; 1.02860E-4
11126.953125; 9.86264E-5
11132.812500; 1.03100E-4
11138.671875; 1.04351E-4
11144.531250; 1.07069E-4
11150.390625; 1.16818E-4
11156.250000; 1.05791E-4
11162.109375; 1.11107E-4
11167.968750; 1.06314E-4
11173.828125; 1.03188E-4
11179.687500; 1.06874E-4
11185.546875; 1.03528E-4
11191.406250; 1.02501E-4
11197.265625; 1.02926E-4
11203.125000; 1.01704E-4
11208.984375; 9.12170E-5
11214.843750; 9.77389E-5
11220.703125; 1.07032E-4
11226.562500; 1.04934E-4
11232.421875; 9.50337E-5
11238.281250; 9.83026E-5
11244.140625; 1.10504E-4
11250.000000; 1.02766E-4
11255.859375; 1.06839E-4
11261.718750; 1.05904E-4
11267.578125; 1.12390E-4
11273.437500; 1.00261E-4
11279.296875; 1.00577E-4
11285.156250; 1.02580E-4
11291.015625; 1.08299E-4
11296.875000; 1.04435E-4
11302.734375; 9.91394E-5
11308.593750; 1.06274E-4
11314.453125; 1.17929E-4
11320.312500; 1.10715E-4
11326.171875; 1.07388E-4
11332.031250; 1.06147E-4
11337.890625; 1.13238E-4
11343.750000; 1.10910E-4
11349.609375; 1.05540E-4
11355.468750; 9.14598E-5
11361.328125; 9.42613E-5
11367.187500; 1.02283E-4
11373.046875; 1.04193E-4
11378.906250; 1.03177E-4
11384.765625; 1.03583E-4
11390.625000; 1.05915E-4
11396.484375; 1.00673E-4
11402.343750; 1.02706E-4
11408.203125; 1.03226E-4
11414.062500; 9.88667E-5
11419.921875; 1.02739E-4
11425.781250; 1.08821E-4
11431.640625; 1.09064E-4
11437.500000; 9.69889E-5
11443.359375; 9.64819E-5
11449.218750; 1.06799E-4
11455.078125; 1.04121E-4
11460.937500; 9.20441E-5
11466.796875; 9.12681E-5
11472.656250; 1.00830E-4
11478.515625; 1.09418E-4
11484.375000; 1.06103E-4
11490.234375; 1.00304E-4
11496.093750; 1.06567E-4
11501.953125; 1.01533E-4
11507.812500; 9.49038E-5
11513.671875; 9.94897E-5
11519.531250; 9.77365E-5
11525.390625; 9.70081E-5
11531.250000; 9.64877E-5
11537.109375; 1.05377E-4
11542.968750; 1.09310E-4
11548.828125; 1.09920E-4
11554.687500; 1.05441E-4
11560.546875; 1.02606E-4
11566.406250; 1.04016E-4
11572.265625; 1.04838E-4
11578.125000; 1.02583E-4
11583.984375; 9.79825E-5
11589.843750; 9.44199E-5
11595.703125; 9.90127E-5
11601.562500; 9.28523E-5
11607.421875; 8.95533E-5
11613.281250; 9.55018E-5
11619.140625; 9.85349E-5
11625.000000; 1.00351E-4
11630.859375; 1.05108E-4
11636.718750; 9.97864E-5
11642.578125; 1.03167E-4
11648.437500; 9.61072E-5
11654.296875; 9.35571E-5
11660.156250; 1.00871E-4
11666.015625; 9.84258E-5
11671.875000; 9.54572E-5
11677.734375; 1.07588E-4
11683.593750; 1.09008E-4
11689.453125; 1.16739E-4
11695.312500; 1.15562E-4
11701.171875; 1.17987E-4
11707.031250; 1.10470E-4
11712.890625; 1.01467E-4
11718.750000; 9.25746E-5
11724.609375; 1.10748E-4
11730.468750; 1.20173E-4
11736.328125; 1.11835E-4
11742.187500; 1.12404E-4
11748.046875; 1.05040E-4
11753.906250; 9.58521E-5
11759.765625; 9.68283E-5
11765.625000; 1.09517E-4
11771.484375; 1.06907E-4
11777.343750; 9.74855E-5
11783.203125; 9.36185E-5
11789.062500; 9.81095E-5
11794.921875; 9.97835E-5
11800.781250; 9.55185E-5
11806.640625; 9.41272E-5
11812.500000; 8.57257E-5
11818.359375; 9.54561E-5
11824.218750; 9.65395E-5
11830.078125; 9.89347E-5
11835.937500; 1.01980E-4
11841.796875; 1.01847E-4
11847.656250; 1.07999E-4
11853.515625; 1.05257E-4
11859.375000; 9.80724E-5
11865.234375; 1.01401E-4
11871.093750; 1.04089E-4
11876.953125; 1.08079E-4
11882.812500; 9.88181E-5
11888.671875; 1.04027E-4
11894.531250; 1.01793E-4
11900.390625; 1.04773E-4
11906.250000; 1.09756E-4
11912.109375; 9.98310E-5
11917.968750; 9.25440E-5
11923.828125; 9.32264E-5
11929.687500; 9.65132E-5
11935.546875; 1.05351E-4
11941.406250; 1.07821E-4
11947.265625; 1.08445E-4
11953.125000; 1.06056E-4
11958.984375; 1.08617E-4
11964.843750; 9.62374E-5
11970.703125; 9.47801E-5
11976.562500; 1.03411E-4
11982.421875; 1.03435E-4
11988.281250; 1.02127E-4
11994.140625; 1.04608E-4
12000.000000; 1.24006E-4
12005.859375; 1.02068E-4
12011.718750; 9.94658E-5
12017.578125; 9.95600E-5
12023.437500; 9.45519E-5
12029.296875; 9.88123E-5
12035.156250; 1.12335E-4
12041.015625; 1.05834E-4
12046.875000; 9.55686E-5
12052.734375; 9.63618E-5
12058.593750; 9.64037E-5
12064.453125; 9.36669E-5
12070.312500; 1.01899E-4
12076.171875; 1.03167E-4
12082.031250; 9.29806E-5
12087.890625; 1.00364E-4
12093.750000; 9.50387E-5
12099.609375; 9.86314E-5
12105.468750; 9.73672E-5
12111.328125; 9.68452E-5
12117.187500; 9.97947E-5
12123.046875; 9.25440E-5
12128.906250; 1.02349E-4
12134.765625; 1.02012E-4
12140.625000; 1.04884E-4
12146.484375; 1.01062E-4
12152.343750; 1.00731E-4
12158.203125; 1.02612E-4
12164.062500; 1.10986E-4
12169.921875; 1.14515E-4
12175.781250; 1.05563E-4
12181.640625; 9.90446E-5
12187.500000; 1.03809E-4
12193.359375; 1.01786E-4
12199.218750; 1.08716E-4
12205.078125; 9.77444E-5
12210.937500; 1.04468E-4
12216.796875; 1.02752E-4
12222.656250; 9.98557E-5
12228.515625; 9.89729E-5
12234.375000; 9.06178E-5
12240.234375; 9.97652E-5
12246.093750; 9.91476E-5
12251.953125; 9.12785E-5
12257.812500; 9.36655E-5
12263.671875; 1.09057E-4
12269.531250; 1.06636E-4
12275.390625; 1.08060E-4
12281.250000; 1.10287E-4
12287.109375; 1.10748E-4
12292.968750; 1.04895E-4
12298.828125; 9.30919E-5
12304.687500; 9.93860E-5
12310.546875; 1.02453E-4
12316.406250; 1.10860E-4
12322.265625; 1.20229E-4
12328.125000; 1.09619E-4
12333.984375; 1.07396E-4
12339.843750; 1.08874E-4
12345.703125; 1.04678E-4
12351.562500; 1.07435E-4
12357.421875; 9.85941E-5
12363.281250; 9.38121E-5
12369.140625; 1.00936E-4
12375.000000; 1.08325E-4
12380.859375; 1.00602E-4
12386.718750; 9.64854E-5
12392.578125; 1.02766E-4
12398.437500; 9.99093E-5
12404.296875; 1.02736E-4
12410.156250; 9.28047E-5
12416.015625; 9.79716E-5
12421.875000; 9.50803E-5
12427.734375; 1.00985E-4
12433.593750; 1.05674E-4
12439.453125; 1.09813E-4
12445.312500; 1.04754E-4
12451.171875; 9.95623E-5
12457.031250; 1.03673E-4
12462.890625; 1.06594E-4
12468.750000; 1.00417E-4
12474.609375; 8.87539E-5
12480.468750; 9.49852E-5
12486.328125; 1.13830E-4
12492.187500; 1.07251E-4
12498.046875; 1.02163E-4
12503.906250; 1.02102E-4
12509.765625; 9.83030E-5
12515.625000; 9.97530E-5
12521.484375; 9.89698E-5
12527.343750; 9.60975E-5
12533.203125; 9.66311E-5
12539.062500; 1.00047E-4
12544.921875; 1.00205E-4
12550.781250; 1.13976E-4
12556.640625; 1.14424E-4
12562.500000; 1.02734E-4
12568.359375; 9.04627E-5
12574.218750; 9.13268E-5
12580.078125; 1.01176E-4
12585.937500; 9.42456E-5
12591.796875; 1.05237E-4
12597.656250; 9.70795E-5
12603.515625; 1.03794E-4
12609.375000; 1.03642E-4
12615.234375; 9.74139E-5
12621.093750; 9.11293E-5
12626.953125; 1.00252E-4
12632.812500; 1.03893E-4
12638.671875; 1.02465E-4
12644.531250; 1.12625E-4
12650.390625; 1.05687E-4
12656.250000; 1.04457E-4
12662.109375; 1.07803E-4
12667.968750; 1.02874E-4
12673.828125; 1.03164E-4
12679.687500; 1.00505E-4
12685.546875; 9.22504E-5
12691.406250; 9.42608E-5
12697.265625; 1.00726E-4
12703.125000; 1.03721E-4
12708.984375; 9.88910E-5
12714.843750; 1.05575E-4
12720.703125; 1.05837E-4
12726.562500; 1.04258E-4
12732.421875; 9.95702E-5
12738.281250; 1.05600E-4
12744.140625; 9.68019E-5
12750.000000; 8.97129E-5
12755.859375; 8.88050E-5
12761.718750; 9.86638E-5
12767.578125; 1.07485E-4
12773.437500; 1.06742E-4
12779.296875; 9.88374E-5
12785.156250; 9.61114E-5
12791.015625; 9.25097E-5
12796.875000; 1.04873E-4
12802.734375; 1.12068E-4
12808.593750; 1.01393E-4
12814.453125; 9.67723E-5
12820.312500; 9.50018E-5
12826.171875; 9.34255E-5
12832.031250; 9.39913E-5
12837.890625; 9.96185E-5
12843.750000; 1.01189E-4
12849.609375; 1.00985E-4
12855.468750; 9.39095E-5
12861.328125; 9.41241E-5
12867.187500; 1.04226E-4
12873.046875; 1.07541E-4
12878.906250; 9.49508E-5
12884.765625; 9.19996E-5
12890.625000; 9.81510E-5
12896.484375; 9.65312E-5
12902.343750; 1.04643E-4
12908.203125; 1.04898E-4
12914.062500; 1.01524E-4
12919.921875; 9.63452E-5
12925.781250; 9.76284E-5
12931.640625; 1.00828E-4
12937.500000; 1.05395E-4
12943.359375; 1.08045E-4
12949.218750; 1.06694E-4
12955.078125; 9.57459E-5
12960.937500; 9.45581E-5
12966.796875; 9.32630E-5
12972.656250; 9.34002E-5
12978.515625; 1.01665E-4
12984.375000; 1.13320E-4
12990.234375; 1.05998E-4
12996.093750; 1.07150E-4
13001.953125; 1.04876E-4
13007.812500; 1.07692E-4
13013.671875; 1.06751E-4
13019.531250; 1.05588E-4
13025.390625; 1.03558E-4
13031.250000; 9.24248E-5
13037.109375; 9.31194E-5
13042.968750; 1.05618E-4
13048.828125; 1.02685E-4
13054.687500; 8.87562E-5
13060.546875; 8.87291E-5
13066.406250; 9.51421E-5
13072.265625; 1.03745E-4
13078.125000; 1.05277E-4
13083.984375; 1.03715E-4
13089.843750; 9.59679E-5
13095.703125; 9.71648E-5
13101.562500; 9.78935E-5
13107.421875; 1.09714E-4
13113.281250; 1.12412E-4
13119.140625; 1.08862E-4
13125.000000; 1.10775E-4
13130.859375; 1.05281E-4
13136.718750; 1.01709E-4
13142.578125; 9.85880E-5
13148.437500; 9.89849E-5
13154.296875; 1.09493E-4
13160.156250; 1.05358E-4
13166.015625; 1.06756E-4
13171.875000; 1.05226E-4
13177.734375; 1.00042E-4
13183.593750; 1.01676E-4
13189.453125; 9.40234E-5
13195.312500; 9.24511E-5
13201.171875; 9.66928E-5
13207.031250; 1.04128E-4
13212.890625; 9.97326E-5
13218.750000; 9.64591E-5
13224.609375; 9.22254E-5
13230.468750; 9.60779E-5
13236.328125; 9.53729E-5
13242.187500; 9.51088E-5
13248.046875; 1.00446E-4
13253.906250; 1.00025E-4
13259.765625; 9.72637E-5
13265.625000; 8.85736E-5
13271.484375; 9.69684E-5
13277.343750; 1.02568E-4
13283.203125; 1.04149E-4
13289.062500; 1.05129E-4
13294.921875; 9.39245E-5
13300.781250; 9.61875E-5
13306.640625; 9.22351E-5
13312.500000; 1.04374E-4
13318.359375; 1.13360E-4
13324.218750; 1.02718E-4
13330.078125; 1.03921E-4
13335.937500; 1.04815E-4
13341.796875; 1.12487E-4
13347.656250; 1.10459E-4
13353.515625; 1.11187E-4
13359.375000; 1.06145E-4
13365.234375; 9.78036E-5
13371.093750; 1.02691E-4
13376.953125; 1.02763E-4
13382.812500; 1.03477E-4
13388.671875; 9.75732E-5
13394.531250; 9.86445E-5
13400.390625; 9.88361E-5
13406.250000; 9.49150E-5
13412.109375; 9.45265E-5
13417.968750; 1.05377E-4
13423.828125; 1.10743E-4
13429.687500; 9.87521E-5
13435.546875; 9.17718E-5
13441.406250; 1.03690E-4
13447.265625; 1.04854E-4
13453.125000; 1.01623E-4
13458.984375; 1.03880E-4
13464.843750; 1.09371E-4
13470.703125; 1.08705E-4
13476.562500; 1.02924E-4
13482.421875; 1.06157E-4
13488.281250; 1.03310E-4
13494.140625; 1.00600E-4
13500.000000; 9.54511E-5
13505.859375; 9.86394E-5
13511.718750; 9.98897E-5
13517.578125; 9.04883E-5
13523.437500; 8.89119E-5
13529.296875; 1.01395E-4
13535.156250; 1.07437E-4
13541.015625; 1.02513E-4
13546.875000; 9.82572E-5
13552.734375; 9.93678E-5
13558.593750; 1.05089E-4
13564.453125; 1.06625E-4
13570.312500; 1.00053E-4
13576.171875; 1.02867E-4
13582.031250; 1.13261E-4
13587.890625; 1.06994E-4
13593.750000; 1.04332E-4
13599.609375; 9.38675E-5
13605.468750; 9.64042E-5
13611.328125; 1.02546E-4
13617.187500; 1.00488E-4
13623.046875; 1.01551E-4
13628.906250; 1.09345E-4
13634.765625; 1.09998E-4
13640.625000; 1.02072E-4
13646.484375; 9.96026E-5
13652.343750; 1.03596E-4
13658.203125; 9.36612E-5
13664.062500; 9.53408E-5
13669.921875; 1.03293E-4
13675.781250; 1.06261E-4
13681.640625; 1.07186E-4
13687.500000; 1.06544E-4
13693.359375; 1.03829E-4
13699.218750; 9.30239E-5
13705.078125; 1.04503E-4
13710.937500; 1.11228E-4
13716.796875; 1.08554E-4
13722.656250; 1.04739E-4
13728.515625; 9.49710E-5
13734.375000; 1.10230E-4
13740.234375; 1.12830E-4
13746.093750; 1.03138E-4
13751.953125; 1.00387E-4
13757.812500; 9.98062E-5
13763.671875; 1.13945E-4
13769.531250; 1.18578E-4
13775.390625; 1.10174E-4
13781.250000; 1.10693E-4
13787.109375; 9.49861E-5
13792.968750; 9.93526E-5
13798.828125; 1.07954E-4
13804.687500; 1.00023E-4
13810.546875; 9.52589E-5
13816.406250; 9.58312E-5
13822.265625; 1.00004E-4
13828.125000; 1.03938E-4
13833.984375; 1.05541E-4
13839.843750; 9.60084E-5
13845.703125; 9.61810E-5
13851.562500; 1.03302E-4
13857.421875; 1.03158E-4
13863.281250; 1.03154E-4
13869.140625; 1.02115E-4
13875.000000; 1.07331E-4
13880.859375; 1.00226E-4
13886.718750; 1.00061E-4
13892.578125; 1.03310E-4
13898.437500; 1.05625E-4
13904.296875; 9.11924E-5
13910.156250; 1.02306E-4
13916.015625; 1.06181E-4
13921.875000; 1.07717E-4
13927.734375; 1.10427E-4
13933.593750; 1.10140E-4
13939.453125; 1.00269E-4
13945.312500; 1.06154E-4
13951.171875; 1.02549E-4
13957.031250; 9.80739E-5
13962.890625; 9.24025E-5
13968.750000; 9.64320E-5
13974.609375; 9.04133E-5
13980.468750; 9.78599E-5
13986.328125; 1.09188E-4
13992.187500; 9.62087E-5
13998.046875; 1.16695E-4
14003.906250; 1.13862E-4
14009.765625; 9.17618E-5
14015.625000; 9.59019E-5
14021.484375; 1.03034E-4
14027.343750; 1.01057E-4
14033.203125; 9.91782E-5
14039.062500; 9.85235E-5
14044.921875; 9.96139E-5
14050.781250; 1.00645E-4
14056.640625; 1.09837E-4
14062.500000; 9.70743E-5
14068.359375; 9.73985E-5
14074.218750; 9.39881E-5
14080.078125; 1.03364E-4
14085.937500; 1.03534E-4
14091.796875; 1.00066E-4
14097.656250; 1.01031E-4
14103.515625; 9.75397E-5
14109.375000; 9.62913E-5
14115.234375; 9.84245E-5
14121.093750; 1.12116E-4
14126.953125; 1.11411E-4
14132.812500; 1.07671E-4
14138.671875; 1.05173E-4
14144.531250; 9.34608E-5
14150.390625; 9.14753E-5
14156.250000; 9.36210E-5
14162.109375; 9.54056E-5
14167.968750; 9.87334E-5
14173.828125; 1.02308E-4
14179.687500; 1.07648E-4
14185.546875; 1.07904E-4
14191.406250; 1.11646E-4
14197.265625; 1.02651E-4
14203.125000; 9.76234E-5
14208.984375; 9.04458E-5
14214.843750; 9.58871E-5
14220.703125; 1.07771E-4
14226.562500; 1.06012E-4
14232.421875; 1.01418E-4
14238.281250; 1.05212E-4
14244.140625; 1.01020E-4
14250.000000; 1.01950E-4
14255.859375; 1.06700E-4
14261.718750; 1.05503E-4
14267.578125; 9.43326E-5
14273.437500; 9.83955E-5
14279.296875; 1.06402E-4
14285.156250; 1.03301E-4
14291.015625; 9.97074E-5
14296.875000; 9.55188E-5
14302.734375; 9.55253E-5
14308.593750; 9.45707E-5
14314.453125; 1.02075E-4
14320.312500; 1.04791E-4
14326.171875; 1.02108E-4
14332.031250; 1.08275E-4
14337.890625; 1.12053E-4
14343.750000; 1.02017E-4
14349.609375; 1.03019E-4
14355.468750; 1.09228E-4
14361.328125; 9.75806E-5
14367.187500; 9.96361E-5
14373.046875; 1.01462E-4
14378.906250; 1.07930E-4
14384.765625; 1.04790E-4
14390.625000; 9.87667E-5
14396.484375; 1.06340E-4
14402.343750; 9.35885E-5
14408.203125; 8.80279E-5
14414.062500; 9.59744E-5
14419.921875; 9.85599E-5
14425.781250; 9.94978E-5
14431.640625; 9.55781E-5
14437.500000; 9.73255E-5
14443.359375; 9.90320E-5
14449.218750; 1.05333E-4
14455.078125; 1.10844E-4
14460.937500; 1.01046E-4
14466.796875; 9.58078E-5
14472.656250; 1.03786E-4
14478.515625; 1.08615E-4
14484.375000; 1.02357E-4
14490.234375; 1.08274E-4
14496.093750; 1.07043E-4
14501.953125; 1.05809E-4
14507.812500; 9.84980E-5
14513.671875; 9.46184E-5
14519.531250; 1.00598E-4
14525.390625; 9.43163E-5
14531.250000; 9.83196E-5
14537.109375; 1.01344E-4
14542.968750; 1.06815E-4
14548.828125; 9.12051E-5
14554.687500; 9.66611E-5
14560.546875; 1.08168E-4
14566.406250; 1.01563E-4
14572.265625; 1.02846E-4
14578.125000; 1.11521E-4
14583.984375; 1.09861E-4
14589.843750; 9.69582E-5
14595.703125; 9.33823E-5
14601.562500; 9.44908E-5
14607.421875; 8.72860E-5
14613.281250; 8.93457E-5
14619.140625; 9.36257E-5
14625.000000; 9.46336E-5
14630.859375; 8.91736E-5
14636.718750; 9.56184E-5
14642.578125; 1.00364E-4
14648.437500; 9.86891E-5
14654.296875; 1.00027E-4
14660.156250; 9.39377E-5
14666.015625; 1.01637E-4
14671.875000; 1.05213E-4
14677.734375; 9.74359E-5
14683.593750; 1.03019E-4
14689.453125; 1.06825E-4
14695.312500; 1.12089E-4
14701.171875; 1.06429E-4
14707.031250; 9.77566E-5
14712.890625; 1.00806E-4
14718.750000; 1.00428E-4
14724.609375; 9.64094E-5
14730.468750; 1.00472E-4
14736.328125; 1.01615E-4
14742.187500; 9.27038E-5
14748.046875; 1.03555E-4
14753.906250; 1.09062E-4
14759.765625; 1.00286E-4
14765.625000; 9.85620E-5
14771.484375; 9.93048E-5
14777.343750; 9.58862E-5
14783.203125; 9.55332E-5
14789.062500; 9.97303E-5
14794.921875; 1.03366E-4
14800.781250; 1.02444E-4
14806.640625; 9.99238E-5
14812.500000; 1.12415E-4
14818.359375; 1.02962E-4
14824.218750; 9.39665E-5
14830.078125; 1.00174E-4
14835.937500; 1.05232E-4
14841.796875; 9.54995E-5
14847.656250; 1.00183E-4
14853.515625; 1.10287E-4
14859.375000; 1.02696E-4
14865.234375; 9.66826E-5
14871.093750; 9.42932E-5
14876.953125; 1.01087E-4
14882.812500; 9.60832E-5
14888.671875; 1.05355E-4
14894.531250; 1.13903E-4
14900.390625; 1.07300E-4
14906.250000; 9.55775E-5
14912.109375; 1.01453E-4
14917.968750; 1.02728E-4
14923.828125; 1.02858E-4
14929.687500; 1.04230E-4
14935.546875; 9.23478E-5
14941.406250; 8.97321E-5
14947.265625; 9.88516E-5
14953.125000; 1.08476E-4
14958.984375; 1.01078E-4
14964.843750; 1.10877E-4
14970.703125; 1.04924E-4
14976.562500; 1.04310E-4
14982.421875; 1.03625E-4
14988.281250; 1.01168E-4
14994.140625; 9.86706E-5
15000.000000; 1.05630E-4
15005.859375; 1.03734E-4
15011.718750; 9.54232E-5
15017.578125; 9.84371E-5
15023.437500; 1.00904E-4
15029.296875; 1.03672E-4
15035.156250; 1.07318E-4
15041.015625; 1.07130E-4
15046.875000; 9.75234E-5
15052.734375; 9.91687E-5
15058.593750; 1.08924E-4
15064.453125; 1.05711E-4
15070.312500; 9.46669E-5
15076.171875; 9.61885E-5
15082.031250; 9.25113E-5
15087.890625; 9.90952E-5
15093.750000; 9.90769E-5
15099.609375; 9.70974E-5
15105.468750; 1.07519E-4
15111.328125; 1.00591E-4
15117.187500; 1.03798E-4
15123.046875; 1.02857E-4
15128.906250; 1.11130E-4
15134.765625; 1.04029E-4
15140.625000; 9.52723E-5
15146.484375; 8.81225E-5
15152.343750; 9.57167E-5
15158.203125; 9.90672E-5
15164.062500; 9.82156E-5
15169.921875; 9.54252E-5
15175.781250; 9.93641E-5
15181.640625; 1.05417E-4
15187.500000; 1.03176E-4
15193.359375; 1.06514E-4
15199.218750; 1.05061E-4
15205.078125; 1.00844E-4
15210.937500; 9.82084E-5
15216.796875; 9.82722E-5
15222.656250; 9.46726E-5
15228.515625; 9.29019E-5
15234.375000; 9.89087E-5
15240.234375; 1.05746E-4
15246.093750; 9.78602E-5
15251.953125; 9.47756E-5
15257.812500; 1.02923E-4
15263.671875; 9.83842E-5
15269.531250; 8.65490E-5
15275.390625; 9.48749E-5
15281.250000; 1.03736E-4
15287.109375; 9.54140E-5
15292.968750; 1.05953E-4
15298.828125; 1.16111E-4
15304.687500; 1.10296E-4
15310.546875; 9.64379E-5
15316.406250; 9.30615E-5
15322.265625; 8.52613E-5
15328.125000; 8.95377E-5
15333.984375; 9.79155E-5
15339.843750; 1.05334E-4
15345.703125; 1.02704E-4
15351.562500; 9.27293E-5
15357.421875; 8.95850E-5
15363.281250; 9.42934E-5
15369.140625; 1.03576E-4
15375.000000; 9.43322E-5
15380.859375; 1.01015E-4
15386.718750; 1.06353E-4
15392.578125; 1.02310E-4
15398.437500; 1.04743E-4
15404.296875; 9.97457E-5
15410.156250; 9.20234E-5
15416.015625; 9.81451E-5
15421.875000; 9.66283E-5
15427.734375; 9.15124E-5
15433.593750; 9.61920E-5
15439.453125; 9.89308E-5
15445.312500; 9.83851E-5
15451.171875; 9.17402E-5
15457.031250; 8.41298E-5
15462.890625; 8.82052E-5
15468.750000; 9.92969E-5
15474.609375; 9.25780E-5
15480.468750; 9.41607E-5
15486.328125; 9.47783E-5
15492.187500; 9.42214E-5
15498.046875; 9.75600E-5
15503.906250; 9.32978E-5
15509.765625; 9.30760E-5
15515.625000; 8.98129E-5
15521.484375; 8.95410E-5
15527.343750; 9.54456E-5
15533.203125; 1.01578E-4
15539.062500; 1.04746E-4
15544.921875; 1.02833E-4
15550.781250; 9.88291E-5
15556.640625; 9.57367E-5
15562.500000; 1.04480E-4
15568.359375; 1.01811E-4
15574.218750; 1.02832E-4
15580.078125; 1.02952E-4
15585.937500; 1.02356E-4
15591.796875; 9.92690E-5
15597.656250; 1.01713E-4
15603.515625; 1.00985E-4
15609.375000; 1.02557E-4
15615.234375; 1.01321E-4
15621.093750; 9.51606E-5
15626.953125; 9.63029E-5
15632.812500; 9.46317E-5
15638.671875; 9.34310E-5
15644.531250; 1.02487E-4
15650.390625; 1.09718E-4
15656.250000; 1.04022E-4
15662.109375; 1.09349E-4
15667.968750; 1.02515E-4
15673.828125; 9.32731E-5
15679.687500; 1.00487E-4
15685.546875; 1.03683E-4
15691.406250; 9.72584E-5
15697.265625; 9.27973E-5
15703.125000; 9.34666E-5
15708.984375; 9.66854E-5
15714.843750; 1.04342E-4
15720.703125; 1.04734E-4
15726.562500; 1.00132E-4
15732.421875; 9.82653E-5
15738.281250; 1.00427E-4
15744.140625; 1.05143E-4
15750.000000; 1.03135E-4
15755.859375; 1.02234E-4
15761.718750; 9.77731E-5
15767.578125; 1.04466E-4
15773.437500; 9.58980E-5
15779.296875; 9.63658E-5
15785.156250; 1.03253E-4
15791.015625; 9.87024E-5
15796.875000; 1.12719E-4
15802.734375; 1.04174E-4
15808.593750; 9.64589E-5
15814.453125; 9.27062E-5
15820.312500; 9.57731E-5
15826.171875; 1.01495E-4
15832.031250; 1.06761E-4
15837.890625; 1.08338E-4
15843.750000; 9.90663E-5
15849.609375; 9.66608E-5
15855.468750; 9.68718E-5
15861.328125; 9.39006E-5
15867.187500; 9.81465E-5
15873.046875; 1.01812E-4
15878.906250; 9.54918E-5
15884.765625; 9.81694E-5
15890.625000; 9.01983E-5
15896.484375; 9.46851E-5
15902.343750; 9.88677E-5
15908.203125; 1.01755E-4
15914.062500; 9.36358E-5
15919.921875; 9.16934E-5
15925.781250; 9.72870E-5
15931.640625; 1.01817E-4
15937.500000; 9.29306E-5
15943.359375; 8.90486E-5
15949.218750; 1.00820E-4
15955.078125; 9.43539E-5
15960.937500; 9.54959E-5
15966.796875; 9.70592E-5
15972.656250; 1.01745E-4
15978.515625; 1.01127E-4
15984.375000; 9.36440E-5
15990.234375; 1.00281E-4
15996.093750; 1.06635E-4
16001.953125; 1.02303E-4
16007.812500; 9.19159E-5
16013.671875; 9.27985E-5
16019.531250; 1.06950E-4
16025.390625; 1.12473E-4
16031.250000; 1.05266E-4
16037.109375; 8.59155E-5
16042.968750; 9.32746E-5
16048.828125; 1.07839E-4
16054.687500; 1.05661E-4
16060.546875; 1.07162E-4
16066.406250; 1.12553E-4
16072.265625; 9.72840E-5
16078.125000; 9.33933E-5
16083.984375; 1.08158E-4
16089.843750; 1.13042E-4
16095.703125; 9.98822E-5
16101.562500; 9.22927E-5
16107.421875; 9.67650E-5
16113.281250; 1.03347E-4
16119.140625; 9.93905E-5
16125.000000; 1.01242E-4
16130.859375; 9.83672E-5
16136.718750; 9.46370E-5
16142.578125; 9.64696E-5
16148.437500; 9.59381E-5
16154.296875; 1.04992E-4
16160.156250; 1.02730E-4
16166.015625; 9.42783E-5
16171.875000; 9.78209E-5
16177.734375; 9.89364E-5
16183.593750; 9.66220E-5
16189.453125; 9.71410E-5
16195.312500; 9.58703E-5
16201.171875; 9.25597E-5
16207.031250; 9.61935E-5
16212.890625; 8.99791E-5
16218.750000; 9.61428E-5
16224.609375; 8.60277E-5
16230.468750; 9.46586E-5
16236.328125; 1.04421E-4
16242.187500; 9.99434E-5
16248.046875; 9.75892E-5
16253.906250; 1.00192E-4
16259.765625; 9.73572E-5
16265.625000; 1.02213E-4
16271.484375; 1.06348E-4
16277.343750; 9.31516E-5
16283.203125; 9.56553E-5
16289.062500; 9.34246E-5
16294.921875; 9.75894E-5
16300.781250; 1.02972E-4
16306.640625; 1.04119E-4
16312.500000; 1.14072E-4
16318.359375; 1.09596E-4
16324.218750; 9.67123E-5
16330.078125; 9.39789E-5
16335.937500; 8.97105E-5
16341.796875; 8.91794E-5
16347.656250; 8.95003E-5
16353.515625; 9.79411E-5
16359.375000; 9.67304E-5
16365.234375; 8.97646E-5
16371.093750; 9.66121E-5
16376.953125; 9.68520E-5
16382.812500; 9.16907E-5
16388.671875; 9.00035E-5
16394.531250; 9.06006E-5
16400.390625; 1.00518E-4
16406.250000; 1.09852E-4
16412.109375; 1.04684E-4
16417.968750; 9.93624E-5
16423.828125; 8.95111E-5
16429.687500; 9.81963E-5
16435.546875; 1.00869E-4
16441.406250; 9.59655E-5
16447.265625; 1.01509E-4
16453.125000; 9.13257E-5
16458.984375; 9.58092E-5
16464.843750; 1.06095E-4
16470.703125; 1.01573E-4
16476.562500; 1.01970E-4
16482.421875; 8.83334E-5
16488.281250; 8.87794E-5
16494.140625; 9.71392E-5
16500.000000; 8.71244E-5
16505.859375; 1.04749E-4
16511.718750; 1.01338E-4
16517.578125; 9.17034E-5
16523.437500; 8.63585E-5
16529.296875; 8.00648E-5
16535.156250; 8.64309E-5
16541.015625; 9.09972E-5
16546.875000; 9.75428E-5
16552.734375; 1.02365E-4
16558.593750; 1.02397E-4
16564.453125; 9.35507E-5
16570.312500; 1.01071E-4
16576.171875; 1.02735E-4
16582.031250; 9.72575E-5
16587.890625; 1.00070E-4
16593.750000; 1.07380E-4
16599.609375; 1.03081E-4
16605.468750; 1.00228E-4
16611.328125; 1.02323E-4
16617.187500; 1.03440E-4
16623.046875; 1.00201E-4
16628.906250; 1.02338E-4
16634.765625; 8.68245E-5
16640.625000; 8.92674E-5
16646.484375; 9.20718E-5
16652.343750; 9.46788E-5
16658.203125; 9.19157E-5
16664.062500; 1.07010E-4
16669.921875; 9.81332E-5
16675.781250; 9.68297E-5
16681.640625; 9.14019E-5
16687.500000; 8.91397E-5
16693.359375; 9.08617E-5
16699.218750; 9.50811E-5
16705.078125; 9.96980E-5
16710.937500; 1.06200E-4
16716.796875; 9.48936E-5
16722.656250; 1.00635E-4
16728.515625; 9.45292E-5
16734.375000; 1.07986E-4
16740.234375; 1.05190E-4
16746.093750; 1.00940E-4
16751.953125; 9.97088E-5
16757.812500; 9.81328E-5
16763.671875; 9.92306E-5
16769.531250; 1.04745E-4
16775.390625; 1.14266E-4
16781.250000; 9.71999E-5
16787.109375; 9.49205E-5
16792.968750; 9.38307E-5
16798.828125; 1.00185E-4
16804.687500; 1.02164E-4
16810.546875; 9.14725E-5
16816.406250; 1.04814E-4
16822.265625; 1.08188E-4
16828.125000; 1.02330E-4
16833.984375; 9.96944E-5
16839.843750; 9.61017E-5
16845.703125; 9.76314E-5
16851.562500; 9.98410E-5
16857.421875; 9.22486E-5
16863.281250; 9.79823E-5
16869.140625; 1.04870E-4
16875.000000; 9.66764E-5
16880.859375; 9.30922E-5
16886.718750; 1.02949E-4
16892.578125; 9.99844E-5
16898.437500; 8.94958E-5
16904.296875; 9.01800E-5
16910.156250; 1.01172E-4
16916.015625; 1.01051E-4
16921.875000; 1.06039E-4
16927.734375; 1.03028E-4
16933.593750; 1.02961E-4
16939.453125; 1.05319E-4
16945.312500; 1.08478E-4
16951.171875; 1.02268E-4
16957.031250; 1.07037E-4
16962.890625; 9.24641E-5
16968.750000; 9.42475E-5
16974.609375; 1.11548E-4
16980.468750; 1.06749E-4
16986.328125; 1.01438E-4
16992.187500; 9.94737E-5
16998.046875; 1.15336E-4
17003.906250; 1.00282E-4
17009.765625; 9.79792E-5
17015.625000; 1.01512E-4
17021.484375; 1.07276E-4
17027.343750; 9.83871E-5
17033.203125; 9.83646E-5
17039.062500; 1.08019E-4
17044.921875; 1.00666E-4
17050.781250; 9.42865E-5
17056.640625; 8.78946E-5
17062.500000; 8.49777E-5
17068.359375; 9.59219E-5
17074.218750; 1.03999E-4
17080.078125; 9.03832E-5
17085.937500; 8.84138E-5
17091.796875; 8.81584E-5
17097.656250; 9.82495E-5
17103.515625; 1.03730E-4
17109.375000; 1.00046E-4
17115.234375; 1.01730E-4
17121.093750; 1.04950E-4
17126.953125; 1.06709E-4
17132.812500; 9.32271E-5
17138.671875; 9.26482E-5
17144.531250; 8.88639E-5
17150.390625; 1.02810E-4
17156.250000; 9.46214E-5
17162.109375; 8.38192E-5
17167.968750; 8.86820E-5
17173.828125; 1.02807E-4
17179.687500; 1.06220E-4
17185.546875; 1.09151E-4
17191.406250; 1.00048E-4
17197.265625; 1.01566E-4
17203.125000; 1.03197E-4
17208.984375; 1.04455E-4
17214.843750; 1.06943E-4
17220.703125; 1.05730E-4
17226.562500; 1.01288E-4
17232.421875; 9.02332E-5
17238.281250; 9.42476E-5
17244.140625; 9.82204E-5
17250.000000; 1.00213E-4
17255.859375; 8.89335E-5
17261.718750; 9.75689E-5
17267.578125; 9.92951E-5
17273.437500; 9.79454E-5
17279.296875; 8.76841E-5
17285.156250; 9.20149E-5
17291.015625; 8.99007E-5
17296.875000; 1.00359E-4
17302.734375; 1.10049E-4
17308.593750; 1.05365E-4
17314.453125; 9.27518E-5
17320.312500; 9.79179E-5
17326.171875; 9.45724E-5
17332.031250; 1.00618E-4
17337.890625; 1.07355E-4
17343.750000; 1.00636E-4
17349.609375; 9.88213E-5
17355.468750; 9.58446E-5
17361.328125; 1.00021E-4
17367.187500; 1.12368E-4
17373.046875; 9.19719E-5
17378.906250; 9.28029E-5
17384.765625; 8.90974E-5
17390.625000; 9.54237E-5
17396.484375; 9.37337E-5
17402.343750; 9.23144E-5
17408.203125; 9.78990E-5
17414.062500; 9.95024E-5
17419.921875; 1.07522E-4
17425.781250; 1.05651E-4
17431.640625; 1.07838E-4
17437.500000; 1.00444E-4
17443.359375; 9.21190E-5
17449.218750; 1.05927E-4
17455.078125; 1.02445E-4
17460.937500; 1.00742E-4
17466.796875; 9.88078E-5
17472.656250; 9.52949E-5
17478.515625; 1.04749E-4
17484.375000; 1.00447E-4
17490.234375; 9.22592E-5
17496.093750; 8.87735E-5
17501.953125; 9.29571E-5
17507.812500; 9.73012E-5
17513.671875; 9.28373E-5
17519.531250; 9.21742E-5
17525.390625; 9.97378E-5
17531.250000; 9.94171E-5
17537.109375; 1.12052E-4
17542.968750; 1.06552E-4
17548.828125; 1.03302E-4
17554.687500; 1.00549E-4
17560.546875; 1.03250E-4
17566.406250; 1.04055E-4
17572.265625; 1.00640E-4
17578.125000; 9.10882E-5
17583.984375; 8.89212E-5
17589.843750; 9.87753E-5
17595.703125; 1.01778E-4
17601.562500; 9.68492E-5
17607.421875; 8.98350E-5
17613.281250; 9.64884E-5
17619.140625; 1.06007E-4
17625.000000; 9.95220E-5
17630.859375; 8.70166E-5
17636.718750; 8.85828E-5
17642.578125; 9.90452E-5
17648.437500; 9.70693E-5
17654.296875; 1.00964E-4
17660.156250; 1.00349E-4
17666.015625; 1.02636E-4
17671.875000; 1.03775E-4
17677.734375; 9.73085E-5
17683.593750; 1.03344E-4
17689.453125; 1.05795E-4
17695.312500; 9.20893E-5
17701.171875; 9.25281E-5
17707.031250; 9.81122E-5
17712.890625; 9.89616E-5
17718.750000; 1.11410E-4
17724.609375; 1.05304E-4
17730.468750; 9.76981E-5
17736.328125; 1.00338E-4
17742.187500; 9.70727E-5
17748.046875; 9.62834E-5
17753.906250; 9.90534E-5
17759.765625; 1.01597E-4
17765.625000; 9.76945E-5
17771.484375; 9.06948E-5
17777.343750; 1.03119E-4
17783.203125; 1.11419E-4
17789.062500; 1.09806E-4
17794.921875; 9.69584E-5
17800.781250; 9.28741E-5
17806.640625; 9.69396E-5
17812.500000; 1.04357E-4
17818.359375; 9.55026E-5
17824.218750; 9.24774E-5
17830.078125; 9.48843E-5
17835.937500; 9.24260E-5
17841.796875; 9.96871E-5
17847.656250; 9.71599E-5
17853.515625; 8.98252E-5
17859.375000; 8.84868E-5
17865.234375; 9.01848E-5
17871.093750; 9.33023E-5
17876.953125; 9.82981E-5
17882.812500; 8.80667E-5
17888.671875; 9.82841E-5
17894.531250; 1.03060E-4
17900.390625; 9.35808E-5
17906.250000; 9.75736E-5
17912.109375; 8.84331E-5
17917.968750; 7.87561E-5
17923.828125; 8.67546E-5
17929.687500; 1.02893E-4
17935.546875; 1.03318E-4
17941.406250; 8.89854E-5
17947.265625; 9.83114E-5
17953.125000; 1.08554E-4
17958.984375; 1.13504E-4
17964.843750; 1.05268E-4
17970.703125; 1.06843E-4
17976.562500; 1.13561E-4
17982.421875; 9.82423E-5
17988.281250; 9.63584E-5
17994.140625; 1.08824E-4
18000.000000; 1.02263E-4
18005.859375; 1.03860E-4
18011.718750; 1.02278E-4
18017.578125; 8.85803E-5
18023.437500; 8.70734E-5
18029.296875; 9.31183E-5
18035.156250; 9.30688E-5
18041.015625; 1.01002E-4
18046.875000; 1.03659E-4
18052.734375; 8.89324E-5
18058.593750; 8.64955E-5
18064.453125; 9.45073E-5
18070.312500; 1.04911E-4
18076.171875; 9.46301E-5
18082.031250; 9.56189E-5
18087.890625; 9.80193E-5
18093.750000; 9.65345E-5
18099.609375; 1.00461E-4
18105.468750; 9.88110E-5
18111.328125; 1.05733E-4
18117.187500; 1.05677E-4
18123.046875; 9.83088E-5
18128.906250; 9.24349E-5
18134.765625; 9.10795E-5
18140.625000; 9.63714E-5
18146.484375; 9.95504E-5
18152.343750; 9.70156E-5
18158.203125; 9.93469E-5
18164.062500; 1.05780E-4
18169.921875; 1.03632E-4
18175.781250; 9.33283E-5
18181.640625; 9.37058E-5
18187.500000; 9.49092E-5
18193.359375; 8.95336E-5
18199.218750; 9.03593E-5
18205.078125; 9.86319E-5
18210.937500; 9.98804E-5
18216.796875; 9.63722E-5
18222.656250; 9.49173E-5
18228.515625; 9.69348E-5
18234.375000; 9.52170E-5
18240.234375; 1.04110E-4
18246.093750; 1.01719E-4
18251.953125; 1.05630E-4
18257.812500; 9.73020E-5
18263.671875; 9.70959E-5
18269.531250; 9.70352E-5
18275.390625; 1.01844E-4
18281.250000; 9.70876E-5
18287.109375; 9.44966E-5
18292.968750; 9.76996E-5
18298.828125; 9.81310E-5
18304.687500; 9.78428E-5
18310.546875; 1.10623E-4
18316.406250; 1.04759E-4
18322.265625; 1.02155E-4
18328.125000; 1.11865E-4
18333.984375; 1.06685E-4
18339.843750; 1.13393E-4
18345.703125; 1.09195E-4
18351.562500; 9.81015E-5
18357.421875; 1.00520E-4
18363.281250; 9.44979E-5
18369.140625; 8.83309E-5
18375.000000; 8.93162E-5
18380.859375; 1.01950E-4
18386.718750; 9.66212E-5
18392.578125; 8.79976E-5
18398.437500; 8.77187E-5
18404.296875; 9.69776E-5
18410.156250; 1.02281E-4
18416.015625; 9.73608E-5
18421.875000; 8.65582E-5
18427.734375; 1.03445E-4
18433.593750; 1.12631E-4
18439.453125; 1.03571E-4
18445.312500; 1.08962E-4
18451.171875; 1.06703E-4
18457.031250; 9.26750E-5
18462.890625; 8.39505E-5
18468.750000; 1.00036E-4
18474.609375; 1.08900E-4
18480.468750; 1.02010E-4
18486.328125; 9.82834E-5
18492.187500; 9.75827E-5
18498.046875; 9.05175E-5
18503.906250; 9.14439E-5
18509.765625; 9.74670E-5
18515.625000; 9.24178E-5
18521.484375; 9.50833E-5
18527.343750; 9.85534E-5
18533.203125; 8.99057E-5
18539.062500; 9.05626E-5
18544.921875; 8.73130E-5
18550.781250; 8.63512E-5
18556.640625; 9.98669E-5
18562.500000; 9.57991E-5
18568.359375; 8.87535E-5
18574.218750; 9.38211E-5
18580.078125; 9.69825E-5
18585.937500; 9.91439E-5
18591.796875; 1.05731E-4
18597.656250; 1.02705E-4
18603.515625; 1.00796E-4
18609.375000; 8.67043E-5
18615.234375; 9.42024E-5
18621.093750; 1.00060E-4
18626.953125; 9.80932E-5
18632.812500; 8.54450E-5
18638.671875; 8.85849E-5
18644.531250; 9.22601E-5
18650.390625; 9.41921E-5
18656.250000; 8.98931E-5
18662.109375; 1.01215E-4
18667.968750; 9.87093E-5
18673.828125; 1.02005E-4
18679.687500; 1.04212E-4
18685.546875; 1.10508E-4
18691.406250; 9.29388E-5
18697.265625; 9.21273E-5
18703.125000; 9.93315E-5
18708.984375; 1.01589E-4
18714.843750; 9.33400E-5
18720.703125; 8.55968E-5
18726.562500; 9.95361E-5
18732.421875; 1.02940E-4
18738.281250; 9.53303E-5
18744.140625; 9.42368E-5
18750.000000; 1.03953E-4
18755.859375; 9.84571E-5
18761.718750; 9.44697E-5
18767.578125; 9.60174E-5
18773.437500; 9.85272E-5
18779.296875; 9.86573E-5
18785.156250; 9.99477E-5
18791.015625; 8.54411E-5
18796.875000; 9.02241E-5
18802.734375; 1.06701E-4
18808.593750; 9.85894E-5
18814.453125; 1.06771E-4
18820.312500; 9.83806E-5
18826.171875; 1.05567E-4
18832.031250; 1.00873E-4
18837.890625; 9.70533E-5
18843.750000; 9.75301E-5
18849.609375; 8.88749E-5
18855.468750; 9.02033E-5
18861.328125; 9.64516E-5
18867.187500; 9.99664E-5
18873.046875; 9.21087E-5
18878.906250; 9.23035E-5
18884.765625; 9.13817E-5
18890.625000; 1.00895E-4
18896.484375; 1.02060E-4
18902.343750; 9.82745E-5
18908.203125; 1.04592E-4
18914.062500; 1.04215E-4
18919.921875; 9.18000E-5
18925.781250; 1.02761E-4
18931.640625; 1.11825E-4
18937.500000; 1.02202E-4
18943.359375; 9.75809E-5
18949.218750; 8.95496E-5
18955.078125; 9.13207E-5
18960.937500; 1.04207E-4
18966.796875; 1.14096E-4
18972.656250; 9.88929E-5
18978.515625; 9.70911E-5
18984.375000; 9.75737E-5
18990.234375; 9.29719E-5
18996.093750; 1.02318E-4
19001.953125; 1.07920E-4
19007.812500; 9.71085E-5
19013.671875; 9.92071E-5
19019.531250; 9.52721E-5
19025.390625; 8.73717E-5
19031.250000; 9.73253E-5
19037.109375; 1.03780E-4
19042.968750; 9.55887E-5
19048.828125; 9.29304E-5
19054.687500; 8.63674E-5
19060.546875; 9.56903E-5
19066.406250; 9.26525E-5
19072.265625; 8.38698E-5
19078.125000; 8.89512E-5
19083.984375; 9.54690E-5
19089.843750; 9.94438E-5
19095.703125; 1.03451E-4
19101.562500; 1.00218E-4
19107.421875; 9.45107E-5
19113.281250; 1.00718E-4
19119.140625; 9.53974E-5
19125.000000; 9.46932E-5
19130.859375; 8.25743E-5
19136.718750; 9.26980E-5
19142.578125; 1.03579E-4
19148.437500; 9.65932E-5
19154.296875; 9.81217E-5
19160.156250; 1.01037E-4
19166.015625; 9.57819E-5
19171.875000; 1.01129E-4
19177.734375; 9.66082E-5
19183.593750; 9.36975E-5
19189.453125; 9.97716E-5
19195.312500; 9.36173E-5
19201.171875; 9.12576E-5
19207.031250; 9.94808E-5
19212.890625; 9.34220E-5
19218.750000; 1.01494E-4
19224.609375; 9.36781E-5
19230.468750; 8.62652E-5
19236.328125; 8.12648E-5
19242.187500; 8.85071E-5
19248.046875; 1.00520E-4
19253.906250; 1.00713E-4
19259.765625; 9.84522E-5
19265.625000; 1.08048E-4
19271.484375; 1.03241E-4
19277.343750; 9.48528E-5
19283.203125; 9.09482E-5
19289.062500; 9.01342E-5
19294.921875; 8.92487E-5
19300.781250; 9.58311E-5
19306.640625; 1.07696E-4
19312.500000; 1.05031E-4
19318.359375; 1.03110E-4
19324.218750; 9.80587E-5
19330.078125; 1.03904E-4
19335.937500; 9.72028E-5
19341.796875; 9.34529E-5
19347.656250; 9.35181E-5
19353.515625; 9.35441E-5
19359.375000; 9.53596E-5
19365.234375; 9.13208E-5
19371.093750; 8.80620E-5
19376.953125; 1.02120E-4
19382.812500; 9.98895E-5
19388.671875; 1.04254E-4
19394.531250; 1.05114E-4
19400.390625; 1.04097E-4
19406.250000; 1.06239E-4
19412.109375; 9.52529E-5
19417.968750; 8.75043E-5
19423.828125; 9.22772E-5
19429.687500; 8.99913E-5
19435.546875; 8.59378E-5
19441.406250; 9.46015E-5
19447.265625; 1.00914E-4
19453.125000; 1.01469E-4
19458.984375; 1.01251E-4
19464.843750; 1.03836E-4
19470.703125; 9.28442E-5
19476.562500; 9.31082E-5
19482.421875; 8.97758E-5
19488.281250; 8.86801E-5
19494.140625; 9.13349E-5
19500.000000; 9.21922E-5
19505.859375; 8.95355E-5
19511.718750; 9.78174E-5
19517.578125; 9.24478E-5
19523.437500; 9.65643E-5
19529.296875; 1.02869E-4
19535.156250; 1.04552E-4
19541.015625; 9.32497E-5
19546.875000; 9.23318E-5
19552.734375; 9.00621E-5
19558.593750; 9.60728E-5
19564.453125; 1.00253E-4
19570.312500; 1.04488E-4
19576.171875; 1.05108E-4
19582.031250; 1.05679E-4
19587.890625; 1.06162E-4
19593.750000; 9.40623E-5
19599.609375; 9.43522E-5
19605.468750; 1.02809E-4
19611.328125; 9.73758E-5
19617.187500; 9.48080E-5
19623.046875; 1.07185E-4
19628.906250; 9.80384E-5
19634.765625; 8.68502E-5
19640.625000; 8.16866E-5
19646.484375; 8.76308E-5
19652.343750; 9.34436E-5
19658.203125; 1.01230E-4
19664.062500; 1.14345E-4
19669.921875; 1.10732E-4
19675.781250; 9.60417E-5
19681.640625; 8.37987E-5
19687.500000; 8.86756E-5
19693.359375; 1.03722E-4
19699.218750; 1.02254E-4
19705.078125; 9.54409E-5
19710.937500; 9.58530E-5
19716.796875; 1.05508E-4
19722.656250; 1.01303E-4
19728.515625; 8.94069E-5
19734.375000; 8.60647E-5
19740.234375; 9.17046E-5
19746.093750; 1.04020E-4
19751.953125; 1.01152E-4
19757.812500; 9.30168E-5
19763.671875; 8.83129E-5
19769.531250; 8.95664E-5
19775.390625; 1.01806E-4
19781.250000; 9.91360E-5
19787.109375; 9.91112E-5
19792.968750; 1.02133E-4
19798.828125; 1.04395E-4
19804.687500; 1.04198E-4
19810.546875; 1.00612E-4
19816.406250; 1.00049E-4
19822.265625; 9.60579E-5
19828.125000; 9.54259E-5
19833.984375; 9.29424E-5
19839.843750; 1.04326E-4
19845.703125; 9.56756E-5
19851.562500; 8.54863E-5
19857.421875; 8.96119E-5
19863.281250; 9.62906E-5
19869.140625; 1.04117E-4
19875.000000; 9.70042E-5
19880.859375; 9.81194E-5
19886.718750; 9.71254E-5
19892.578125; 9.27659E-5
19898.437500; 9.19130E-5
19904.296875; 9.39808E-5
19910.156250; 9.80062E-5
19916.015625; 9.80605E-5
19921.875000; 8.63856E-5
19927.734375; 8.02060E-5
19933.593750; 9.01948E-5
19939.453125; 9.20070E-5
19945.312500; 9.78918E-5
19951.171875; 1.02472E-4
19957.031250; 9.69677E-5
19962.890625; 9.25299E-5
19968.750000; 9.83266E-5
19974.609375; 9.99898E-5
19980.468750; 9.81275E-5
19986.328125; 9.37701E-5
19992.187500; 9.48953E-5
19998.046875; 9.26556E-5
20003.906250; 1.09492E-4
20009.765625; 1.04980E-4
20015.625000; 9.80199E-5
20021.484375; 9.89142E-5
20027.343750; 1.00189E-4
20033.203125; 9.51788E-5
20039.062500; 9.54946E-5
20044.921875; 1.00919E-4
20050.781250; 9.96463E-5
20056.640625; 1.04576E-4
20062.500000; 1.04405E-4
20068.359375; 9.07830E-5
20074.218750; 8.09526E-5
20080.078125; 8.17008E-5
20085.937500; 1.04562E-4
20091.796875; 1.15647E-4
20097.656250; 1.02233E-4
20103.515625; 9.61333E-5
20109.375000; 9.58030E-5
20115.234375; 1.00078E-4
20121.093750; 1.05556E-4
20126.953125; 1.09529E-4
20132.812500; 9.59010E-5
20138.671875; 9.72147E-5
20144.531250; 9.71107E-5
20150.390625; 9.98068E-5
20156.250000; 9.41334E-5
20162.109375; 9.48675E-5
20167.968750; 9.80014E-5
20173.828125; 9.86788E-5
20179.687500; 1.01062E-4
20185.546875; 1.00059E-4
20191.406250; 9.16289E-5
20197.265625; 9.29294E-5
20203.125000; 9.94644E-5
20208.984375; 9.86262E-5
20214.843750; 9.50735E-5
20220.703125; 9.50190E-5
20226.562500; 9.42123E-5
20232.421875; 9.61578E-5
20238.281250; 1.04840E-4
20244.140625; 1.02644E-4
20250.000000; 8.66970E-5
20255.859375; 8.67241E-5
20261.718750; 9.08727E-5
20267.578125; 9.32204E-5
20273.437500; 9.34669E-5
20279.296875; 8.98662E-5
20285.156250; 9.14858E-5
20291.015625; 9.07382E-5
20296.875000; 1.00904E-4
20302.734375; 9.79867E-5
20308.593750; 9.20975E-5
20314.453125; 8.99492E-5
20320.312500; 8.34673E-5
20326.171875; 9.08633E-5
20332.031250; 9.66888E-5
20337.890625; 1.06999E-4
20343.750000; 9.99219E-5
20349.609375; 9.25921E-5
20355.468750; 9.68926E-5
20361.328125; 9.76277E-5
20367.187500; 1.01165E-4
20373.046875; 9.50055E-5
20378.906250; 9.68006E-5
20384.765625; 1.00229E-4
20390.625000; 9.37617E-5
20396.484375; 8.95767E-5
20402.343750; 9.06658E-5
20408.203125; 1.02905E-4
20414.062500; 1.05453E-4
20419.921875; 9.08536E-5
20425.781250; 8.71118E-5
20431.640625; 8.77643E-5
20437.500000; 9.76149E-5
20443.359375; 9.84067E-5
20449.218750; 9.46916E-5
20455.078125; 9.72347E-5
20460.937500; 9.91161E-5
20466.796875; 1.02961E-4
20472.656250; 1.14400E-4
20478.515625; 1.02609E-4
20484.375000; 9.26091E-5
20490.234375; 9.67329E-5
20496.093750; 9.86805E-5
20501.953125; 9.18760E-5
20507.812500; 9.55584E-5
20513.671875; 8.99134E-5
20519.531250; 9.99882E-5
20525.390625; 9.58641E-5
20531.250000; 1.04037E-4
20537.109375; 9.71078E-5
20542.968750; 9.94925E-5
20548.828125; 9.17334E-5
20554.687500; 9.46563E-5
20560.546875; 9.74003E-5
20566.406250; 9.11954E-5
20572.265625; 9.06682E-5
20578.125000; 9.62964E-5
20583.984375; 1.11664E-4
20589.843750; 1.15799E-4
20595.703125; 1.01771E-4
20601.562500; 8.73442E-5
20607.421875; 8.74344E-5
20613.281250; 8.95732E-5
20619.140625; 9.44639E-5
20625.000000; 8.73340E-5
20630.859375; 9.93439E-5
20636.718750; 9.03711E-5
20642.578125; 8.17166E-5
20648.437500; 8.33629E-5
20654.296875; 1.02220E-4
20660.156250; 9.86753E-5
20666.015625; 8.50329E-5
20671.875000; 8.85686E-5
20677.734375; 9.18659E-5
20683.593750; 9.11639E-5
20689.453125; 8.89624E-5
20695.312500; 9.68777E-5
20701.171875; 1.01837E-4
20707.031250; 1.03547E-4
20712.890625; 9.80496E-5
20718.750000; 1.04409E-4
20724.609375; 1.05808E-4
20730.468750; 1.00692E-4
20736.328125; 9.37658E-5
20742.187500; 9.07716E-5
20748.046875; 9.36546E-5
20753.906250; 9.30683E-5
20759.765625; 9.97583E-5
20765.625000; 1.05725E-4
20771.484375; 1.01945E-4
20777.343750; 1.05532E-4
20783.203125; 1.03522E-4
20789.062500; 9.62730E-5
20794.921875; 1.00722E-4
20800.781250; 9.61544E-5
20806.640625; 9.47925E-5
20812.500000; 9.43436E-5
20818.359375; 9.95413E-5
20824.218750; 9.95925E-5
20830.078125; 9.09127E-5
20835.937500; 8.98149E-5
20841.796875; 9.45823E-5
20847.656250; 1.02778E-4
20853.515625; 1.04824E-4
20859.375000; 1.02190E-4
20865.234375; 9.98825E-5
20871.093750; 1.00646E-4
20876.953125; 9.24606E-5
20882.812500; 9.48141E-5
20888.671875; 8.31680E-5
20894.531250; 9.13288E-5
20900.390625; 9.17315E-5
20906.250000; 8.90340E-5
20912.109375; 1.02130E-4
20917.968750; 8.36577E-5
20923.828125; 8.82036E-5
20929.687500; 9.40227E-5
20935.546875; 9.50975E-5
20941.406250; 8.92268E-5
20947.265625; 9.49659E-5
20953.125000; 8.89201E-5
20958.984375; 8.48077E-5
20964.843750; 9.33883E-5
20970.703125; 9.62961E-5
20976.562500; 9.51292E-5
20982.421875; 9.95797E-5
20988.281250; 9.63659E-5
20994.140625; 1.00504E-4
21000.000000; 9.53721E-5
21005.859375; 9.83688E-5
21011.718750; 1.04042E-4
21017.578125; 9.86305E-5
21023.437500; 1.05725E-4
21029.296875; 1.08954E-4
21035.156250; 1.01160E-4
21041.015625; 1.00145E-4
21046.875000; 9.90899E-5
21052.734375; 1.02571E-4
21058.593750; 9.80123E-5
21064.453125; 9.23589E-5
21070.312500; 9.32442E-5
21076.171875; 1.01737E-4
21082.031250; 1.00839E-4
21087.890625; 1.05835E-4
21093.750000; 9.32130E-5
21099.609375; 7.92984E-5
21105.468750; 8.85712E-5
21111.328125; 9.14055E-5
21117.187500; 9.47477E-5
21123.046875; 9.75840E-5
21128.906250; 9.65937E-5
21134.765625; 9.05437E-5
21140.625000; 9.64778E-5
21146.484375; 1.01182E-4
21152.343750; 1.01253E-4
21158.203125; 1.00676E-4
21164.062500; 1.00843E-4
21169.921875; 9.75746E-5
21175.781250; 1.03433E-4
21181.640625; 1.02601E-4
21187.500000; 9.94972E-5
21193.359375; 1.01194E-4
21199.218750; 9.66127E-5
21205.078125; 1.01904E-4
21210.937500; 1.00948E-4
21216.796875; 9.36093E-5
21222.656250; 1.00516E-4
21228.515625; 9.98197E-5
21234.375000; 9.85901E-5
21240.234375; 1.04220E-4
21246.093750; 9.97927E-5
21251.953125; 9.53349E-5
21257.812500; 1.01845E-4
21263.671875; 9.57298E-5
21269.531250; 9.31996E-5
21275.390625; 9.70667E-5
21281.250000; 9.76354E-5
21287.109375; 1.04037E-4
21292.968750; 9.62475E-5
21298.828125; 9.79210E-5
21304.687500; 9.22532E-5
21310.546875; 9.15472E-5
21316.406250; 8.71324E-5
21322.265625; 9.25406E-5
21328.125000; 8.81262E-5
21333.984375; 9.19549E-5
21339.843750; 9.70154E-5
21345.703125; 9.75577E-5
21351.562500; 9.47448E-5
21357.421875; 9.91943E-5
21363.281250; 1.04832E-4
21369.140625; 9.47953E-5
21375.000000; 9.31688E-5
21380.859375; 9.11352E-5
21386.718750; 9.47878E-5
21392.578125; 9.71725E-5
21398.437500; 9.24487E-5
21404.296875; 1.03526E-4
21410.156250; 9.79640E-5
21416.015625; 8.42373E-5
21421.875000; 8.79287E-5
21427.734375; 9.94476E-5
21433.593750; 1.05720E-4
21439.453125; 9.49008E-5
21445.312500; 9.63147E-5
21451.171875; 9.98173E-5
21457.031250; 9.64629E-5
21462.890625; 8.70383E-5
21468.750000; 9.54417E-5
21474.609375; 9.88317E-5
21480.468750; 1.00037E-4
21486.328125; 9.35091E-5
21492.187500; 9.27728E-5
21498.046875; 8.86117E-5
21503.906250; 8.93772E-5
21509.765625; 9.68747E-5
21515.625000; 1.06141E-4
21521.484375; 1.06756E-4
21527.343750; 1.05707E-4
21533.203125; 1.00027E-4
21539.062500; 9.74359E-5
21544.921875; 9.65576E-5
21550.781250; 9.76507E-5
21556.640625; 8.70828E-5
21562.500000; 8.28882E-5
21568.359375; 9.42363E-5
21574.218750; 9.43213E-5
21580.078125; 9.45195E-5
21585.937500; 1.04586E-4
21591.796875; 1.11752E-4
21597.656250; 1.09399E-4
21603.515625; 1.03455E-4
21609.375000; 1.00636E-4
21615.234375; 8.42596E-5
21621.093750; 9.24399E-5
21626.953125; 9.62423E-5
21632.812500; 9.52319E-5
21638.671875; 8.57907E-5
21644.531250; 9.83102E-5
21650.390625; 1.00308E-4
21656.250000; 9.71281E-5
21662.109375; 1.00603E-4
21667.968750; 9.96333E-5
21673.828125; 9.67374E-5
21679.687500; 8.74008E-5
21685.546875; 9.19127E-5
21691.406250; 9.97283E-5
21697.265625; 9.57936E-5
21703.125000; 8.77432E-5
21708.984375; 8.33289E-5
21714.843750; 1.02012E-4
21720.703125; 1.10213E-4
21726.562500; 9.63363E-5
21732.421875; 9.64292E-5
21738.281250; 9.58671E-5
21744.140625; 9.44847E-5
21750.000000; 1.02408E-4
21755.859375; 1.04750E-4
21761.718750; 9.62161E-5
21767.578125; 9.27874E-5
21773.437500; 1.00246E-4
21779.296875; 9.22202E-5
21785.156250; 8.87844E-5
21791.015625; 9.06829E-5
21796.875000; 9.07783E-5
21802.734375; 8.63744E-5
21808.593750; 9.04418E-5
21814.453125; 1.09825E-4
21820.312500; 1.02280E-4
21826.171875; 9.31915E-5
21832.031250; 9.68948E-5
21837.890625; 9.89649E-5
21843.750000; 9.80377E-5
21849.609375; 9.97521E-5
21855.468750; 1.08210E-4
21861.328125; 9.39817E-5
21867.187500; 9.05030E-5
21873.046875; 9.83264E-5
21878.906250; 9.63710E-5
21884.765625; 9.07779E-5
21890.625000; 9.30554E-5
21896.484375; 8.88778E-5
21902.343750; 9.46856E-5
21908.203125; 1.05256E-4
21914.062500; 9.71660E-5
21919.921875; 8.92553E-5
21925.781250; 8.88736E-5
21931.640625; 9.74734E-5
21937.500000; 1.02792E-4
21943.359375; 9.92412E-5
21949.218750; 9.88549E-5
21955.078125; 1.02045E-4
21960.937500; 9.77539E-5
21966.796875; 9.39800E-5
21972.656250; 8.84161E-5
21978.515625; 9.31799E-5
21984.375000; 9.37711E-5
21990.234375; 9.59639E-5
21996.093750; 9.98820E-5
22001.953125; 9.75253E-5
22007.812500; 9.00034E-5
22013.671875; 8.63332E-5
22019.531250; 9.10881E-5
22025.390625; 9.67855E-5
22031.250000; 9.20844E-5
22037.109375; 9.28744E-5
22042.968750; 9.75795E-5
22048.828125; 9.44170E-5
22054.687500; 9.86973E-5
22060.546875; 9.63331E-5
22066.406250; 9.92481E-5
22072.265625; 9.01132E-5
22078.125000; 8.30643E-5
22083.984375; 9.89286E-5
22089.843750; 1.09440E-4
22095.703125; 1.02417E-4
22101.562500; 9.16210E-5
22107.421875; 9.48501E-5
22113.281250; 8.74234E-5
22119.140625; 8.08398E-5
22125.000000; 8.31963E-5
22130.859375; 8.63279E-5
22136.718750; 9.16740E-5
22142.578125; 9.09697E-5
22148.437500; 9.66121E-5
22154.296875; 9.81746E-5
22160.156250; 9.81770E-5
22166.015625; 9.73165E-5
22171.875000; 8.85015E-5
22177.734375; 8.71390E-5
22183.593750; 9.68246E-5
22189.453125; 8.97512E-5
22195.312500; 9.60185E-5
22201.171875; 9.62592E-5
22207.031250; 8.48356E-5
22212.890625; 1.01314E-4
22218.750000; 1.07894E-4
22224.609375; 8.93141E-5
22230.468750; 8.96734E-5
22236.328125; 9.72985E-5
22242.187500; 9.68571E-5
22248.046875; 9.71070E-5
22253.906250; 9.27819E-5
22259.765625; 9.20108E-5
22265.625000; 9.32449E-5
22271.484375; 9.41235E-5
22277.343750; 9.42003E-5
22283.203125; 8.79386E-5
22289.062500; 8.59225E-5
22294.921875; 8.22029E-5
22300.781250; 8.45972E-5
22306.640625; 8.52247E-5
22312.500000; 8.79253E-5
22318.359375; 9.16073E-5
22324.218750; 9.18267E-5
22330.078125; 8.87172E-5
22335.937500; 7.93853E-5
22341.796875; 8.77076E-5
22347.656250; 9.70350E-5
22353.515625; 1.02687E-4
22359.375000; 9.98100E-5
22365.234375; 9.77475E-5
22371.093750; 8.06665E-5
22376.953125; 8.61096E-5
22382.812500; 8.36338E-5
22388.671875; 7.56269E-5
22394.531250; 8.38223E-5
22400.390625; 9.53632E-5
22406.250000; 9.25549E-5
22412.109375; 9.12304E-5
22417.968750; 1.01029E-4
22423.828125; 1.05654E-4
22429.687500; 9.98646E-5
22435.546875; 9.07490E-5
22441.406250; 8.24364E-5
22447.265625; 8.88408E-5
22453.125000; 8.14112E-5
22458.984375; 8.75818E-5
22464.843750; 7.90049E-5
22470.703125; 8.93868E-5
22476.562500; 1.02845E-4
22482.421875; 9.52560E-5
22488.281250; 9.25001E-5
22494.140625; 8.53165E-5
22500.000000; 8.20301E-5
22505.859375; 8.73694E-5
22511.718750; 8.03239E-5
22517.578125; 8.24092E-5
22523.437500; 9.16860E-5
22529.296875; 8.87329E-5
22535.156250; 8.78267E-5
22541.015625; 8.24169E-5
22546.875000; 7.67424E-5
22552.734375; 7.82795E-5
22558.593750; 7.78005E-5
22564.453125; 8.58713E-5
22570.312500; 8.59497E-5
22576.171875; 8.47946E-5
22582.031250; 8.20436E-5
22587.890625; 8.44093E-5
22593.750000; 8.38589E-5
22599.609375; 8.58151E-5
22605.468750; 8.02407E-5
22611.328125; 7.57705E-5
22617.187500; 8.40888E-5
22623.046875; 9.00226E-5
22628.906250; 9.93883E-5
22634.765625; 9.17405E-5
22640.625000; 8.99179E-5
22646.484375; 8.44828E-5
22652.343750; 8.79500E-5
22658.203125; 9.19407E-5
22664.062500; 8.92550E-5
22669.921875; 8.22469E-5
22675.781250; 9.17864E-5
22681.640625; 8.85250E-5
22687.500000; 7.02305E-5
22693.359375; 7.86597E-5
22699.218750; 8.67799E-5
22705.078125; 8.46767E-5
22710.937500; 8.55326E-5
22716.796875; 7.97780E-5
22722.656250; 7.61946E-5
22728.515625; 8.10025E-5
22734.375000; 7.40314E-5
22740.234375; 8.75059E-5
22746.093750; 8.70579E-5
22751.953125; 7.73330E-5
22757.812500; 8.24707E-5
22763.671875; 8.17834E-5
22769.531250; 7.79058E-5
22775.390625; 8.19066E-5
22781.250000; 8.12648E-5
22787.109375; 8.55632E-5
22792.968750; 8.33300E-5
22798.828125; 8.73940E-5
22804.687500; 8.54846E-5
22810.546875; 8.27334E-5
22816.406250; 7.60893E-5
22822.265625; 7.40967E-5
22828.125000; 8.50835E-5
22833.984375; 8.99595E-5
22839.843750; 9.44764E-5
22845.703125; 8.02783E-5
22851.562500; 7.11729E-5
22857.421875; 7.12188E-5
22863.281250; 7.69536E-5
22869.140625; 8.01602E-5
22875.000000; 8.62034E-5
22880.859375; 9.19277E-5
22886.718750; 8.50708E-5
22892.578125; 7.73416E-5
22898.437500; 7.93332E-5
22904.296875; 8.60881E-5
22910.156250; 8.14365E-5
22916.015625; 8.43714E-5
22921.875000; 8.09817E-5
22927.734375; 7.15392E-5
22933.593750; 6.87682E-5
22939.453125; 7.38947E-5
22945.312500; 7.22925E-5
22951.171875; 7.81275E-5
22957.031250; 8.34018E-5
22962.890625; 7.60031E-5
22968.750000; 7.53937E-5
22974.609375; 8.23048E-5
22980.468750; 7.93330E-5
22986.328125; 7.01353E-5
22992.187500; 7.12438E-5
22998.046875; 7.38596E-5
23003.906250; 6.76069E-5
23009.765625; 8.02541E-5
23015.625000; 7.96348E-5
23021.484375; 7.26472E-5
23027.343750; 7.32048E-5
23033.203125; 7.29651E-5
23039.062500; 7.02351E-5
23044.921875; 7.23346E-5
23050.781250; 7.02532E-5
23056.640625; 6.56713E-5
23062.500000; 6.80157E-5
23068.359375; 6.63874E-5
23074.218750; 6.67674E-5
23080.078125; 6.54632E-5
23085.937500; 6.77486E-5
23091.796875; 6.50061E-5
23097.656250; 7.32496E-5
23103.515625; 6.87379E-5
23109.375000; 6.05891E-5
23115.234375; 6.69035E-5
23121.093750; 7.03380E-5
23126.953125; 6.68389E-5
23132.812500; 6.29521E-5
23138.671875; 6.76896E-5
23144.531250; 6.43047E-5
23150.390625; 6.08603E-5
23156.250000; 6.86276E-5
23162.109375; 6.99859E-5
23167.968750; 6.97449E-5
23173.828125; 6.60577E-5
23179.687500; 6.05128E-5
23185.546875; 6.06349E-5
23191.406250; 6.26623E-5
23197.265625; 6.08791E-5
23203.125000; 5.83922E-5
23208.984375; 5.59440E-5
23214.843750; 5.95018E-5
23220.703125; 6.52742E-5
23226.562500; 6.09951E-5
23232.421875; 5.80206E-5
23238.281250; 6.38396E-5
23244.140625; 6.96218E-5
23250.000000; 5.90898E-5
23255.859375; 5.52844E-5
23261.718750; 5.71792E-5
23267.578125; 5.08493E-5
23273.437500; 5.59149E-5
23279.296875; 5.69608E-5
23285.156250; 5.94459E-5
23291.015625; 6.14750E-5
23296.875000; 5.94001E-5
23302.734375; 5.76160E-5
23308.593750; 5.94209E-5
23314.453125; 5.61629E-5
23320.312500; 5.94392E-5
23326.171875; 5.85169E-5
23332.031250; 5.23478E-5
23337.890625; 5.64583E-5
23343.750000; 5.67483E-5
23349.609375; 5.67629E-5
23355.468750; 5.09658E-5
23361.328125; 5.15585E-5
23367.187500; 5.22710E-5
23373.046875; 5.25219E-5
23378.906250; 5.28602E-5
23384.765625; 4.82814E-5
23390.625000; 5.63867E-5
23396.484375; 5.92078E-5
23402.343750; 4.99084E-5
23408.203125; 4.97606E-5
23414.062500; 5.68449E-5
23419.921875; 5.52068E-5
23425.781250; 5.03128E-5
23431.640625; 5.21675E-5
23437.500000; 5.11001E-5
23443.359375; 4.93691E-5
23449.218750; 5.38473E-5
23455.078125; 5.00471E-5
23460.937500; 4.60418E-5
23466.796875; 4.78116E-5
23472.656250; 5.01866E-5
23478.515625; 5.46421E-5
23484.375000; 5.15052E-5
23490.234375; 5.02204E-5
23496.093750; 4.86633E-5
23501.953125; 4.33386E-5
23507.812500; 4.18275E-5
23513.671875; 4.44088E-5
23519.531250; 5.15506E-5
23525.390625; 5.57942E-5
23531.250000; 4.50874E-5
23537.109375; 4.31665E-5
23542.968750; 4.19190E-5
23548.828125; 4.17155E-5
23554.687500; 4.26662E-5
23560.546875; 4.29845E-5
23566.406250; 3.95360E-5
23572.265625; 4.32722E-5
23578.125000; 4.41964E-5
23583.984375; 4.55257E-5
23589.843750; 4.58614E-5
23595.703125; 4.76394E-5
23601.562500; 4.22117E-5
23607.421875; 3.90685E-5
23613.281250; 4.17494E-5
23619.140625; 4.19308E-5
23625.000000; 4.18927E-5
23630.859375; 4.65422E-5
23636.718750; 4.20247E-5
23642.578125; 4.44871E-5
23648.437500; 4.48665E-5
23654.296875; 3.95257E-5
23660.156250; 4.21946E-5
23666.015625; 4.21759E-5
23671.875000; 4.14183E-5
23677.734375; 4.05133E-5
23683.593750; 4.14895E-5
23689.453125; 4.20494E-5
23695.312500; 4.13938E-5
23701.171875; 4.01914E-5
23707.031250; 4.10440E-5
23712.890625; 3.84770E-5
23718.750000; 4.07842E-5
23724.609375; 4.35689E-5
23730.468750; 3.65658E-5
23736.328125; 3.59521E-5
23742.187500; 3.35753E-5
23748.046875; 3.83302E-5
23753.906250; 4.41934E-5
23759.765625; 3.92119E-5
23765.625000; 3.38023E-5
23771.484375; 3.68486E-5
23777.343750; 3.40749E-5
23783.203125; 3.10606E-5
23789.062500; 3.55673E-5
23794.921875; 3.76982E-5
23800.781250; 3.25402E-5
23806.640625; 3.64870E-5
23812.500000; 3.59212E-5
23818.359375; 3.65522E-5
23824.218750; 3.82307E-5
23830.078125; 4.01391E-5
23835.937500; 3.49525E-5
23841.796875; 3.13369E-5
23847.656250; 3.16314E-5
23853.515625; 3.29751E-5
23859.375000; 3.63179E-5
23865.234375; 3.74692E-5
23871.093750; 3.71564E-5
23876.953125; 3.63502E-5
23882.812500; 3.64952E-5
23888.671875; 3.28200E-5
23894.531250; 3.29430E-5
23900.390625; 3.68050E-5
23906.250000; 3.50238E-5
23912.109375; 3.66119E-5
23917.968750; 3.83120E-5
23923.828125; 3.40620E-5
23929.687500; 3.45102E-5
23935.546875; 3.30188E-5
23941.406250; 3.39089E-5
23947.265625; 3.85095E-5
23953.125000; 3.47729E-5
23958.984375; 3.38322E-5
23964.843750; 3.35189E-5
23970.703125; 3.60222E-5
23976.562500; 3.59798E-5
23982.421875; 3.56336E-5
23988.281250; 3.21185E-5
23994.140625; 3.46355E-5
